time_sec,roll_rad,pitch_rad,yaw_rad,gyro_x,gyro_y,gyro_z,acc_x,acc_y,acc_z
1784149124.280734,0.007064790,-0.045122959,-0.045998774,0.000048293,0.000550105,-0.000125286,0.456269652,0.050938062,9.770638466
1784149124.282560,0.007061853,-0.045127504,-0.045997374,-0.000420314,0.000240848,0.000041043,0.458696127,0.067753784,9.795855522
1784149124.284544,0.007066739,-0.045129731,-0.045994312,-0.000095875,-0.000244607,0.000324287,0.447172076,0.077536196,9.764077187
1784149124.286530,0.007070105,-0.045124374,-0.045992624,0.000473117,0.000064128,0.000534847,0.457541049,0.081842251,9.769942284
1784149124.288508,0.007070947,-0.045118239,-0.045997955,0.000587662,0.000853679,0.000131300,0.438151568,0.110821962,9.762038231
1784149124.290495,0.007069152,-0.045119524,-0.045999978,0.000340980,0.000947878,-0.000400557,0.440711677,0.101234011,9.782604218
1784149124.292494,0.007073088,-0.045123819,-0.046006322,0.000316756,0.000331298,-0.000863787,0.446165740,0.070608892,9.794965744
1784149124.294494,0.007080721,-0.045117777,-0.046008673,0.000937473,0.000379552,-0.001251615,0.450262576,0.075071737,9.790066719
1784149124.296493,0.007079512,-0.045117445,-0.046003740,0.001120111,0.000736837,-0.000756550,0.436862350,0.042997975,9.788055420
1784149124.298534,0.007072015,-0.045123391,-0.046010341,0.000214237,0.000181794,-0.000636766,0.445565999,0.057264827,9.782326698
1784149124.300506,0.007066817,-0.045125160,-0.046013851,-0.000735556,-0.000395985,-0.001110539,0.446539581,0.063527972,9.781918526
1784149124.302506,0.007072059,-0.045123510,-0.046010468,-0.000500901,-0.000272780,-0.000819360,0.455777168,0.085756987,9.789691925
1784149124.304520,0.007074178,-0.045121439,-0.046009902,0.000178580,0.000079928,-0.000352240,0.418989629,0.048686154,9.776417732
1784149124.306502,0.007071327,-0.045117877,-0.046015125,0.000132541,0.000346137,-0.000572363,0.421129763,0.040546410,9.783091545
1784149124.308489,0.007074172,-0.045116622,-0.046013199,0.000152437,0.000484942,-0.000642683,0.429682761,0.079866678,9.782903671
1784149124.310519,0.007071889,-0.045115069,-0.046009909,0.000165152,0.000546538,-0.000116476,0.430259049,0.053409576,9.784976959
1784149124.312498,0.007071506,-0.045111302,-0.046013165,-0.000021878,0.000757623,-0.000075509,0.426848322,0.068241470,9.784619331
1784149124.314490,0.007077431,-0.045112491,-0.046009239,0.000400338,0.000725271,-0.000027764,0.457998425,0.084336653,9.796410561
1784149124.316524,0.007080083,-0.045112059,-0.046002578,0.000831113,0.000534287,0.000674199,0.437839895,0.087692939,9.801791191
1784149124.318500,0.007079767,-0.045112614,-0.046001878,0.000711892,0.000437042,0.000986546,0.436455041,0.082541361,9.772616386
1784149124.320486,0.007077694,-0.045109231,-0.045996964,0.000373750,0.000513567,0.001106199,0.423322469,0.072843380,9.773886681
1784149124.322533,0.007079266,-0.045104086,-0.045995370,0.000239467,0.000909760,0.001249595,0.454644233,0.066077277,9.786874771
1784149124.324535,0.007074762,-0.045105021,-0.046002049,-0.000058676,0.000899315,0.000575845,0.464298159,0.084802702,9.782521248
1784149124.326509,0.007075583,-0.045106750,-0.046002917,-0.000369580,0.000551727,-0.000079484,0.466230184,0.096804723,9.792462349
1784149124.328520,0.007079945,-0.045109503,-0.046000142,0.000034061,0.000179960,0.000057218,0.464213699,0.076841153,9.768122673
1784149124.330522,0.007083733,-0.045113839,-0.045996878,0.000595918,-0.000347405,0.000426577,0.466043830,0.043964978,9.788537979
1784149124.332505,0.007088577,-0.045124114,-0.045995329,0.001181750,-0.001146918,0.000603359,0.452206522,0.051199291,9.804262161
1784149124.334495,0.007093526,-0.045128778,-0.045988545,0.001698160,-0.001749759,0.000966845,0.444868773,0.038287688,9.805965424
1784149124.336499,0.007092738,-0.045132417,-0.045983024,0.001643270,-0.001862059,0.001521606,0.428461403,0.053410318,9.788112640
1784149124.338522,0.007090649,-0.045139078,-0.045980036,0.001114145,-0.002081149,0.001689528,0.435641348,0.089697972,9.775799751
1784149124.340506,0.007086101,-0.045144405,-0.045975577,0.000384332,-0.002326705,0.001756676,0.438768774,0.089956231,9.796876907
1784149124.342509,0.007085561,-0.045142233,-0.045974601,-0.000049958,-0.001893781,0.001664741,0.434634596,0.118330657,9.783603668
1784149124.344571,0.007084635,-0.045140278,-0.045982964,-0.000160069,-0.001089223,0.000716282,0.406899452,0.124621905,9.767926216
1784149124.346529,0.007084733,-0.045137160,-0.045986343,-0.000366924,-0.000571971,-0.000264074,0.417556018,0.078713000,9.777952194
1784149124.348626,0.007086342,-0.045136739,-0.045981020,-0.000303852,-0.000293103,-0.000057817,0.444517583,0.044736601,9.781796455
1784149124.350542,0.007084322,-0.045136433,-0.045983586,-0.000240735,-0.000162465,0.000146218,0.445874125,0.083202071,9.788768768
1784149124.352543,0.007081448,-0.045135375,-0.045986220,-0.000572576,-0.000006016,-0.000228906,0.439469606,0.074208871,9.804845810
1784149124.354520,0.007086411,-0.045134868,-0.045989789,-0.000343845,0.000121436,-0.000591617,0.438565671,0.072142720,9.781966209
1784149124.356543,0.007087878,-0.045134738,-0.045988213,0.000164470,0.000100944,-0.000585159,0.456345141,0.057612963,9.776958466
1784149124.358526,0.007085616,-0.045134768,-0.045985740,0.000063277,0.000052444,-0.000148147,0.453670859,0.060220759,9.793112755
1784149124.360526,0.007088788,-0.045130327,-0.045984302,0.000119667,0.000339806,0.000154164,0.475990504,0.051726911,9.813255310
1784149124.362534,0.007091888,-0.045124285,-0.045978568,0.000599046,0.000993183,0.000576135,0.466465712,0.079716019,9.800871849
1784149124.364523,0.007094348,-0.045128345,-0.045975361,0.000905568,0.000892872,0.001006620,0.432443947,0.049676318,9.801992416
1784149124.366519,0.007097501,-0.045132935,-0.045979273,0.001103577,0.000014091,0.000665830,0.438014627,0.065667145,9.811514854
1784149124.368521,0.007100750,-0.045132961,-0.045980532,0.001287644,-0.000354652,0.000112262,0.414489627,0.085015155,9.779336929
1784149124.370524,0.007100832,-0.045133110,-0.045971286,0.001188433,-0.000266312,0.000613203,0.447924882,0.067062609,9.786426544
1784149124.372544,0.007098569,-0.045130800,-0.045968525,0.000756021,-0.000001854,0.001267505,0.448971957,0.079174697,9.782469749
1784149124.374529,0.007093970,-0.045126565,-0.045966409,0.000101754,0.000485324,0.001275912,0.453294754,0.065662459,9.784628868
1784149124.376524,0.007088068,-0.045123857,-0.045963809,-0.000609708,0.000860759,0.001281777,0.455490470,0.062825114,9.801651001
1784149124.378526,0.007084665,-0.045121361,-0.045970425,-0.001073695,0.001011332,0.000689742,0.432319283,0.075339854,9.784670830
1784149124.380534,0.007086385,-0.045116331,-0.045971993,-0.000921460,0.001243613,-0.000046969,0.422115773,0.085308149,9.787415504
1784149124.382545,0.007093526,-0.045111880,-0.045973632,-0.000123892,0.001439541,-0.000275534,0.453968257,0.083641924,9.775330544
1784149124.384556,0.007100089,-0.045112438,-0.045977395,0.000778853,0.001201816,-0.000606116,0.474032760,0.074274547,9.796360970
1784149124.386535,0.007104694,-0.045111541,-0.045978576,0.001291382,0.000993981,-0.000811262,0.446471035,0.060150594,9.815969467
1784149124.388549,0.007102585,-0.045112576,-0.045979559,0.001085304,0.000811495,-0.000745180,0.460097462,0.070198916,9.764490128
1784149124.390555,0.007102603,-0.045112584,-0.045980167,0.000644025,0.000519371,-0.000644235,0.454705536,0.071424194,9.790944099
1784149124.392543,0.007106749,-0.045107260,-0.045977879,0.000761053,0.000768595,-0.000368856,0.450807691,0.081906222,9.773074150
1784149124.394543,0.007112318,-0.045104969,-0.045976892,0.001227509,0.001107482,-0.000076504,0.438115627,0.073759072,9.807530403
1784149124.396554,0.007113701,-0.045106616,-0.045979843,0.001363617,0.000836679,-0.000209722,0.436172903,0.060051076,9.785472870
1784149124.398555,0.007110405,-0.045107339,-0.045983806,0.000846472,0.000431939,-0.000615785,0.453273058,0.064680696,9.796728134
1784149124.400559,0.007109816,-0.045113020,-0.045995392,0.000305488,-0.000127585,-0.001490991,0.432945281,0.052517317,9.779594421
1784149124.402557,0.007107676,-0.045111779,-0.046000343,0.000003127,-0.000427743,-0.002200032,0.460985184,0.070111103,9.775250435
1784149124.404555,0.007104782,-0.045101970,-0.045999177,-0.000334278,0.000411498,-0.001844367,0.470449328,0.074774861,9.795463562
1784149124.406557,0.007104952,-0.045100782,-0.045995265,-0.000471471,0.001162045,-0.000988610,0.449201554,0.098008133,9.779901505
1784149124.408569,0.007101347,-0.045100808,-0.045992587,-0.000615046,0.001042646,-0.000260671,0.418514013,0.085258752,9.800861359
1784149124.410563,0.007102281,-0.045099206,-0.045995269,-0.000629132,0.000867462,-0.000182017,0.394962132,0.067210391,9.798031807
1784149124.412566,0.007107279,-0.045096520,-0.046003386,-0.000077695,0.000684438,-0.000882311,0.437105358,0.063153058,9.788632393
1784149124.414563,0.007113557,-0.045098670,-0.046007179,0.000683095,0.000295800,-0.001483579,0.476209134,0.068447754,9.792738914
1784149124.416575,0.007114222,-0.045097813,-0.046010390,0.000949763,0.000247668,-0.001577760,0.469464242,0.066799365,9.784651756
1784149124.418573,0.007111627,-0.045096640,-0.046017505,0.000532148,0.000436409,-0.001844665,0.444475919,0.078755602,9.786497116
1784149124.420571,0.007108937,-0.045097690,-0.046017453,0.000007674,0.000322852,-0.001806177,0.426523656,0.078547150,9.785135269
1784149124.422573,0.007107982,-0.045100816,-0.046015296,-0.000344244,-0.000178052,-0.001148608,0.435750216,0.062693715,9.792662621
1784149124.424570,0.007104240,-0.045099467,-0.046015006,-0.000671218,-0.000380313,-0.000650730,0.435069591,0.080626838,9.792328835
1784149124.426570,0.007101245,-0.045094643,-0.046013400,-0.001028671,0.000139821,-0.000320605,0.395007849,0.070813149,9.795367241
1784149124.428573,0.007099829,-0.045095909,-0.046017811,-0.001145604,0.000339186,-0.000405818,0.454999655,0.057229947,9.770230293
1784149124.430576,0.007101675,-0.045094281,-0.046022858,-0.000834255,0.000267032,-0.000937823,0.467897743,0.048866373,9.789018631
1784149124.432586,0.007099024,-0.045093630,-0.046027228,-0.000604711,0.000466427,-0.001323975,0.449735790,0.067976870,9.780605316
1784149124.434574,0.007105274,-0.045092698,-0.046024080,-0.000113755,0.000568875,-0.001063452,0.425717682,0.087790951,9.809850693
1784149124.436573,0.007110310,-0.045094211,-0.046022441,0.000529876,0.000421998,-0.000477304,0.455908597,0.097330838,9.800077438
1784149124.438585,0.007109666,-0.045094438,-0.046026006,0.000510681,0.000232923,-0.000484777,0.455060601,0.061763611,9.762638092
1784149124.440582,0.007110800,-0.045092065,-0.046027083,0.000390995,0.000313421,-0.000669692,0.432906330,0.047751904,9.756697655
1784149124.442580,0.007110979,-0.045090564,-0.046027638,0.000430858,0.000459471,-0.000605141,0.440181404,0.054090362,9.734329224
1784149124.444577,0.007108966,-0.045086369,-0.046023794,0.000261564,0.000691897,-0.000214746,0.455977440,0.065958269,9.801221848
1784149124.446585,0.007103998,-0.045088220,-0.046031311,-0.000314417,0.000706872,-0.000383221,0.432359725,0.078901283,9.787832260
1784149124.448598,0.007102281,-0.045090217,-0.046040799,-0.000754600,0.000291556,-0.001410951,0.444801539,0.069672979,9.803028107
1784149124.450588,0.007102363,-0.045093708,-0.046037965,-0.000680733,-0.000163451,-0.001473896,0.464775890,0.050272763,9.785885811
1784149124.452588,0.007101991,-0.045096122,-0.046022080,-0.000450058,-0.000489342,0.000195484,0.463295251,0.075470619,9.773491859
1784149124.454596,0.007104172,-0.045096487,-0.046017800,-0.000135257,-0.000512895,0.001503294,0.463197589,0.068620823,9.791831017
1784149124.456599,0.007099431,-0.045097359,-0.046026584,-0.000244271,-0.000408227,0.000795394,0.424639016,0.072187401,9.800784111
1784149124.458594,0.007093168,-0.045092251,-0.046028532,-0.000915451,0.000036821,-0.000116330,0.418152571,0.055658348,9.805602074
1784149124.460595,0.007091002,-0.045090746,-0.046022046,-0.001224715,0.000478783,0.000249385,0.449492007,0.087432191,9.817492485
1784149124.462602,0.007094597,-0.045092538,-0.046014261,-0.000787274,0.000357746,0.001146202,0.438114673,0.110936061,9.809115410
1784149124.464599,0.007098239,-0.045092534,-0.046018165,-0.000106449,0.000162099,0.001077428,0.452068120,0.076754726,9.802183151
1784149124.466598,0.007090040,-0.045089081,-0.046017535,-0.000400786,0.000408844,0.000576944,0.454985470,0.057928741,9.798031807
1784149124.468597,0.007084727,-0.045087785,-0.046012267,-0.001194334,0.000680851,0.000861806,0.439817369,0.065301128,9.796718597
1784149124.470603,0.007086539,-0.045087382,-0.046005588,-0.001070973,0.000617128,0.001448069,0.450185508,0.067574039,9.773429871
1784149124.472647,0.007081490,-0.045084924,-0.046001352,-0.000961293,0.000714929,0.001803783,0.433802933,0.047734052,9.757596016
1784149124.474639,0.007075400,-0.045083798,-0.046002250,-0.001440290,0.000831189,0.001574881,0.457157046,0.052063774,9.799788475
1784149124.476615,0.007073666,-0.045083318,-0.045999181,-0.001537466,0.000769728,0.001317455,0.438670009,0.043886803,9.785820007
1784149124.478624,0.007075493,-0.045085024,-0.045993321,-0.001050790,0.000536295,0.001563000,0.427002847,0.044839989,9.798816681
1784149124.480613,0.007075923,-0.045084547,-0.045991257,-0.000588187,0.000311521,0.001669538,0.451194674,0.077360459,9.781563759
1784149124.482633,0.007075064,-0.045083176,-0.045986302,-0.000447393,0.000384213,0.001693999,0.442341834,0.087753102,9.785208702
1784149124.484665,0.007071308,-0.045080781,-0.045985486,-0.000632557,0.000566707,0.001639876,0.459282935,0.078159250,9.780680656
1784149124.486668,0.007069145,-0.045081042,-0.045980860,-0.000858191,0.000664743,0.001582058,0.440611035,0.091118507,9.756087303
1784149124.488636,0.007070412,-0.045087699,-0.045981187,-0.000685466,0.000121106,0.001446787,0.417476267,0.072409749,9.782396317
1784149124.490625,0.007071640,-0.045090582,-0.045985483,-0.000344328,-0.000561472,0.000733228,0.409971535,0.082801059,9.783800125
1784149124.492629,0.007072601,-0.045085706,-0.045984447,-0.000142665,-0.000356803,0.000307503,0.442436665,0.059017435,9.793542862
1784149124.494640,0.007073809,-0.045089465,-0.045982890,0.000020783,-0.000264314,0.000394218,0.451552451,0.069342278,9.774339676
1784149124.496633,0.007071298,-0.045091126,-0.045981750,-0.000062376,-0.000500854,0.000473426,0.471141666,0.056933943,9.782796860
1784149124.498634,0.007068292,-0.045088492,-0.045979824,-0.000407635,-0.000238342,0.000569202,0.445331603,0.038393229,9.790274620
1784149124.500626,0.007067471,-0.045088761,-0.045979679,-0.000550112,-0.000011839,0.000567136,0.427243441,0.064975984,9.802083969
1784149124.502632,0.007064069,-0.045087837,-0.045973808,-0.000692275,0.000007925,0.000835539,0.456294388,0.054375492,9.791284561
1784149124.504627,0.007059762,-0.045083668,-0.045966603,-0.001010649,0.000327638,0.001519825,0.429611474,0.074440278,9.790041924
1784149124.506635,0.007065630,-0.045083441,-0.045964826,-0.000627731,0.000501800,0.001712090,0.425028622,0.102010384,9.764660835
1784149124.508635,0.007069293,-0.045082718,-0.045963407,0.000173986,0.000391595,0.001436471,0.407703847,0.080612242,9.780645370
1784149124.510640,0.007068329,-0.045079779,-0.045965105,0.000308906,0.000533472,0.001019588,0.463613749,0.066737384,9.803923607
1784149124.512639,0.007068487,-0.045080211,-0.045967553,0.000172575,0.000622908,0.000462717,0.448343962,0.064391360,9.783270836
1784149124.514674,0.007073027,-0.045081586,-0.045968223,0.000449676,0.000395684,0.000110167,0.434888482,0.065418422,9.789093018
1784149124.516652,0.007073100,-0.045083400,-0.045967482,0.000667929,0.000120652,0.000069376,0.432937294,0.051643651,9.776451111
1784149124.518698,0.007069226,-0.045084659,-0.045970671,0.000248733,-0.000072585,-0.000105634,0.454171509,0.066298872,9.819603920
1784149124.520657,0.007069964,-0.045082591,-0.045969114,-0.000036358,0.000002083,-0.000177739,0.424018830,0.095461085,9.805414200
1784149124.522656,0.007069236,-0.045078050,-0.045968167,-0.000042509,0.000358632,0.000042515,0.448500007,0.115775906,9.802878380
1784149124.524645,0.007068070,-0.045076150,-0.045971487,-0.000191037,0.000603920,-0.000122275,0.440417439,0.114211552,9.785376549
1784149124.526653,0.007068632,-0.045079295,-0.045970041,-0.000321888,0.000368651,-0.000208561,0.448643565,0.088235050,9.769077301
1784149124.528653,0.007069649,-0.045084432,-0.045964785,-0.000242875,-0.000276141,0.000303877,0.445306063,0.075376257,9.819205284
1784149124.530659,0.007073428,-0.045084659,-0.045971598,0.000143452,-0.000565875,0.000101051,0.416643590,0.080227003,9.818760872
1784149124.532658,0.007073966,-0.045082733,-0.045976460,0.000340624,-0.000357848,-0.000730474,0.420382708,0.054307975,9.802457809
1784149124.534658,0.007077178,-0.045088585,-0.045978285,0.000461263,-0.000586140,-0.000995399,0.424081594,0.062014051,9.783231735
1784149124.536657,0.007075900,-0.045089304,-0.045986935,0.000457410,-0.000929901,-0.001442254,0.437768251,0.077806368,9.742998123
1784149124.538664,0.007076080,-0.045089539,-0.045991007,0.000242092,-0.000799168,-0.001910412,0.413868099,0.072309487,9.803014755
1784149124.540656,0.007083238,-0.045091487,-0.045990754,0.000662189,-0.000731692,-0.001673040,0.429783612,0.087551981,9.773090363
1784149124.542661,0.007092499,-0.045092840,-0.045991767,0.001545355,-0.000779862,-0.001319225,0.463598400,0.064589791,9.790907860
1784149124.544667,0.007095933,-0.045100491,-0.045998648,0.001914383,-0.001205100,-0.001533430,0.456760019,0.054503292,9.772455215
1784149124.546669,0.007094382,-0.045103606,-0.046001993,0.001513610,-0.001596882,-0.001817360,0.437531412,0.061752547,9.795796394
1784149124.548665,0.007091681,-0.045102436,-0.045989946,0.000863566,-0.001274427,-0.000721652,0.444182634,0.054556154,9.787687302
1784149124.550670,0.007093316,-0.045103136,-0.045979831,0.000624630,-0.000885593,0.000980380,0.466946691,0.081181332,9.782948494
1784149124.552667,0.007099540,-0.045099624,-0.045988120,0.000980595,-0.000383424,0.000814314,0.445472866,0.049639959,9.783620834
1784149124.554668,0.007100903,-0.045090761,-0.045998201,0.001159638,0.000621651,-0.000675167,0.439188153,0.047671422,9.756703377
1784149124.556669,0.007101778,-0.045091178,-0.045993961,0.001013091,0.001009526,-0.000896110,0.430118680,0.078139052,9.773030281
1784149124.558679,0.007104267,-0.045099795,-0.045986779,0.001035473,0.000113555,0.000109942,0.449502528,0.087514855,9.805836678
1784149124.560677,0.007107912,-0.045102969,-0.045991488,0.001177861,-0.000716740,0.000228290,0.458217680,0.101467304,9.781276703
1784149124.562704,0.007111262,-0.045106716,-0.045994949,0.001215104,-0.000938473,-0.000405539,0.436666012,0.064448632,9.796262741
1784149124.564676,0.007107792,-0.045109674,-0.045990143,0.000788839,-0.001081211,-0.000199975,0.431452692,0.078836478,9.798590660
1784149124.566677,0.007105282,-0.045113921,-0.045995187,0.000133850,-0.001288922,-0.000141608,0.446230799,0.076391049,9.800830841
1784149124.568689,0.007098770,-0.045116723,-0.045999311,-0.000576900,-0.001434065,-0.000695135,0.429259151,0.084123120,9.815211296
1784149124.570682,0.007097338,-0.045120973,-0.045998413,-0.000968879,-0.001525594,-0.000700954,0.456242532,0.087098300,9.789253235
1784149124.572761,0.007100380,-0.045119237,-0.045996759,-0.000636509,-0.001223164,-0.000341119,0.453552037,0.050772242,9.798881531
1784149124.574698,0.007103940,-0.045116700,-0.045992672,-0.000046283,-0.000539840,0.000122719,0.429495692,0.066637345,9.816444397
1784149124.576711,0.007108768,-0.045118257,-0.045991462,0.000560867,-0.000385718,0.000422884,0.444285661,0.064690746,9.811514854
1784149124.578707,0.007106808,-0.045118537,-0.045989770,0.000621706,-0.000466435,0.000495455,0.424108237,0.067087516,9.825856209
1784149124.580714,0.007102806,-0.045116328,-0.045995079,0.000037563,-0.000209927,0.000133889,0.444646925,0.056294553,9.794424057
1784149124.582707,0.007100455,-0.045117773,-0.045996357,-0.000424635,-0.000111448,-0.000328629,0.451869369,0.060596328,9.806563377
1784149124.584730,0.007098734,-0.045117430,-0.045982666,-0.000548641,-0.000157853,0.000615790,0.454192579,0.102434024,9.778590202
1784149124.586709,0.007104516,-0.045117557,-0.045984138,-0.000185739,-0.000088330,0.001268981,0.443655729,0.083834574,9.766802788
1784149124.588706,0.007106637,-0.045119904,-0.045990251,0.000278617,-0.000229529,0.000390187,0.473094583,0.069101281,9.769426346
1784149124.590706,0.007103354,-0.045119375,-0.045988619,0.000110500,-0.000292372,-0.000015913,0.465549648,0.039964519,9.784925461
1784149124.592704,0.007094353,-0.045119788,-0.045981623,-0.000680978,-0.000138592,0.000608939,0.430639625,0.048002854,9.788528442
1784149124.594707,0.007092291,-0.045120094,-0.045977805,-0.001168096,-0.000082413,0.001208382,0.444398373,0.072874866,9.794529915
1784149124.596706,0.007089477,-0.045119930,-0.045983344,-0.001195834,-0.000075700,0.000778912,0.438594431,0.073585175,9.768077850
1784149124.598711,0.007090116,-0.045124754,-0.045981281,-0.001038258,-0.000377939,0.000338257,0.444868952,0.077094361,9.830425262
1784149124.600715,0.007088399,-0.045123726,-0.045978781,-0.000815513,-0.000530604,0.000559346,0.476058304,0.056314640,9.798041344
1784149124.602716,0.007088738,-0.045122467,-0.045981202,-0.000683402,-0.000153635,0.000416198,0.457117885,0.047701810,9.783171654
1784149124.604714,0.007092201,-0.045120064,-0.045986433,-0.000259456,0.000210767,-0.000228617,0.461458683,0.072732709,9.783784866
1784149124.606719,0.007086469,-0.045120556,-0.045984659,-0.000386816,0.000335057,-0.000392957,0.434982628,0.073456280,9.792731285
1784149124.608716,0.007085585,-0.045123231,-0.045983724,-0.000755533,0.000083935,-0.000081775,0.426039547,0.039062977,9.793847084
1784149124.610721,0.007092431,-0.045130819,-0.045978207,-0.000126348,-0.000631990,0.000359996,0.452258736,0.054042872,9.782311440
1784149124.612721,0.007090708,-0.045135662,-0.045975696,0.000330187,-0.001298172,0.000789324,0.419564486,0.060212921,9.792632103
1784149124.614726,0.007087526,-0.045136500,-0.045970861,-0.000019330,-0.001326033,0.001085498,0.428052932,0.057380944,9.797552109
1784149124.616723,0.007094176,-0.045134511,-0.045969009,0.000255399,-0.000901614,0.001232369,0.443966657,0.074230857,9.793641090
1784149124.618729,0.007093997,-0.045134041,-0.045965370,0.000655600,-0.000504038,0.001249914,0.437294185,0.117228530,9.807809830
1784149124.620724,0.007095276,-0.045130201,-0.045957908,0.000586160,-0.000068957,0.001660073,0.460388780,0.097219303,9.807702065
1784149124.622728,0.007098906,-0.045120571,-0.045952979,0.000759955,0.000947101,0.002035327,0.441884041,0.087282278,9.789240837
1784149124.624726,0.007096195,-0.045117669,-0.045951571,0.000597469,0.001620844,0.001910727,0.432905614,0.048962239,9.775535583
1784149124.626729,0.007095054,-0.045120254,-0.045950625,0.000234344,0.001161890,0.001561551,0.452590942,0.045417748,9.797499657
1784149124.628731,0.007093062,-0.045121074,-0.045948405,0.000021190,0.000574673,0.001360009,0.459987879,0.063660368,9.802107811
1784149124.630736,0.007088543,-0.045119893,-0.045954283,-0.000437235,0.000440914,0.000763048,0.456083238,0.074088350,9.791859627
1784149124.632737,0.007080155,-0.045119729,-0.045958720,-0.001202885,0.000458777,-0.000105118,0.422229141,0.094308719,9.781644821
1784149124.634735,0.007072719,-0.045120187,-0.045959678,-0.001943441,0.000363664,-0.000395477,0.437724620,0.076246276,9.773472786
1784149124.636741,0.007072463,-0.045122869,-0.045961116,-0.001961206,0.000089651,-0.000426793,0.473159045,0.075283721,9.782019615
1784149124.638752,0.007073710,-0.045126617,-0.045960363,-0.001380086,-0.000332914,-0.000359646,0.423986822,0.091966420,9.792839050
1784149124.640748,0.007079825,-0.045124061,-0.045959603,-0.000501557,-0.000322446,-0.000181871,0.440644592,0.094625883,9.766869545
1784149124.642756,0.007080310,-0.045120444,-0.045961585,-0.000036459,0.000192151,-0.000230335,0.459576696,0.066798672,9.802576065
1784149124.644748,0.007073413,-0.045121431,-0.045962796,-0.000586039,0.000325172,-0.000358659,0.457658291,0.056524914,9.801611900
1784149124.646753,0.007063927,-0.045119882,-0.045963272,-0.001494486,0.000282788,-0.000327362,0.439736694,0.057774816,9.784117699
1784149124.648751,0.007062979,-0.045120534,-0.045954876,-0.001723507,0.000279369,0.000328091,0.432960868,0.054261476,9.786329269
1784149124.650758,0.007070051,-0.045120917,-0.045952495,-0.000807299,0.000138320,0.000950945,0.449809909,0.076262385,9.812490463
1784149124.652751,0.007070530,-0.045121636,-0.045952566,-0.000084223,0.000038510,0.000827135,0.472157568,0.067584477,9.795419693
1784149124.654754,0.007071668,-0.045127183,-0.045955554,0.000023631,-0.000387565,0.000391322,0.470556825,0.082107596,9.772198677
1784149124.656761,0.007076552,-0.045130741,-0.045956228,0.000372158,-0.000826530,0.000019393,0.452742368,0.057960659,9.797580719
1784149124.658753,0.007079952,-0.045126393,-0.045948401,0.000812521,-0.000468780,0.000474591,0.455690861,0.043433044,9.819008827
1784149124.660756,0.007091701,-0.045122117,-0.045942314,0.001661647,0.000251463,0.001242841,0.429985881,0.067769170,9.782379150
1784149124.662796,0.007099102,-0.045121245,-0.045946550,0.002550489,0.000508343,0.000971058,0.402810991,0.083445922,9.769002914
1784149124.664768,0.007098156,-0.045122534,-0.045949601,0.002309215,0.000312619,0.000191863,0.426727802,0.095153518,9.780757904
1784149124.666765,0.007095274,-0.045119297,-0.045953337,0.001285303,0.000340732,-0.000303961,0.452219695,0.087677509,9.778043747
1784149124.668769,0.007086518,-0.045114901,-0.045959126,0.000001499,0.000745991,-0.000826341,0.423967779,0.090600282,9.795968056
1784149124.670774,0.007083546,-0.045117274,-0.045959085,-0.000811690,0.000678369,-0.000955992,0.441447258,0.086976781,9.769959450
1784149124.672800,0.007086095,-0.045118641,-0.045960970,-0.000703459,0.000260129,-0.000816710,0.449022084,0.048059300,9.810514450
1784149124.674812,0.007095781,-0.045117337,-0.045968313,0.000211068,0.000201744,-0.001254099,0.466754586,0.065480441,9.785985947
1784149124.676779,0.007096111,-0.045113407,-0.045975532,0.000792246,0.000576323,-0.001931580,0.469328970,0.053573579,9.754528046
1784149124.678794,0.007096876,-0.045110986,-0.045980077,0.000619269,0.000926299,-0.002209014,0.441075534,0.057700332,9.792188644
1784149124.680779,0.007095814,-0.045114949,-0.045981288,0.000413313,0.000567596,-0.001999476,0.437214106,0.072522081,9.794073105
1784149124.682785,0.007089965,-0.045119338,-0.045981649,-0.000140861,-0.000213216,-0.001543485,0.458195895,0.063705623,9.798969269
1784149124.684802,0.007088326,-0.045116622,-0.045986053,-0.000593414,-0.000330194,-0.001425483,0.415408790,0.050422240,9.790770531
1784149124.686790,0.007090229,-0.045109794,-0.045989979,-0.000389955,0.000336467,-0.001605260,0.463312864,0.079257436,9.808038712
1784149124.688783,0.007092215,-0.045113038,-0.045987856,0.000024121,0.000420617,-0.001304797,0.455281675,0.083367132,9.811644554
1784149124.690783,0.007098461,-0.045117386,-0.045985803,0.000588599,-0.000207318,-0.000692196,0.439727426,0.057701692,9.794427872
1784149124.692785,0.007104968,-0.045110151,-0.045987122,0.001314983,-0.000000641,-0.000494447,0.434039205,0.033488568,9.807270050
1784149124.694790,0.007107820,-0.045108031,-0.045990776,0.001596627,0.000586895,-0.000727435,0.426321566,0.063173383,9.805210114
1784149124.696789,0.007107359,-0.045108646,-0.045992222,0.001307768,0.000480150,-0.000882878,0.432992876,0.057756130,9.798905373
1784149124.698792,0.007099886,-0.045107786,-0.045992114,0.000408653,0.000318046,-0.000708851,0.428102881,0.098202035,9.790642738
1784149124.700792,0.007093712,-0.045107484,-0.045991410,-0.000625229,0.000311040,-0.000419591,0.448325723,0.063031577,9.785505295
1784149124.702798,0.007086589,-0.045109361,-0.045995001,-0.001325896,0.000090929,-0.000462708,0.453551352,0.086735718,9.782073975
1784149124.704796,0.007082872,-0.045110308,-0.046001386,-0.001691492,-0.000157989,-0.000981780,0.451872349,0.095778339,9.773612022
1784149124.706800,0.007085586,-0.045111801,-0.046007033,-0.001486591,-0.000271411,-0.001521258,0.448120981,0.084415458,9.803126335
1784149124.708800,0.007082066,-0.045113374,-0.046006486,-0.001302682,-0.000393288,-0.001445079,0.479157984,0.051896531,9.783668518
1784149124.710804,0.007079619,-0.045111790,-0.046005335,-0.001348485,-0.000285022,-0.000919424,0.462175310,0.059136111,9.804322243
1784149124.712799,0.007076150,-0.045108851,-0.046008922,-0.001268587,0.000172381,-0.000823030,0.462749988,0.067419425,9.772543907
1784149124.714804,0.007072877,-0.045109566,-0.046013415,-0.001283543,0.000346714,-0.001132897,0.448240310,0.054657035,9.766172409
1784149124.716806,0.007076644,-0.045107663,-0.046010878,-0.000863050,0.000322634,-0.000961649,0.457831591,0.070456222,9.795424461
1784149124.718810,0.007076257,-0.045105327,-0.046008024,-0.000338606,0.000515743,-0.000347977,0.443403482,0.101196341,9.783054352
1784149124.720807,0.007078917,-0.045103442,-0.046013288,-0.000099929,0.000661175,-0.000424627,0.459716320,0.078032665,9.797715187
1784149124.722813,0.007082447,-0.045103028,-0.046013203,0.000326558,0.000675619,-0.000679144,0.442605644,0.072103694,9.780176163
1784149124.724816,0.007078652,-0.045101963,-0.046011854,0.000219710,0.000633768,-0.000396166,0.454724193,0.071977079,9.776152611
1784149124.726811,0.007081230,-0.045100696,-0.046018194,0.000035025,0.000661086,-0.000623110,0.441276938,0.073474362,9.778839111
1784149124.728823,0.007076920,-0.045099091,-0.046017148,-0.000135242,0.000717481,-0.000806342,0.443728626,0.053303875,9.775574684
1784149124.730826,0.007073632,-0.045095745,-0.046009105,-0.000585927,0.000863993,0.000053094,0.452152967,0.047129489,9.809615135
1784149124.732824,0.007071653,-0.045095310,-0.046008956,-0.000679626,0.000914641,0.000607037,0.453322768,0.070342019,9.819628716
1784149124.734829,0.007070055,-0.045100857,-0.046010468,-0.000662553,0.000342630,0.000357456,0.469320834,0.056346819,9.805656433
1784149124.736824,0.007069074,-0.045102209,-0.046007108,-0.000633142,-0.000129584,0.000391979,0.424356967,0.048076991,9.789419174
1784149124.738829,0.007068972,-0.045104098,-0.046005595,-0.000500990,-0.000224010,0.000617265,0.454503685,0.052810136,9.762578011
1784149124.740845,0.007067226,-0.045106784,-0.046003379,-0.000478811,-0.000471548,0.000708062,0.430591375,0.043164317,9.775944710
1784149124.742841,0.007064746,-0.045104753,-0.045998700,-0.000514685,-0.000400656,0.000992146,0.455325902,0.085337035,9.786551476
1784149124.744843,0.007060537,-0.045106899,-0.045994997,-0.000703403,-0.000311924,0.001307357,0.440804094,0.072479270,9.793627739
1784149124.746836,0.007058211,-0.045111872,-0.045988843,-0.000954882,-0.000732697,0.001642411,0.448479980,0.076406814,9.794556618
1784149124.748841,0.007056368,-0.045109477,-0.045989003,-0.000989481,-0.000733181,0.001617657,0.411900818,0.093160652,9.772660255
1784149124.750843,0.007059427,-0.045104720,-0.045990773,-0.000644347,-0.000050126,0.001044415,0.407655209,0.077797294,9.798562050
1784149124.752841,0.007061438,-0.045101065,-0.045991015,-0.000122076,0.000408666,0.000608976,0.406459361,0.052757956,9.793467522
1784149124.754840,0.007063515,-0.045098279,-0.045983788,0.000219393,0.000613553,0.000904742,0.440729976,0.064193748,9.761742592
1784149124.756848,0.007062145,-0.045107618,-0.045981333,0.000224453,0.000008255,0.001314184,0.445384771,0.079239748,9.779777527
1784149124.758850,0.007063081,-0.045110844,-0.045979526,0.000134128,-0.000843452,0.001248983,0.449437082,0.080919445,9.788310051
1784149124.760855,0.007065666,-0.045105357,-0.045976792,0.000350433,-0.000458998,0.001207533,0.411382198,0.052592963,9.807816505
1784149124.762850,0.007066449,-0.045098834,-0.045979474,0.000478827,0.000399243,0.000873631,0.439645767,0.049762391,9.776891708
1784149124.764855,0.007068152,-0.045103591,-0.045982953,0.000493439,0.000325891,0.000211177,0.424220204,0.073645130,9.785549164
1784149124.766857,0.007065613,-0.045106079,-0.045984518,0.000262598,-0.000301468,-0.000184735,0.431162536,0.055472538,9.808303833
1784149124.768857,0.007063075,-0.045102403,-0.045980975,-0.000171692,-0.000182638,0.000017031,0.444726497,0.062191185,9.784150124
1784149124.770855,0.007066198,-0.045096401,-0.045978207,-0.000066071,0.000527690,0.000438938,0.463514209,0.058251567,9.800284386
1784149124.772893,0.007071564,-0.045096096,-0.045979630,0.000516208,0.000879928,0.000385140,0.439693630,0.054597750,9.789925575
1784149124.774906,0.007072497,-0.045097213,-0.045977280,0.000790537,0.000652278,0.000324960,0.428051978,0.056967955,9.792618752
1784149124.776870,0.007066333,-0.045095634,-0.045975760,0.000266061,0.000438812,0.000514377,0.459679812,0.075313114,9.802183151
1784149124.778872,0.007060515,-0.045097690,-0.045977447,-0.000586249,0.000217927,0.000398529,0.447939277,0.068797223,9.794506073
1784149124.780869,0.007059064,-0.045097724,-0.045975201,-0.000918356,0.000017681,0.000350478,0.418906718,0.079947434,9.790964127
1784149124.782867,0.007060611,-0.045092002,-0.045977328,-0.000667536,0.000280806,0.000264379,0.428454250,0.090132982,9.790591240
1784149124.784884,0.007060843,-0.045092296,-0.045976866,-0.000376232,0.000454094,0.000075365,0.438038647,0.065451309,9.778784752
1784149124.786870,0.007068085,-0.045091905,-0.045981362,0.000267394,0.000306800,-0.000243687,0.446037620,0.058250394,9.768882751
1784149124.788871,0.007073793,-0.045094326,-0.045984387,0.001096904,0.000053165,-0.000729080,0.453755677,0.066158719,9.777011871
1784149124.790867,0.007073698,-0.045097880,-0.045977831,0.001190570,-0.000364848,-0.000308567,0.451572299,0.070714779,9.770314217
1784149124.792870,0.007070336,-0.045099817,-0.045970317,0.000715230,-0.000614046,0.000737341,0.425233990,0.083873145,9.794582367
1784149124.794878,0.007070316,-0.045101948,-0.045970678,0.000352973,-0.000702538,0.001030420,0.435137123,0.050864875,9.819038391
1784149124.796913,0.007074270,-0.045108940,-0.045977511,0.000539156,-0.001161751,0.000249591,0.401702046,0.068413973,9.805667877
1784149124.798881,0.007083185,-0.045107685,-0.045979824,0.001274330,-0.001267762,-0.000479475,0.402198762,0.070813380,9.782371521
1784149124.800888,0.007080593,-0.045107648,-0.045981620,0.001344425,-0.000838206,-0.000647472,0.423477262,0.086628430,9.788321495
1784149124.802888,0.007078999,-0.045106456,-0.045984231,0.000598981,-0.000606797,-0.000753524,0.439338923,0.061424665,9.775622368
1784149124.804884,0.007082998,-0.045106251,-0.045984380,0.000507893,-0.000425646,-0.000739734,0.463374466,0.083390824,9.793719292
1784149124.806885,0.007085410,-0.045108214,-0.045986556,0.000693630,-0.000386504,-0.000711753,0.454458535,0.088017218,9.789256096
1784149124.808889,0.007084594,-0.045109276,-0.045986675,0.000502491,-0.000444577,-0.000674319,0.429459482,0.062704258,9.802520752
1784149124.810883,0.007082636,-0.045109294,-0.045984980,0.000182779,-0.000396600,-0.000376055,0.439812273,0.065666415,9.808378220
1784149124.812889,0.007077417,-0.045105409,-0.045985010,-0.000335932,-0.000034693,-0.000139354,0.451730907,0.084935069,9.786543846
1784149124.814892,0.007078304,-0.045102164,-0.045991957,-0.000547321,0.000446800,-0.000561151,0.425451607,0.063401088,9.774724960
1784149124.816892,0.007081198,-0.045103412,-0.045995340,-0.000126458,0.000396932,-0.001122469,0.436699986,0.065932408,9.776544571
1784149124.818932,0.007083168,-0.045105867,-0.045992684,0.000282954,-0.000022473,-0.000883490,0.445290595,0.071201898,9.776139259
1784149124.820901,0.007083551,-0.045104790,-0.045995131,0.000366421,-0.000110141,-0.000636316,0.448067397,0.078318879,9.778428078
1784149124.822893,0.007082484,-0.045104224,-0.045997676,0.000159395,0.000064973,-0.000798331,0.470798254,0.066686727,9.798102379
1784149124.824897,0.007080005,-0.045105550,-0.045996550,-0.000174576,0.000030975,-0.000664823,0.460916400,0.065920472,9.797639847
1784149124.826905,0.007081984,-0.045109995,-0.046002377,-0.000131742,-0.000337423,-0.000803697,0.453316748,0.067457482,9.784192085
1784149124.828901,0.007084785,-0.045109123,-0.046010833,0.000228057,-0.000461252,-0.001571455,0.410715550,0.071447432,9.803904533
1784149124.830898,0.007083885,-0.045104921,-0.046008006,0.000277825,0.000005152,-0.001532285,0.433278710,0.081491694,9.799955368
1784149124.832900,0.007085106,-0.045102097,-0.046001721,0.000131636,0.000412689,-0.000492762,0.425009131,0.063861161,9.773829460
1784149124.834900,0.007078971,-0.045105219,-0.046002630,-0.000341341,0.000210988,0.000026487,0.434822828,0.059226457,9.777846336
1784149124.836903,0.007072291,-0.045116145,-0.045999818,-0.001037464,-0.000722795,0.000183190,0.475713164,0.064027928,9.785088539
1784149124.838906,0.007073413,-0.045121972,-0.046002533,-0.001058043,-0.001587399,0.000152678,0.467319876,0.075310767,9.788738251
1784149124.840911,0.007070164,-0.045122039,-0.045996103,-0.000903672,-0.001554549,0.000369085,0.453914553,0.082002342,9.817014694
1784149124.842922,0.007069941,-0.045121603,-0.045990046,-0.000859701,-0.001047554,0.001125027,0.423083544,0.092336848,9.805393219
1784149124.844914,0.007083018,-0.045119632,-0.045990035,0.000259822,-0.000542957,0.001190806,0.462821543,0.075279221,9.801287651
1784149124.846919,0.007086005,-0.045120683,-0.045991004,0.001311002,-0.000228914,0.000751403,0.449355006,0.072976969,9.771223068
1784149124.848918,0.007084684,-0.045122519,-0.045991950,0.001097611,-0.000259457,0.000410249,0.449094683,0.088248365,9.766387939
1784149124.850919,0.007087503,-0.045121200,-0.045995086,0.000888852,-0.000226250,0.000017533,0.454837114,0.082594611,9.795050621
1784149124.852917,0.007093569,-0.045117889,-0.045999117,0.001229964,0.000208044,-0.000500163,0.448608458,0.085931651,9.778028488
1784149124.854923,0.007091165,-0.045116737,-0.046004623,0.001117026,0.000511205,-0.001022360,0.455203295,0.037863303,9.784005165
1784149124.856918,0.007087013,-0.045116778,-0.046007976,0.000489663,0.000503500,-0.001332708,0.453148067,0.053157702,9.779168129
1784149124.858923,0.007084472,-0.045114432,-0.046004701,0.000050256,0.000584040,-0.000962575,0.444796890,0.067204617,9.772077560
1784149124.860927,0.007083840,-0.045110237,-0.046001859,-0.000159836,0.000872971,-0.000276288,0.434681535,0.047979731,9.784497261
1784149124.862929,0.007084629,-0.045110699,-0.046001606,-0.000026215,0.000793704,0.000005884,0.449894845,0.080580205,9.772167206
1784149124.864927,0.007084622,-0.045115471,-0.046002779,0.000101308,0.000125322,-0.000062688,0.464538604,0.068968870,9.803489685
1784149124.866935,0.007080557,-0.045118440,-0.045995329,-0.000186869,-0.000378578,0.000392109,0.467955709,0.090561129,9.785251617
1784149124.868933,0.007079401,-0.045118272,-0.045987997,-0.000448726,-0.000406661,0.001302888,0.444145411,0.051020168,9.780939102
1784149124.870933,0.007081305,-0.045118634,-0.045983467,-0.000239856,-0.000304105,0.001751079,0.425709665,0.084080443,9.764546394
1784149124.872933,0.007081190,-0.045118615,-0.045983035,-0.000068487,-0.000226724,0.001608280,0.405248374,0.097510651,9.739953995
1784149124.874935,0.007084135,-0.045117751,-0.045972053,0.000146682,-0.000083987,0.001938121,0.419893771,0.050348852,9.793016434
1784149124.876939,0.007084469,-0.045116216,-0.045964364,0.000429398,0.000069646,0.002666282,0.394134521,0.072635584,9.792687416
1784149124.878944,0.007085584,-0.045114301,-0.045970768,0.000457968,0.000244671,0.002023441,0.423938990,0.049541086,9.773288727
1784149124.880946,0.007084254,-0.045113429,-0.045976501,0.000281883,0.000361833,0.000652178,0.463452429,0.051684767,9.778721809
1784149124.882974,0.007079050,-0.045115460,-0.045976259,-0.000211252,0.000250249,0.000120898,0.452772379,0.058602575,9.770236969
1784149124.884978,0.007077012,-0.045112327,-0.045972154,-0.000588428,0.000327052,0.000402634,0.451289296,0.049028225,9.796176910
1784149124.886981,0.007081341,-0.045110576,-0.045974091,-0.000191488,0.000592856,0.000429595,0.456414044,0.063020304,9.772509575
1784149124.888972,0.007080467,-0.045107353,-0.045977660,0.000153176,0.000789104,-0.000074164,0.449352264,0.072144642,9.762249947
1784149124.890961,0.007080352,-0.045110498,-0.045981750,0.000020998,0.000576991,-0.000570097,0.437593549,0.066295743,9.786860466
1784149124.892962,0.007086817,-0.045114055,-0.045975704,0.000442421,-0.000054966,-0.000301403,0.435534596,0.081154898,9.780227661
1784149124.894966,0.007090116,-0.045114227,-0.045966834,0.001020868,-0.000307589,0.000762413,0.428914279,0.092243023,9.808089256
1784149124.896971,0.007093468,-0.045112722,-0.045968104,0.001175947,-0.000143778,0.001051508,0.436392874,0.078808211,9.793662071
1784149124.898967,0.007093522,-0.045112908,-0.045975115,0.001020098,-0.000033013,0.000196579,0.456064254,0.071912140,9.782878876
1784149124.900964,0.007090233,-0.045110535,-0.045972932,0.000508990,0.000122411,-0.000173718,0.457487881,0.078585699,9.786957741
1784149124.902970,0.007090799,-0.045108259,-0.045968443,0.000173870,0.000500463,0.000334287,0.457510620,0.079170376,9.767683983
1784149124.904970,0.007099621,-0.045113459,-0.045964684,0.000755755,0.000262543,0.000775023,0.458796978,0.077465847,9.816093445
1784149124.906966,0.007096959,-0.045115687,-0.045964908,0.000941655,-0.000248316,0.000786955,0.441702038,0.073687650,9.811120033
1784149124.908976,0.007095847,-0.045111291,-0.045957554,0.000414513,0.000032983,0.001069013,0.433602989,0.069156080,9.769836426
1784149124.910972,0.007093930,-0.045110047,-0.045950796,0.000139792,0.000413842,0.001744990,0.435069293,0.079003528,9.768556595
1784149124.912981,0.007090050,-0.045109235,-0.045952938,-0.000297164,0.000391735,0.001603573,0.453532517,0.048186228,9.784516335
1784149124.914976,0.007091134,-0.045107931,-0.045953233,-0.000433517,0.000376657,0.001013448,0.434438318,0.065818071,9.796716690
1784149124.916980,0.007087617,-0.045103274,-0.045954518,-0.000493506,0.000670903,0.000639468,0.449848622,0.075757556,9.757343292
1784149124.918982,0.007085299,-0.045104828,-0.045956846,-0.000774079,0.000690596,0.000239203,0.451573700,0.071130946,9.774798393
1784149124.920986,0.007086199,-0.045103043,-0.045953151,-0.000655776,0.000519479,0.000272026,0.441380054,0.082798876,9.790555000
1784149124.922992,0.007086977,-0.045100629,-0.045950819,-0.000404694,0.000661149,0.000604564,0.456116974,0.075975582,9.778421402
1784149124.924983,0.007089836,-0.045104843,-0.045956120,-0.000116314,0.000353000,0.000230929,0.442035913,0.062238399,9.782353401
1784149124.926994,0.007091917,-0.045103606,-0.045954715,0.000292033,0.000054824,-0.000113564,0.432499230,0.052138690,9.770623207
1784149124.928988,0.007089371,-0.045104083,-0.045957576,0.000230218,0.000092362,-0.000183156,0.434018910,0.068486147,9.800320625
1784149124.930986,0.007080645,-0.045104329,-0.045953803,-0.000593871,0.000018895,-0.000037083,0.435471416,0.077008776,9.796340942
1784149124.932997,0.007072890,-0.045098301,-0.045953400,-0.001515136,0.000435376,0.000306112,0.421369046,0.096236058,9.764170647
1784149124.934989,0.007073488,-0.045094796,-0.045959819,-0.001585184,0.000988713,-0.000163599,0.425933927,0.068929501,9.815558434
1784149124.936991,0.007078654,-0.045094181,-0.045955386,-0.000755375,0.000966895,-0.000272073,0.464885563,0.098454811,9.814888000
1784149124.938994,0.007075631,-0.045099288,-0.045949239,-0.000358062,0.000371948,0.000511837,0.434656352,0.120529123,9.789445877
1784149124.940994,0.007075763,-0.045098290,-0.045946389,-0.000429408,-0.000003023,0.000992400,0.410198599,0.103235573,9.808141708
1784149124.943003,0.007083890,-0.045090456,-0.045947995,0.000125549,0.000548665,0.000788439,0.437731028,0.077107221,9.778410912
1784149124.944999,0.007086312,-0.045084935,-0.045947395,0.000678169,0.001255947,0.000479326,0.444739193,0.061886299,9.763973236
1784149124.947000,0.007079051,-0.045086361,-0.045945145,0.000188078,0.001220962,0.000556538,0.453051984,0.044293873,9.765663147
1784149124.949006,0.007071521,-0.045085974,-0.045949567,-0.000859123,0.000844816,0.000302854,0.452529937,0.076447278,9.781558990
1784149124.950999,0.007072364,-0.045085646,-0.045956261,-0.001113282,0.000659182,-0.000512464,0.460626513,0.078932986,9.795481682
1784149124.953005,0.007074025,-0.045091033,-0.045958683,-0.000687507,0.000192712,-0.000998979,0.452089280,0.076516628,9.772592545
1784149124.955010,0.007075967,-0.045087602,-0.045959715,-0.000285510,0.000065569,-0.000972981,0.444400817,0.072083868,9.779728889
1784149124.957007,0.007080066,-0.045084655,-0.045959327,0.000193158,0.000473814,-0.000770437,0.446487278,0.059467699,9.785927773
1784149124.959017,0.007082758,-0.045087062,-0.045960620,0.000591855,0.000374806,-0.000643068,0.428605646,0.065895997,9.796264648
1784149124.961028,0.007083577,-0.045091584,-0.045962282,0.000660196,-0.000198129,-0.000679786,0.446632296,0.071149677,9.781071663
1784149124.963025,0.007082487,-0.045096267,-0.045962185,0.000419088,-0.000739028,-0.000599375,0.439623117,0.048367631,9.784056664
1784149124.965022,0.007083239,-0.045093846,-0.045966476,0.000230866,-0.000663845,-0.000718720,0.443936735,0.035188902,9.802358627
1784149124.967016,0.007088959,-0.045089681,-0.045980062,0.000626393,-0.000050978,-0.001758451,0.445208758,0.063666031,9.764882088
1784149124.969023,0.007091936,-0.045093678,-0.045982152,0.001072218,-0.000039076,-0.002373641,0.452878386,0.069166049,9.796755791
1784149124.971019,0.007095430,-0.045094863,-0.045977548,0.001227583,-0.000378201,-0.001578432,0.416127205,0.071998119,9.779702187
1784149124.973051,0.007096962,-0.045090429,-0.045973569,0.001236943,-0.000104700,-0.000581204,0.420547485,0.066145740,9.775633812
1784149124.975041,0.007097821,-0.045087870,-0.045968786,0.001065655,0.000348342,0.000164449,0.446184933,0.072381653,9.797667503
1784149124.977079,0.007097562,-0.045088500,-0.045973167,0.000794270,0.000377404,0.000146133,0.424618006,0.069995284,9.794044495
1784149124.979043,0.007096044,-0.045092367,-0.045981590,0.000394951,-0.000043807,-0.000754533,0.461914390,0.073187642,9.781995773
1784149124.981066,0.007099609,-0.045087628,-0.045982808,0.000396937,0.000022952,-0.001209542,0.455265135,0.082020067,9.812083244
1784149124.983066,0.007104306,-0.045087751,-0.045981359,0.000798075,0.000387276,-0.000888753,0.438089609,0.071932249,9.812450409
1784149124.985090,0.007110353,-0.045092534,-0.045986503,0.001246648,0.000004686,-0.000929200,0.451445788,0.061205838,9.784598351
1784149124.987046,0.007108793,-0.045092087,-0.045995161,0.001195173,-0.000283852,-0.001627238,0.429192454,0.075491391,9.768977165
1784149124.989039,0.007092843,-0.045084976,-0.046000469,-0.000334462,0.000313672,-0.002079467,0.429030657,0.064082503,9.798493385
1784149124.991046,0.007093315,-0.045085274,-0.045999464,-0.001306299,0.000689444,-0.001759150,0.449154556,0.058425989,9.801615715
1784149124.993050,0.007103514,-0.045095082,-0.046000689,-0.000218318,-0.000119346,-0.001330411,0.442272931,0.045972504,9.801081657
1784149124.995044,0.007106690,-0.045103405,-0.045996685,0.000766811,-0.001251811,-0.000822230,0.446204245,0.073344350,9.788257599
1784149124.997042,0.007106080,-0.045104977,-0.045994401,0.000748022,-0.001566542,-0.000179576,0.452767253,0.056941096,9.751844406
1784149124.999045,0.007107374,-0.045101847,-0.045993075,0.000598516,-0.001019283,0.000112184,0.441262662,0.072956450,9.788699150
1784149125.001049,0.007111539,-0.045099284,-0.045990545,0.000817955,-0.000354163,0.000326734,0.443195343,0.083748117,9.779803276
1784149125.003052,0.007114787,-0.045099515,-0.045983322,0.001082411,-0.000143180,0.000878813,0.458250076,0.067375168,9.786886215
1784149125.005051,0.007113273,-0.045097183,-0.045979206,0.000894899,-0.000004157,0.001406674,0.421820879,0.060285926,9.778288841
1784149125.007050,0.007111029,-0.045090418,-0.045977205,0.000456454,0.000534459,0.001450188,0.441189706,0.029927356,9.791112900
1784149125.009063,0.007112515,-0.045091793,-0.045975361,0.000333585,0.000673724,0.001318323,0.437927097,0.056870088,9.788593292
1784149125.011051,0.007113310,-0.045091555,-0.045975398,0.000403239,0.000414363,0.001076089,0.430669993,0.048647959,9.760736465
1784149125.013052,0.007114469,-0.045094892,-0.045973796,0.000488428,0.000063167,0.000880723,0.457862347,0.071104504,9.767184258
1784149125.015052,0.007114625,-0.045093797,-0.045977056,0.000497355,-0.000136777,0.000522006,0.460923314,0.067191221,9.807960510
1784149125.017053,0.007111592,-0.045091130,-0.045977779,0.000165767,0.000190077,0.000118366,0.456802696,0.057677172,9.767095566
1784149125.019061,0.007111636,-0.045087781,-0.045972507,-0.000057347,0.000586437,0.000402887,0.473426372,0.060472991,9.785062790
1784149125.021058,0.007114713,-0.045083903,-0.045969233,0.000195918,0.000923147,0.000863810,0.456871957,0.063897751,9.774309158
1784149125.023062,0.007112992,-0.045082249,-0.045965888,0.000289741,0.001116190,0.001072791,0.436647654,0.062682219,9.792664528
1784149125.025064,0.007114100,-0.045081273,-0.045961116,0.000229131,0.001059556,0.001332038,0.414209485,0.062540799,9.789950371
1784149125.027062,0.007113734,-0.045083132,-0.045957763,0.000253200,0.000639580,0.001518895,0.425271541,0.050632417,9.806473732
1784149125.029063,0.007111744,-0.045080252,-0.045954723,0.000055407,0.000462612,0.001547084,0.459179670,0.070454881,9.793183327
1784149125.031062,0.007111507,-0.045075763,-0.045954522,-0.000100783,0.000839129,0.001353794,0.445330471,0.075163588,9.786027908
1784149125.033066,0.007108234,-0.045078684,-0.045950774,-0.000308797,0.000772117,0.001265089,0.449198604,0.062016051,9.800741196
1784149125.035067,0.007103681,-0.045082085,-0.045951344,-0.000755363,0.000186726,0.001160906,0.442797095,0.088204853,9.783867836
1784149125.037067,0.007103723,-0.045079991,-0.045946401,-0.000897138,0.000027841,0.001159000,0.447052926,0.106891163,9.794750214
1784149125.039072,0.007098294,-0.045077588,-0.045944054,-0.001050846,0.000307403,0.001358303,0.399601489,0.078892097,9.785109520
1784149125.041074,0.007089371,-0.045076218,-0.045941342,-0.001723366,0.000481883,0.001376078,0.405143619,0.056257140,9.807836533
1784149125.043076,0.007090060,-0.045075998,-0.045938972,-0.001728614,0.000279890,0.001369911,0.436268002,0.069311991,9.806157112
1784149125.045079,0.007095444,-0.045074124,-0.045945451,-0.000790315,0.000162675,0.000699166,0.451331466,0.050982233,9.773324013
1784149125.047084,0.007101311,-0.045071211,-0.045945749,0.000204365,0.000381134,0.000014152,0.432199210,0.066691875,9.803893089
1784149125.049091,0.007098208,-0.045071777,-0.045942511,0.000383195,0.000379966,0.000199335,0.424083024,0.064456977,9.817769051
1784149125.051084,0.007095159,-0.045070730,-0.045940064,-0.000120606,0.000312628,0.000549482,0.446749926,0.080588654,9.776648521
1784149125.053086,0.007093173,-0.045064334,-0.045946360,-0.000481378,0.000699470,0.000157135,0.440806895,0.070474751,9.760437965
1784149125.055088,0.007093013,-0.045059554,-0.045947745,-0.000560023,0.001232944,-0.000397769,0.423805267,0.075538136,9.772109985
1784149125.057091,0.007096762,-0.045053106,-0.045949258,-0.000238387,0.001615607,-0.000494561,0.448581338,0.084501907,9.790125847
1784149125.059089,0.007098186,-0.045053098,-0.045951396,0.000101019,0.001569587,-0.000620871,0.450808555,0.081102513,9.760066986
1784149125.061087,0.007106925,-0.045052957,-0.045950264,0.000759612,0.001152647,-0.000551902,0.445253223,0.067259260,9.763559341
1784149125.063095,0.007114248,-0.045050066,-0.045950767,0.001657533,0.001077837,-0.000409461,0.436924070,0.047537997,9.779565811
1784149125.065100,0.007118248,-0.045049507,-0.045956511,0.001969431,0.001047796,-0.000757396,0.431580454,0.051981673,9.794384003
1784149125.067096,0.007120873,-0.045044262,-0.045955352,0.001925932,0.001100052,-0.000884518,0.446143597,0.067597166,9.777461052
1784149125.069100,0.007120177,-0.045043860,-0.045946419,0.001620621,0.001134873,0.000033323,0.432469785,0.090306632,9.821979523
1784149125.071101,0.007115965,-0.045048311,-0.045948841,0.000867798,0.000555314,0.000481127,0.437540203,0.061822496,9.785934448
1784149125.073174,0.007111948,-0.045048848,-0.045952804,0.000103531,0.000050756,-0.000059942,0.426384211,0.066909693,9.783714294
1784149125.075123,0.007112968,-0.045048550,-0.045957629,-0.000105779,0.000004536,-0.000632281,0.468129843,0.068935603,9.801700592
1784149125.077142,0.007105485,-0.045050062,-0.045957506,-0.000494180,-0.000046361,-0.000760865,0.455713749,0.079177484,9.769923210
1784149125.079395,0.007094777,-0.045049373,-0.045962341,-0.001572508,-0.000057085,-0.000819551,0.466416389,0.072437726,9.753302574
1784149125.081162,0.007093977,-0.045045070,-0.045967221,-0.001955547,0.000292961,-0.001220706,0.448361248,0.065338157,9.776103020
1784149125.083149,0.007095437,-0.045042921,-0.045967732,-0.001366218,0.000645047,-0.001258297,0.455130041,0.068390816,9.775681496
1784149125.085164,0.007096282,-0.045042668,-0.045968831,-0.000813874,0.000628675,-0.001034281,0.437378317,0.046360072,9.755348206
1784149125.087138,0.007090352,-0.045044437,-0.045971293,-0.000902108,0.000370713,-0.000981549,0.450398535,0.049497228,9.794834137
1784149125.089141,0.007087462,-0.045043871,-0.045972299,-0.001219345,0.000203406,-0.000925369,0.447910070,0.066134900,9.790903091
1784149125.091139,0.007087462,-0.045043871,-0.045972299,-0.000710952,-0.000053439,-0.000721554,0.445980072,0.054148793,9.778719902
1784149125.093141,0.007087773,-0.045052201,-0.045970600,-0.000013593,-0.000176755,-0.000897096,0.440046310,0.083453678,9.784881592
1784149125.095134,0.007087773,-0.045052201,-0.045970600,0.000120425,0.000171079,-0.001402183,0.475450426,0.079280257,9.782943726
1784149125.097148,0.007087716,-0.045053538,-0.045970585,0.000252001,0.000371791,-0.001066353,0.464255184,0.082842335,9.806269646
1784149125.099142,0.007087716,-0.045053538,-0.045970585,0.000796323,0.000329195,-0.000172178,0.429108441,0.069559790,9.784182549
1784149125.101165,0.007087716,-0.045053538,-0.045970585,0.001047140,0.000121958,0.000116970,0.429531395,0.028923735,9.764195442
1784149125.103149,0.007086081,-0.045053180,-0.045970585,0.000362612,0.000051782,0.000416942,0.456740439,0.017164141,9.793736458
1784149125.105140,0.007086081,-0.045053180,-0.045970585,-0.000350391,0.000237182,0.000600342,0.444787145,0.030348402,9.788429260
1784149125.107148,0.007084857,-0.045052912,-0.045970593,-0.000596207,0.000427939,-0.000023483,0.446052223,0.059581559,9.770684242
1784149125.109148,0.007084857,-0.045052912,-0.045970593,-0.000377928,0.000561624,-0.000314866,0.461015999,0.073596224,9.789170265
1784149125.111148,0.007084857,-0.045052912,-0.045970593,-0.000168880,0.000332716,-0.000240044,0.456883341,0.065203488,9.779698372
1784149125.113159,0.007084186,-0.045053933,-0.045970578,-0.000469829,-0.000007376,-0.000476052,0.446235269,0.114015989,9.802416801
1784149125.115153,0.007084186,-0.045053933,-0.045970578,-0.000904826,-0.000197256,-0.000900727,0.435932726,0.077508226,9.788274765
1784149125.117151,0.007084575,-0.045054153,-0.045970578,-0.001384908,-0.000370041,-0.001174446,0.428259432,0.074816443,9.802597046
1784149125.119203,0.007084575,-0.045054153,-0.045970578,-0.001658533,-0.000189531,-0.001570590,0.449413538,0.077491567,9.766319275
1784149125.121170,0.007084575,-0.045054153,-0.045970578,-0.001566538,0.000101595,-0.001984187,0.466197401,0.054903649,9.762155533
1784149125.123289,0.007083864,-0.045055185,-0.045970574,-0.001594231,0.000006166,-0.001872160,0.438623756,0.077464193,9.789622307
1784149125.125182,0.007083864,-0.045055185,-0.045970574,-0.001525372,-0.000225309,-0.001953776,0.453494519,0.081423782,9.773074150
1784149125.127198,0.007084736,-0.045055684,-0.045970570,-0.001278177,-0.000558275,-0.001977732,0.401263893,0.067692332,9.781901360
1784149125.129176,0.007084736,-0.045055684,-0.045970570,-0.001461551,-0.000836681,-0.001382199,0.414818019,0.039174907,9.798319817
1784149125.131167,0.007084736,-0.045055684,-0.045970570,-0.001599580,-0.001348313,-0.000480741,0.440687090,0.063450091,9.803432465
1784149125.133173,0.007083823,-0.045056112,-0.045970563,-0.000939524,-0.001568457,0.000376591,0.453069448,0.086074099,9.813004494
1784149125.135172,0.007083823,-0.045056112,-0.045970563,0.000239686,-0.000762301,0.000664659,0.452819616,0.063028127,9.777886391
1784149125.137169,0.007083715,-0.045056276,-0.045970563,0.001193784,0.000133369,0.000316776,0.444353163,0.067655131,9.772527695
1784149125.139183,0.007083715,-0.045056276,-0.045970563,0.000945916,0.000526365,0.000006248,0.447919607,0.064994507,9.762202263
1784149125.141175,0.007083715,-0.045056276,-0.045970563,-0.000197951,0.000477519,0.000354291,0.475531489,0.049219780,9.788579941
1784149125.143171,0.007082375,-0.045057524,-0.045970555,-0.000453146,0.000539601,0.001277217,0.459088713,0.063252531,9.798069954
1784149125.145217,0.007082375,-0.045057524,-0.045970555,-0.000090496,0.001032213,0.001411369,0.450699359,0.072540373,9.767186165
1784149125.147180,0.007082561,-0.045058239,-0.045970548,-0.000459841,0.001203457,0.000929387,0.447830349,0.059831642,9.795346260
1784149125.149184,0.007082561,-0.045058239,-0.045970548,-0.001276896,0.000882253,0.000881794,0.422929853,0.077344641,9.771673203
1784149125.151190,0.007082561,-0.045058239,-0.045970548,-0.001778725,0.000864903,0.000577701,0.433652490,0.073194094,9.768966675
1784149125.153182,0.007083055,-0.045058340,-0.045970548,-0.001545040,0.001027565,0.000069272,0.447052538,0.069298021,9.788681030
1784149125.155179,0.007083055,-0.045058340,-0.045970548,-0.001501012,0.001183312,-0.000283054,0.474167675,0.083850242,9.772660255
1784149125.157203,0.007083739,-0.045059998,-0.045970540,-0.001655405,0.000759248,-0.000615218,0.415950239,0.095628165,9.796442032
1784149125.159190,0.007083739,-0.045059998,-0.045970540,-0.001051682,-0.000135257,-0.000552440,0.434695810,0.086897694,9.793265343
1784149125.161215,0.007083739,-0.045059998,-0.045970540,-0.000625734,-0.000303423,-0.000070792,0.449834496,0.076456338,9.785143852
1784149125.163199,0.007083906,-0.045059502,-0.045970540,-0.000961698,-0.000022204,0.000154943,0.443185180,0.046888728,9.796602249
1784149125.165191,0.007083906,-0.045059502,-0.045970540,-0.001136901,-0.000035186,0.000498804,0.457498133,0.041481834,9.775062561
1784149125.167211,0.007082636,-0.045060620,-0.045970537,-0.000568260,-0.000757220,0.001251890,0.414968789,0.050091319,9.775076866
1784149125.169204,0.007082636,-0.045060620,-0.045970537,-0.000432499,-0.002016407,0.001507149,0.428031415,0.053968955,9.773322105
1784149125.171197,0.007082636,-0.045060620,-0.045970537,-0.001034035,-0.002511735,0.001622133,0.459478408,0.057512309,9.785479546
1784149125.173196,0.007081818,-0.045061164,-0.045970537,-0.001101759,-0.002031273,0.001819485,0.484951615,0.084236540,9.761913300
1784149125.175199,0.007081818,-0.045061164,-0.045970537,-0.000790982,-0.001863920,0.001764238,0.445986629,0.090979569,9.765954018
1784149125.177201,0.007083308,-0.045062151,-0.045970526,-0.000580712,-0.001561838,0.001724969,0.433654755,0.074833311,9.790497780
1784149125.179203,0.007083308,-0.045062151,-0.045970526,-0.000600873,-0.000725831,0.001356535,0.448430628,0.069938600,9.759097099
1784149125.181222,0.007083308,-0.045062151,-0.045970526,-0.000705478,-0.000149623,0.000726772,0.449302435,0.070130222,9.793620110
1784149125.183205,0.007083756,-0.045061998,-0.045970529,-0.000477214,-0.000003023,0.000248906,0.460465580,0.064693630,9.781939507
1784149125.185244,0.007083756,-0.045061998,-0.045970529,0.000031150,0.000026429,0.000171676,0.450707078,0.074627548,9.788719177
1784149125.187228,0.007084655,-0.045062531,-0.045970526,0.000526157,-0.000045780,0.000494179,0.453752190,0.064509965,9.756826401
1784149125.189219,0.007084655,-0.045062531,-0.045970526,0.000689172,-0.000040485,0.000440298,0.442769051,0.086362138,9.791028976
1784149125.191218,0.007084655,-0.045062531,-0.045970526,0.000628888,0.000127296,0.000401676,0.443839520,0.065932266,9.826764107
1784149125.193213,0.007084119,-0.045061648,-0.045970533,0.000401816,0.000052953,0.000462412,0.456618965,0.080443092,9.779347420
1784149125.195214,0.007084119,-0.045061648,-0.045970533,0.000276417,0.000113221,-0.000611853,0.462882638,0.077382676,9.757364273
1784149125.197226,0.007084204,-0.045062881,-0.045970522,0.000534771,0.000589209,-0.002023294,0.441560537,0.060007520,9.781891823
1784149125.199232,0.007084204,-0.045062881,-0.045970522,0.000703466,0.000967521,-0.002293193,0.422497362,0.079504356,9.783792496
1784149125.201230,0.007084204,-0.045062881,-0.045970522,0.000224755,0.000956858,-0.001716135,0.422359884,0.068692878,9.792240143
1784149125.203231,0.007084783,-0.045062508,-0.045970526,-0.000471692,0.000627083,-0.001009271,0.420681924,0.077338420,9.776601791
1784149125.205227,0.007084783,-0.045062508,-0.045970526,-0.000202305,0.000254246,-0.000782662,0.412312210,0.055675857,9.813666344
1784149125.207228,0.007084409,-0.045061208,-0.045970533,0.001153361,0.000011117,-0.001427911,0.445455551,0.049503237,9.802898407
1784149125.209230,0.007084409,-0.045061208,-0.045970533,0.001726751,-0.000069877,-0.002168867,0.432560444,0.020705713,9.780285835
1784149125.211228,0.007084409,-0.045061208,-0.045970533,0.001275781,-0.000016721,-0.001860966,0.437144965,0.067518182,9.804799080
1784149125.213235,0.007083598,-0.045060627,-0.045970540,0.001290215,0.000139429,-0.000841185,0.433807611,0.087792404,9.795063972
1784149125.215233,0.007083598,-0.045060627,-0.045970540,0.001699516,0.000286542,-0.000368243,0.412582159,0.076854043,9.796319008
1784149125.217242,0.007084088,-0.045059502,-0.045970548,0.001820083,0.000526270,-0.000781429,0.428848267,0.085237816,9.785179138
1784149125.219241,0.007084088,-0.045059502,-0.045970548,0.001441686,0.001048254,-0.001135392,0.459264249,0.076796286,9.783360481
1784149125.221240,0.007084088,-0.045059502,-0.045970548,0.000888531,0.001012876,-0.000637830,0.451455861,0.062095407,9.785500526
1784149125.223244,0.007083784,-0.045059558,-0.045970548,0.000539477,0.000933188,-0.000383888,0.424784333,0.082655855,9.777537346
1784149125.225239,0.007083784,-0.045059558,-0.045970548,0.000580293,0.001289368,-0.000755723,0.455366760,0.088901632,9.789263725
1784149125.227240,0.007084297,-0.045060560,-0.045970540,0.000824186,0.001276875,-0.001081931,0.454564035,0.059770841,9.791766167
1784149125.229245,0.007084297,-0.045060560,-0.045970540,0.000496484,0.001327885,-0.001428349,0.457055897,0.043565232,9.797940254
1784149125.231246,0.007084297,-0.045060560,-0.045970540,0.000094976,0.001384135,-0.001572552,0.446744770,0.044174045,9.793899536
1784149125.233253,0.007083504,-0.045060582,-0.045970540,0.000463921,0.000803795,-0.001318978,0.447456717,0.065699048,9.790003777
1784149125.235251,0.007083504,-0.045060582,-0.045970540,0.001144141,0.000015385,-0.000937065,0.425429106,0.062412962,9.787718773
1784149125.237249,0.007083126,-0.045059737,-0.045970548,0.001460594,-0.000500157,-0.001128149,0.426849782,0.105437532,9.783513069
1784149125.239261,0.007083126,-0.045059737,-0.045970548,0.001280069,-0.000474091,-0.001464337,0.421636492,0.080615275,9.755104065
1784149125.241293,0.007083126,-0.045059737,-0.045970548,0.001475154,-0.000245622,-0.001220162,0.434955001,0.070806675,9.787333488
1784149125.243275,0.007083952,-0.045059182,-0.045970548,0.001615752,-0.000118044,-0.000573155,0.434860408,0.063575700,9.796255112
1784149125.245270,0.007083952,-0.045059182,-0.045970548,0.000812628,-0.000106887,0.000149014,0.462048531,0.048003860,9.794836044
1784149125.247301,0.007082934,-0.045060188,-0.045970540,0.000584383,-0.000639815,0.000221364,0.457575887,0.049795959,9.802912712
1784149125.249274,0.007082934,-0.045060188,-0.045970540,0.000906795,-0.001049435,-0.000032153,0.453508109,0.045562055,9.775533676
1784149125.251272,0.007082934,-0.045060188,-0.045970540,0.000266501,-0.000313445,-0.000049999,0.442067415,0.064513184,9.777437210
1784149125.253268,0.007082516,-0.045061413,-0.045970533,-0.000320589,0.000816662,0.000156739,0.443150461,0.080961779,9.793684006
1784149125.255270,0.007082516,-0.045061413,-0.045970533,-0.000144866,0.000607030,0.000374757,0.423657894,0.065053776,9.797597885
1784149125.257266,0.007082185,-0.045059994,-0.045970540,0.000553736,-0.000324695,0.000349630,0.427952856,0.083238438,9.752885818
1784149125.259271,0.007082185,-0.045059994,-0.045970540,0.001301870,-0.000557817,0.000623016,0.465401709,0.102223523,9.788013458
1784149125.261277,0.007082185,-0.045059994,-0.045970540,0.001724483,-0.000365677,0.000715687,0.453114390,0.088860452,9.799124718
1784149125.263280,0.007083143,-0.045059998,-0.045970540,0.002036144,0.000046457,0.000423682,0.437021881,0.093194455,9.785686493
1784149125.265280,0.007083143,-0.045059998,-0.045970540,0.001740121,0.000442992,0.000102355,0.447866052,0.061734773,9.779666901
1784149125.267286,0.007082676,-0.045060273,-0.045970540,0.000837069,0.000633272,-0.000458303,0.449873328,0.077168226,9.747936249
1784149125.269281,0.007082676,-0.045060273,-0.045970540,0.000212675,0.000624657,-0.000398156,0.468394846,0.088858925,9.771791458
1784149125.271421,0.007082676,-0.045060273,-0.045970540,0.000407430,0.000520717,-0.000245541,0.431175143,0.056787815,9.812346458
1784149125.273347,0.007082566,-0.045060165,-0.045970540,0.000798369,0.000029437,-0.000316801,0.435746223,0.061851852,9.785035133
1784149125.275361,0.007082566,-0.045060165,-0.045970540,0.000694549,-0.001029665,0.000186370,0.447250515,0.085450046,9.785198212
1784149125.277315,0.007083175,-0.045060396,-0.045970540,0.000333222,-0.001456476,0.000608546,0.434986711,0.072678007,9.776138306
1784149125.279335,0.007083175,-0.045060396,-0.045970540,0.000115475,-0.001009050,0.000451048,0.417573571,0.043693159,9.788040161
1784149125.281308,0.007083175,-0.045060396,-0.045970540,0.000230832,-0.000451406,0.000229727,0.445690811,0.067571126,9.781943321
1784149125.283337,0.007083580,-0.045060739,-0.045970540,0.000351307,0.000077667,0.000520535,0.449366868,0.038722675,9.799695969
1784149125.285333,0.007083580,-0.045060739,-0.045970540,0.000381843,0.000281059,0.001164523,0.455143452,0.034959324,9.814472198
1784149125.287311,0.007082748,-0.045061387,-0.045970533,0.000763400,0.000192028,0.001524601,0.453910261,0.080347210,9.797725677
1784149125.289308,0.007082748,-0.045061387,-0.045970533,0.001172486,0.000539959,0.001753318,0.450692862,0.073299572,9.786468506
1784149125.291311,0.007082748,-0.045061387,-0.045970533,0.001004769,0.001229540,0.002066041,0.448375046,0.066662960,9.778801918
1784149125.293309,0.007082783,-0.045062017,-0.045970529,0.000628355,0.001521742,0.001786830,0.434572995,0.039017331,9.784889221
1784149125.295306,0.007082783,-0.045062017,-0.045970529,0.000800124,0.001206937,0.001725612,0.448199511,0.053119197,9.793509483
1784149125.297323,0.007082412,-0.045062341,-0.045970529,0.001482768,0.000754054,0.001933380,0.442058861,0.065256484,9.798961639
1784149125.299323,0.007082412,-0.045062341,-0.045970529,0.001400275,0.000182159,0.001468706,0.433675170,0.077425696,9.803963661
1784149125.301318,0.007082412,-0.045062341,-0.045970529,0.000307710,-0.000438322,0.000964954,0.437760681,0.078962669,9.769454956
1784149125.303319,0.007082999,-0.045062490,-0.045970529,-0.000772587,-0.000384731,0.000835014,0.429096043,0.068651140,9.785970688
1784149125.305328,0.007082999,-0.045062490,-0.045970529,-0.001323439,-0.000152902,0.001175047,0.460650414,0.080337301,9.786971092
1784149125.307355,0.007083823,-0.045063563,-0.045970522,-0.000912976,-0.000242434,0.001043519,0.448919833,0.110274166,9.756666183
1784149125.309325,0.007083823,-0.045063563,-0.045970522,0.000020815,-0.000274409,0.000280980,0.464987397,0.068153039,9.791381836
1784149125.311322,0.007083823,-0.045063563,-0.045970522,0.000388045,-0.000693851,0.000300431,0.428902358,0.052127458,9.778691292
1784149125.313327,0.007082816,-0.045063090,-0.045970526,0.000108485,-0.001303039,0.000889698,0.450375497,0.084879175,9.796854019
1784149125.315331,0.007082816,-0.045063090,-0.045970526,0.000128713,-0.001171495,0.001033705,0.458562613,0.057784174,9.811931610
1784149125.317321,0.007082319,-0.045064006,-0.045970514,0.000707980,-0.000721327,0.001069277,0.442663312,0.076611921,9.776170731
1784149125.319338,0.007082319,-0.045064006,-0.045970514,0.001225564,0.000143900,0.001369113,0.430771440,0.096359782,9.792874336
1784149125.321335,0.007082319,-0.045064006,-0.045970514,0.001173113,0.001122596,0.001299970,0.413350016,0.102467909,9.784379005
1784149125.323337,0.007084558,-0.045062605,-0.045970526,0.000513970,0.001231285,0.001082780,0.454185247,0.065596908,9.792251587
1784149125.325336,0.007084558,-0.045062605,-0.045970526,-0.000022934,0.000972190,0.000417135,0.435955942,0.042532898,9.792084694
1784149125.327336,0.007083408,-0.045062080,-0.045970529,0.000308633,0.000704427,-0.000193436,0.427359223,0.072778925,9.775683403
1784149125.329345,0.007083408,-0.045062080,-0.045970529,0.001232355,0.000262154,0.000318222,0.443539917,0.074814938,9.775263786
1784149125.331341,0.007083408,-0.045062080,-0.045970529,0.001558911,-0.000343626,0.000580519,0.444620460,0.089217693,9.764148712
1784149125.333340,0.007084718,-0.045062426,-0.045970526,0.000801776,-0.001073436,-0.000332750,0.421038777,0.070934027,9.794494629
1784149125.335345,0.007084718,-0.045062426,-0.045970526,-0.000646976,-0.000965560,-0.000977867,0.431436956,0.075875632,9.773913383
1784149125.337343,0.007084955,-0.045062196,-0.045970529,-0.001334296,-0.000104291,-0.000576396,0.427037776,0.081489883,9.748391151
1784149125.339344,0.007084955,-0.045062196,-0.045970529,-0.000177879,0.000016965,0.000094973,0.451824576,0.090942986,9.760580063
1784149125.341366,0.007084955,-0.045062196,-0.045970529,0.000893461,-0.000490369,0.000454740,0.462236851,0.063269511,9.790001869
1784149125.343344,0.007085185,-0.045063335,-0.045970522,0.000264211,-0.000843539,0.000516108,0.451343358,0.053507838,9.796205521
1784149125.345350,0.007085185,-0.045063335,-0.045970522,-0.000355563,-0.000955640,0.000651626,0.453232795,0.060715813,9.787287712
1784149125.347352,0.007085070,-0.045063637,-0.045970522,0.000412658,-0.000293936,0.000666170,0.417839676,0.067272931,9.811056137
1784149125.349354,0.007085070,-0.045063637,-0.045970522,0.001392500,0.000544779,0.000480850,0.420719922,0.046127636,9.818097115
1784149125.351353,0.007085070,-0.045063637,-0.045970522,0.001412078,0.000462287,0.000178413,0.449954838,0.049947757,9.795285225
1784149125.353359,0.007084094,-0.045063250,-0.045970522,0.001024003,-0.000025229,-0.000081033,0.442480981,0.062204029,9.786390305
1784149125.355356,0.007084094,-0.045063250,-0.045970522,0.000252740,-0.000393663,-0.000180628,0.415900946,0.091996774,9.803144455
1784149125.357360,0.007084776,-0.045062203,-0.045970526,-0.000576902,-0.000457975,-0.000775973,0.442226291,0.041956753,9.798812866
1784149125.359365,0.007084776,-0.045062203,-0.045970526,-0.000873809,-0.000507809,-0.001263359,0.445243120,0.067989856,9.786878586
1784149125.361359,0.007084776,-0.045062203,-0.045970526,-0.001415707,-0.000436037,-0.001058724,0.439188957,0.050514620,9.797968864
1784149125.363367,0.007084144,-0.045062091,-0.045970526,-0.001915115,-0.000075310,-0.001124719,0.442737192,0.045684140,9.777765274
1784149125.365370,0.007084144,-0.045062091,-0.045970526,-0.002188098,0.000187604,-0.001353168,0.445154548,0.060806580,9.789072990
1784149125.367361,0.007083657,-0.045062203,-0.045970526,-0.001955095,0.000159262,-0.001646493,0.435873777,0.070963703,9.763574600
1784149125.369368,0.007083657,-0.045062203,-0.045970526,-0.001118066,-0.000012795,-0.001823857,0.434957474,0.070015669,9.772533417
1784149125.371367,0.007083657,-0.045062203,-0.045970526,-0.000742967,0.000057846,-0.001212221,0.452927649,0.071580730,9.772113800
1784149125.373371,0.007083196,-0.045062754,-0.045970526,-0.001067348,0.000095649,-0.000424692,0.455277771,0.079688415,9.761855125
1784149125.375370,0.007083196,-0.045062754,-0.045970526,-0.001158867,-0.000000493,-0.000483258,0.432286590,0.073055543,9.790932655
1784149125.377370,0.007083371,-0.045062304,-0.045970526,-0.000627574,-0.000073548,-0.001084595,0.457363129,0.067469336,9.775229454
1784149125.379381,0.007083371,-0.045062304,-0.045970526,-0.000261581,-0.000326635,-0.001180826,0.445590705,0.061512325,9.815081596
1784149125.381378,0.007083371,-0.045062304,-0.045970526,-0.000194700,-0.000511066,-0.000890210,0.441736847,0.077204555,9.820558548
1784149125.383379,0.007083723,-0.045062445,-0.045970526,-0.000339479,-0.000139579,-0.000639885,0.432762355,0.075289592,9.790946960
1784149125.385397,0.007083723,-0.045062445,-0.045970526,-0.000496892,0.000382487,-0.000275690,0.423840225,0.079461657,9.787379265
1784149125.387388,0.007084084,-0.045062214,-0.045970522,-0.000140331,0.000795716,-0.000334378,0.479938656,0.079232298,9.781602859
1784149125.389393,0.007084084,-0.045062214,-0.045970522,0.000499759,0.001076863,-0.000737674,0.463313192,0.078043908,9.789649963
1784149125.391387,0.007084084,-0.045062214,-0.045970522,0.000634347,0.000779171,-0.000691814,0.442384094,0.090923816,9.780296326
1784149125.393393,0.007085373,-0.045062982,-0.045970518,-0.000210916,0.000301825,-0.000553044,0.462149680,0.092065595,9.773150444
1784149125.395389,0.007085373,-0.045062982,-0.045970518,-0.000933836,0.000046120,-0.000596024,0.450648546,0.070112981,9.793622017
1784149125.397394,0.007084699,-0.045062993,-0.045970518,-0.000807975,0.000067025,-0.000336314,0.450649709,0.032532547,9.785758972
1784149125.399398,0.007084699,-0.045062993,-0.045970518,-0.000264783,0.000146173,0.000377458,0.470304519,0.062689446,9.794040680
1784149125.401398,0.007084699,-0.045062993,-0.045970518,0.000360478,-0.000285175,0.000985333,0.458003759,0.083567925,9.778470993
1784149125.403408,0.007085082,-0.045063734,-0.045970511,0.000398117,-0.000950128,0.000649317,0.449494600,0.085831121,9.790583611
1784149125.405399,0.007085082,-0.045063734,-0.045970511,0.000102104,-0.001320953,0.000061668,0.456718653,0.092172369,9.830980301
1784149125.407401,0.007085297,-0.045064494,-0.045970503,0.000030986,-0.001505425,0.000085574,0.437166125,0.070116930,9.817370415
1784149125.409403,0.007085297,-0.045064494,-0.045970503,-0.000020477,-0.001603927,0.000121242,0.429533452,0.068556361,9.798521996
1784149125.411407,0.007085297,-0.045064494,-0.045970503,-0.000106662,-0.001065954,0.000601840,0.432174742,0.100440964,9.783486366
1784149125.413405,0.007086303,-0.045063857,-0.045970503,0.000066122,-0.000482690,0.001621308,0.458791226,0.076204643,9.804429054
1784149125.415405,0.007086303,-0.045063857,-0.045970503,0.000588054,-0.000381396,0.001604630,0.457483768,0.041773997,9.797033310
1784149125.417407,0.007084952,-0.045064654,-0.045970500,0.000953082,-0.000247576,0.000636045,0.457448512,0.076653935,9.806672096
1784149125.419446,0.007084952,-0.045064654,-0.045970500,0.001109788,-0.000220799,-0.000088178,0.454404861,0.045950819,9.782262802
1784149125.421415,0.007084952,-0.045064654,-0.045970500,0.000898211,-0.000058546,0.000160738,0.457811713,0.069083735,9.799449921
1784149125.423416,0.007084532,-0.045065451,-0.045970492,0.000365690,0.000259511,0.000703620,0.437481612,0.058928050,9.815057755
1784149125.425425,0.007084532,-0.045065451,-0.045970492,0.000305632,0.000616438,0.000649026,0.433361650,0.051040497,9.797517776
1784149125.427431,0.007083659,-0.045065392,-0.045970492,0.000514060,0.000713846,0.000265766,0.452138215,0.045391705,9.801982880
1784149125.429446,0.007083659,-0.045065392,-0.045970492,0.000626794,0.000532687,0.000075357,0.425402313,0.058959641,9.769315720
1784149125.431435,0.007083659,-0.045065392,-0.045970492,0.000673190,0.000542215,0.000406725,0.443166524,0.043498993,9.769233704
1784149125.433434,0.007082031,-0.045065809,-0.045970492,0.000489970,0.000603834,0.000918860,0.452652425,0.050361212,9.795290947
1784149125.435432,0.007082031,-0.045065809,-0.045970492,0.000231933,0.000865170,0.001437368,0.453821778,0.074380636,9.817862511
1784149125.437430,0.007082412,-0.045066629,-0.045970481,0.000099407,0.001163059,0.001797730,0.448210001,0.055228636,9.811905861
1784149125.439449,0.007082412,-0.045066629,-0.045970481,0.000343296,0.001053518,0.001878454,0.423971653,0.090225451,9.785655975
1784149125.441431,0.007082412,-0.045066629,-0.045970481,0.000591141,0.000704966,0.001610942,0.417856872,0.104592986,9.792467117
1784149125.443434,0.007084321,-0.045065504,-0.045970492,0.000243757,0.000062421,0.001142281,0.419286937,0.073727459,9.782855034
1784149125.445434,0.007084321,-0.045065504,-0.045970492,-0.000300637,-0.000530290,0.001088538,0.441132396,0.098575480,9.777654648
1784149125.447437,0.007085876,-0.045065314,-0.045970488,-0.000476979,-0.000606015,0.001304446,0.450100273,0.099222854,9.796498299
1784149125.449438,0.007085876,-0.045065314,-0.045970488,-0.000129420,-0.000248567,0.000851027,0.472587019,0.066616036,9.804827690
1784149125.451441,0.007085876,-0.045065314,-0.045970488,-0.000088671,0.000375653,0.000269679,0.497795761,0.072610050,9.798613548
1784149125.453449,0.007085615,-0.045068160,-0.045970470,-0.000784696,0.000674230,0.000169083,0.461794913,0.064949460,9.806600571
1784149125.455442,0.007085615,-0.045068160,-0.045970470,-0.001008561,0.000365603,0.000273837,0.439392596,0.065901101,9.776099205
1784149125.457439,0.007085166,-0.045067884,-0.045970470,0.000022632,0.000200555,0.000244069,0.431662828,0.057900563,9.780971527
1784149125.459446,0.007085166,-0.045067884,-0.045970470,0.001136925,0.000237733,0.000332147,0.417629391,0.086992152,9.810735703
1784149125.461444,0.007085166,-0.045067884,-0.045970470,0.001458174,0.000036559,0.000322054,0.425230235,0.082627833,9.780674934
1784149125.463449,0.007085830,-0.045066871,-0.045970481,0.001367772,-0.000138952,-0.000263634,0.433840066,0.054916952,9.818614006
1784149125.465451,0.007085830,-0.045066871,-0.045970481,0.000922940,-0.000085941,-0.000166394,0.453366727,0.108278573,9.777280807
1784149125.467451,0.007088038,-0.045066860,-0.045970477,0.000416508,-0.000101900,0.000319043,0.422702074,0.098547287,9.814848900
1784149125.469459,0.007088038,-0.045066860,-0.045970477,0.000374503,-0.000060729,0.000294403,0.435403109,0.070391111,9.781953812
1784149125.471460,0.007088038,-0.045066860,-0.045970477,0.000980924,0.000393269,0.000460347,0.422445595,0.075853892,9.793182373
1784149125.473481,0.007088360,-0.045065530,-0.045970488,0.001731258,0.000793779,0.000401596,0.460881114,0.063210450,9.800761223
1784149125.475465,0.007088360,-0.045065530,-0.045970488,0.001623938,0.000734716,0.000012818,0.425474465,0.065202475,9.773390770
1784149125.477464,0.007087976,-0.045064628,-0.045970496,0.000891369,0.000462210,0.000142471,0.442774951,0.050440006,9.802006721
1784149125.479478,0.007087976,-0.045064628,-0.045970496,-0.000094047,0.000321676,0.000380941,0.435276806,0.061288804,9.802068710
1784149125.481465,0.007087976,-0.045064628,-0.045970496,-0.001116010,0.000510897,0.000501651,0.441498160,0.091430970,9.773573875
1784149125.483478,0.007088537,-0.045064323,-0.045970496,-0.001498653,0.000645505,0.000481832,0.438194185,0.078026019,9.774381638
1784149125.485500,0.007088537,-0.045064323,-0.045970496,-0.001585767,0.000127977,0.000716995,0.439659715,0.087057017,9.761888504
1784149125.487479,0.007089754,-0.045063980,-0.045970496,-0.001778882,-0.000518070,0.000958811,0.444981068,0.084058613,9.795947075
1784149125.489475,0.007089754,-0.045063980,-0.045970496,-0.001717133,-0.000876808,0.000143066,0.417272419,0.095016681,9.817062378
1784149125.491473,0.007089754,-0.045063980,-0.045970496,-0.001327170,-0.000998092,-0.000413763,0.460674703,0.081744753,9.778013229
1784149125.493479,0.007090598,-0.045064446,-0.045970492,-0.000856748,-0.000514253,-0.000527094,0.474254221,0.053427663,9.766189575
1784149125.495497,0.007090598,-0.045064446,-0.045970492,-0.000494541,-0.000088334,-0.000879992,0.427640200,0.058886383,9.775594711
1784149125.497483,0.007090200,-0.045063611,-0.045970503,-0.000634747,-0.000349895,-0.001104798,0.432628870,0.065319978,9.807023048
1784149125.499479,0.007090200,-0.045063611,-0.045970503,-0.000808618,-0.000485669,-0.001268376,0.434292525,0.090909645,9.796876907
1784149125.501482,0.007090200,-0.045063611,-0.045970503,-0.000679639,-0.000248338,-0.000897863,0.452531248,0.077673517,9.798155785
1784149125.503478,0.007090625,-0.045064535,-0.045970492,-0.000875512,-0.000108762,-0.000556386,0.432884961,0.047583383,9.780458450
1784149125.505486,0.007090625,-0.045064535,-0.045970492,-0.001215664,-0.000018857,-0.000975921,0.458313286,0.070711210,9.758664131
1784149125.507483,0.007090492,-0.045064993,-0.045970492,-0.001176966,-0.000173549,-0.001101800,0.465381265,0.062851265,9.780138969
1784149125.509492,0.007090492,-0.045064993,-0.045970492,-0.001208303,-0.000579120,-0.000292638,0.445171505,0.062966891,9.800294876
1784149125.511490,0.007090492,-0.045064993,-0.045970492,-0.001262981,-0.000425689,0.000533951,0.437514573,0.059998851,9.790405273
1784149125.513486,0.007089579,-0.045065243,-0.045970488,-0.000898135,0.000189460,0.000525800,0.448742449,0.097121127,9.779446602
1784149125.515487,0.007089579,-0.045065243,-0.045970488,-0.000054261,0.000472685,-0.000021694,0.456343204,0.055976931,9.754980087
1784149125.517494,0.007088963,-0.045065910,-0.045970481,0.000702029,0.000407054,-0.000349620,0.424999386,0.064594932,9.796699524
1784149125.519496,0.007088963,-0.045065910,-0.045970481,0.000604782,0.000775564,0.000170955,0.443215877,0.086747125,9.799101830
1784149125.521493,0.007088963,-0.045065910,-0.045970481,0.000336948,0.001313475,0.000984620,0.452111840,0.079531521,9.789649010
1784149125.523498,0.007089863,-0.045066230,-0.045970481,0.000410258,0.001240331,0.000618457,0.435198039,0.052561700,9.769284248
1784149125.525576,0.007089863,-0.045066230,-0.045970481,0.000875853,0.000648270,-0.000571279,0.452806205,0.061706513,9.774739265
1784149125.527525,0.007089680,-0.045067113,-0.045970470,0.001323595,0.000321018,-0.000985941,0.448855221,0.068931997,9.773884773
1784149125.529513,0.007089680,-0.045067113,-0.045970470,0.001004325,0.000733453,-0.000617501,0.433671445,0.075370304,9.777947426
1784149125.531525,0.007089680,-0.045067113,-0.045970470,0.000352731,0.000767773,-0.000242934,0.423623592,0.059919897,9.763492584
1784149125.533508,0.007088997,-0.045066852,-0.045970470,0.000072917,0.000447915,0.000154686,0.399958074,0.070864372,9.779231071
1784149125.535506,0.007088997,-0.045066852,-0.045970470,0.000216525,0.000536247,0.000266171,0.451963454,0.066607431,9.780150414
1784149125.537511,0.007089291,-0.045067754,-0.045970470,0.000611690,0.000688234,0.000221975,0.460485548,0.102035962,9.760210991
1784149125.539512,0.007089291,-0.045067754,-0.045970470,0.000772079,0.000640440,-0.000154292,0.468342125,0.047205504,9.769730568
1784149125.541509,0.007089291,-0.045067754,-0.045970470,0.000782027,0.000663318,-0.000843438,0.441556960,0.022388939,9.779407501
1784149125.543516,0.007086899,-0.045067739,-0.045970466,0.000933083,0.000676330,-0.001002282,0.458965421,0.051742259,9.778716087
1784149125.545510,0.007086899,-0.045067739,-0.045970466,0.001114965,0.000718820,-0.000756663,0.446497560,0.059143741,9.768440247
1784149125.547514,0.007086698,-0.045067769,-0.045970466,0.001157823,0.000910187,-0.000161790,0.478892207,0.069556810,9.820993423
1784149125.549519,0.007086698,-0.045067769,-0.045970466,0.000771750,0.000805317,-0.000253957,0.455634326,0.074497543,9.798137665
1784149125.551515,0.007086698,-0.045067769,-0.045970466,0.000017601,0.000429250,-0.000522091,0.424153149,0.067847081,9.781924248
1784149125.553521,0.007086668,-0.045066934,-0.045970470,-0.000537013,-0.000155511,0.000075116,0.448674649,0.089696586,9.752498627
1784149125.555520,0.007086668,-0.045066934,-0.045970470,-0.000417591,-0.000571804,0.000944304,0.459129691,0.065196998,9.776560783
1784149125.557521,0.007086295,-0.045067620,-0.045970466,0.000033465,-0.000697675,0.001362444,0.443338126,0.059037730,9.789059639
1784149125.559522,0.007086295,-0.045067620,-0.045970466,0.000345214,-0.000873540,0.000745916,0.433615208,0.072494939,9.804380417
1784149125.561526,0.007086295,-0.045067620,-0.045970466,0.000536162,-0.001036268,0.000134065,0.439803511,0.064786382,9.806129456
1784149125.563532,0.007085354,-0.045066923,-0.045970470,0.000619660,-0.001210204,0.000012874,0.416128963,0.072417460,9.783740044
1784149125.565527,0.007085354,-0.045066923,-0.045970470,0.000956727,-0.000924473,-0.000307349,0.446015745,0.057672068,9.787261009
1784149125.567534,0.007085276,-0.045067076,-0.045970470,0.001350721,-0.000323156,-0.000339632,0.426609129,0.086111613,9.792357445
1784149125.569531,0.007085276,-0.045067076,-0.045970470,0.001036722,-0.000082369,0.000573491,0.463242739,0.071813792,9.783782005
1784149125.571537,0.007085276,-0.045067076,-0.045970470,0.000735940,0.000182043,0.001527901,0.456752598,0.056066196,9.804746628
1784149125.573607,0.007084744,-0.045068067,-0.045970462,0.000863735,0.000537122,0.001538667,0.426967412,0.080123387,9.814735413
1784149125.575540,0.007084744,-0.045068067,-0.045970462,0.000813370,0.000765326,0.000896246,0.455713004,0.079171114,9.770819664
1784149125.577541,0.007085174,-0.045069057,-0.045970447,0.001101804,0.000962292,0.000717767,0.432651132,0.104301527,9.806823730
1784149125.579540,0.007085174,-0.045069057,-0.045970447,0.001796253,0.000775797,0.000713040,0.425039619,0.065722972,9.763978958
1784149125.581545,0.007085174,-0.045069057,-0.045970447,0.001666605,0.000324686,0.000399949,0.425370932,0.057901561,9.792173386
1784149125.583551,0.007084755,-0.045067877,-0.045970462,0.000979440,0.000327430,0.000010304,0.439372331,0.064525418,9.780572891
1784149125.585563,0.007084755,-0.045067877,-0.045970462,0.000647560,0.000920477,-0.000089469,0.445038259,0.049756989,9.767930031
1784149125.587590,0.007084480,-0.045068312,-0.045970459,0.000511727,0.001222379,0.000324690,0.444945186,0.041322045,9.757117271
1784149125.589558,0.007084480,-0.045068312,-0.045970459,0.000692559,0.000504997,0.000350845,0.458746731,0.032184593,9.757072449
1784149125.591554,0.007084480,-0.045068312,-0.045970459,0.000912417,-0.000321888,-0.000064900,0.457316220,0.063857026,9.779241562
1784149125.593555,0.007084616,-0.045069046,-0.045970451,0.000391847,-0.000270836,-0.000058326,0.429116219,0.070836902,9.793604851
1784149125.595557,0.007084616,-0.045069046,-0.045970451,-0.000002368,0.000176956,0.000526385,0.429336846,0.088383675,9.782958984
1784149125.597563,0.007085641,-0.045068443,-0.045970455,0.000415198,0.000459681,0.000935166,0.439500183,0.077287368,9.812934875
1784149125.599565,0.007085641,-0.045068443,-0.045970455,0.000685487,0.000811774,0.000944891,0.433931291,0.099305838,9.813968658
1784149125.601565,0.007085641,-0.045068443,-0.045970455,0.000429777,0.001054044,0.001131694,0.438961357,0.069287039,9.804812431
1784149125.603569,0.007085359,-0.045067608,-0.045970462,0.000006101,0.001069553,0.001519230,0.456734955,0.089869358,9.776718140
1784149125.605567,0.007085359,-0.045067608,-0.045970462,-0.000393110,0.000976378,0.001385628,0.450278044,0.076409265,9.790971756
1784149125.607568,0.007085151,-0.045068145,-0.045970462,-0.000053145,0.000616590,0.000818330,0.460550994,0.035478197,9.794754028
1784149125.609571,0.007085151,-0.045068145,-0.045970462,0.000646761,0.000315274,0.000134781,0.448341221,0.066395864,9.816460609
1784149125.611571,0.007085151,-0.045068145,-0.045970462,0.001050433,0.000295237,-0.000416389,0.434497893,0.034372382,9.808172226
1784149125.613569,0.007084159,-0.045067739,-0.045970462,0.001361478,0.000190129,-0.000764233,0.424033344,0.057985585,9.782758713
1784149125.615568,0.007084159,-0.045067739,-0.045970462,0.001170557,-0.000061267,-0.001127582,0.437130272,0.064160258,9.772948265
1784149125.617579,0.007083823,-0.045068596,-0.045970459,0.000325058,-0.000327671,-0.001249449,0.448149085,0.047858130,9.777336121
1784149125.619575,0.007083823,-0.045068596,-0.045970459,-0.000380822,-0.000467109,-0.001283912,0.466546416,0.048842289,9.794846535
1784149125.621574,0.007083823,-0.045068596,-0.045970459,-0.000081328,-0.000489569,-0.000964299,0.454319507,0.039603058,9.792981148
1784149125.623578,0.007082895,-0.045068584,-0.045970455,0.000589373,-0.000421921,-0.000549760,0.443227023,0.086429529,9.780717850
1784149125.625581,0.007082895,-0.045068584,-0.045970455,0.000517447,-0.000384263,-0.000302883,0.423327982,0.074508049,9.791831017
1784149125.627584,0.007083207,-0.045067690,-0.045970462,-0.000169566,-0.000547203,-0.000251467,0.411214978,0.075489238,9.801688194
1784149125.629591,0.007083207,-0.045067690,-0.045970462,-0.000362481,-0.000738670,-0.000629120,0.446721882,0.080772698,9.813859940
1784149125.631592,0.007083207,-0.045067690,-0.045970462,-0.000104211,-0.000757233,-0.000776566,0.446179330,0.071527064,9.791832924
1784149125.633586,0.007084235,-0.045067448,-0.045970462,-0.000309262,-0.000264862,-0.000502697,0.433690935,0.041176427,9.797903061
1784149125.635589,0.007084235,-0.045067448,-0.045970462,-0.000385586,0.000164923,-0.000284622,0.451831102,0.057457425,9.806990623
1784149125.637588,0.007084254,-0.045068692,-0.045970455,0.000569369,0.000339798,0.000091701,0.460190058,0.041850790,9.781344414
1784149125.639598,0.007084254,-0.045068692,-0.045970455,0.001391969,0.000449263,0.000131276,0.429866672,0.057507392,9.776483536
1784149125.641591,0.007084254,-0.045068692,-0.045970455,0.001125608,0.000596433,-0.000508811,0.447063059,0.071407460,9.807076454
1784149125.643597,0.007084092,-0.045068860,-0.045970455,0.000444571,0.000904342,-0.000559571,0.432854891,0.083314739,9.796379089
1784149125.645598,0.007084092,-0.045068860,-0.045970455,0.000124510,0.000799667,-0.000092652,0.421095133,0.075026080,9.786003113
1784149125.647604,0.007084863,-0.045067661,-0.045970462,0.000321681,0.000342117,0.000029431,0.428711832,0.074029252,9.786452293
1784149125.649603,0.007084863,-0.045067661,-0.045970462,0.000427449,-0.000152676,0.000099356,0.442444533,0.059484463,9.790855408
1784149125.651600,0.007084863,-0.045067661,-0.045970462,-0.000002286,-0.000509102,0.000384186,0.445656300,0.065677531,9.796278000
1784149125.653605,0.007085192,-0.045068026,-0.045970462,-0.000401907,-0.000390503,0.000701963,0.453989983,0.049060497,9.786764145
1784149125.655605,0.007085192,-0.045068026,-0.045970462,-0.000383076,-0.000160796,0.000501507,0.453024447,0.043671023,9.790316582
1784149125.657607,0.007083478,-0.045069318,-0.045970447,0.000098499,-0.000354170,-0.000349809,0.437884063,0.052072886,9.770180702
1784149125.659605,0.007083478,-0.045069318,-0.045970447,0.000884761,-0.000338297,-0.000878161,0.441558212,0.059178378,9.772471428
1784149125.661611,0.007083478,-0.045069318,-0.045970447,0.001242107,-0.000075521,-0.000756551,0.429405808,0.093791023,9.778510094
1784149125.663606,0.007085829,-0.045069091,-0.045970447,0.001213208,0.000014132,-0.001174437,0.435363531,0.066836044,9.777895927
1784149125.665607,0.007085829,-0.045069091,-0.045970447,0.001081796,-0.000116695,-0.001588441,0.455862522,0.055324860,9.784564972
1784149125.667608,0.007085278,-0.045070082,-0.045970440,0.000441382,-0.000246996,-0.001096820,0.428355694,0.043660104,9.773255348
1784149125.669624,0.007085278,-0.045070082,-0.045970440,-0.000385700,-0.000195367,-0.000521813,0.426009923,0.071960658,9.767158508
1784149125.671614,0.007085278,-0.045070082,-0.045970440,-0.000263336,-0.000038692,-0.000245527,0.449636310,0.058680978,9.764854431
1784149125.673612,0.007085155,-0.045069918,-0.045970440,0.000605447,0.000265251,-0.000078062,0.447640926,0.079716198,9.771712303
1784149125.675616,0.007085155,-0.045069918,-0.045970440,0.000875436,0.000469706,0.000512610,0.439534038,0.077554435,9.775277138
1784149125.677622,0.007085602,-0.045070034,-0.045970440,0.000131239,0.000504349,0.000688051,0.429960757,0.101108462,9.756588936
1784149125.679627,0.007085602,-0.045070034,-0.045970440,-0.000737191,0.000285876,0.000037754,0.425528735,0.070088722,9.779250145
1784149125.681629,0.007085602,-0.045070034,-0.045970440,-0.001464500,-0.000145678,0.000121958,0.410207629,0.066122182,9.797592163
1784149125.683630,0.007084343,-0.045068197,-0.045970459,-0.001922932,-0.000463154,0.000562484,0.435719371,0.097608633,9.797369957
1784149125.685639,0.007084343,-0.045068197,-0.045970459,-0.001691582,-0.000338108,0.000489146,0.454357326,0.080328740,9.799519539
1784149125.687669,0.007083908,-0.045069408,-0.045970447,-0.001391206,0.000255099,0.000510934,0.469647884,0.082433499,9.791028976
1784149125.689639,0.007083908,-0.045069408,-0.045970447,-0.000863347,0.000828237,0.000473928,0.455921590,0.098649286,9.803673744
1784149125.691632,0.007083908,-0.045069408,-0.045970447,-0.000081170,0.001223697,0.000411374,0.418710500,0.064214736,9.798483849
1784149125.693641,0.007084264,-0.045068279,-0.045970455,-0.000059505,0.001047947,0.000651178,0.423315614,0.072789334,9.781508446
1784149125.695639,0.007084264,-0.045068279,-0.045970455,-0.000316514,0.000708747,0.000517382,0.446760029,0.045104943,9.788973808
1784149125.697647,0.007083077,-0.045069009,-0.045970451,-0.000460907,0.000898253,-0.000407969,0.458380461,0.078536034,9.792338371
1784149125.699650,0.007083077,-0.045069009,-0.045970451,-0.000998548,0.001097181,-0.001443462,0.435469657,0.075779378,9.780193329
1784149125.701641,0.007083077,-0.045069009,-0.045970451,-0.001737253,0.001009304,-0.001784465,0.436290890,0.070303313,9.792712212
1784149125.703648,0.007083026,-0.045069151,-0.045970447,-0.002262364,0.000634732,-0.001312518,0.428773224,0.077756025,9.766301155
1784149125.705645,0.007083026,-0.045069151,-0.045970447,-0.002225221,0.000682206,-0.001110674,0.432689726,0.070663713,9.811541557
1784149125.707644,0.007083150,-0.045068286,-0.045970459,-0.001378829,0.001177707,-0.001248591,0.443039864,0.071983479,9.796315193
1784149125.709651,0.007083150,-0.045068286,-0.045970459,-0.000064950,0.000951196,-0.000701362,0.444364160,0.068957686,9.778365135
1784149125.711652,0.007083150,-0.045068286,-0.045970459,0.000937034,-0.000043368,-0.000126745,0.445605546,0.059603207,9.768443108
1784149125.713649,0.007082688,-0.045069057,-0.045970451,0.001146116,-0.000595972,-0.000412032,0.443232596,0.048884064,9.767923355
1784149125.715662,0.007082688,-0.045069057,-0.045970451,0.000692484,-0.000199597,-0.000688579,0.442501485,0.063176267,9.775635719
1784149125.717663,0.007082734,-0.045068815,-0.045970451,-0.000179303,0.000290219,-0.000438486,0.419545323,0.057630088,9.777820587
1784149125.719698,0.007082734,-0.045068815,-0.045970451,-0.001017811,0.000217589,-0.000313167,0.455493420,0.061227228,9.774290085
1784149125.721666,0.007082734,-0.045068815,-0.045970451,-0.001090760,-0.000220100,-0.000060696,0.443435222,0.102257602,9.759747505
1784149125.723700,0.007084118,-0.045068093,-0.045970459,-0.000529229,-0.000458128,0.000539845,0.466148585,0.088055357,9.762816429
1784149125.725682,0.007084118,-0.045068093,-0.045970459,-0.000095734,-0.000038041,0.001016782,0.442420959,0.056056585,9.768865585
1784149125.727668,0.007082906,-0.045067847,-0.045970462,0.000007682,0.000614476,0.001004782,0.458985031,0.053518202,9.780970573
1784149125.729667,0.007082906,-0.045067847,-0.045970462,-0.000011165,0.000643631,0.000542109,0.475671738,0.060053512,9.776993752
1784149125.731667,0.007082906,-0.045067847,-0.045970462,-0.000049648,0.000123058,0.000544984,0.459207654,0.071080901,9.768080711
1784149125.733665,0.007083178,-0.045069981,-0.045970444,0.000141455,0.000044570,0.001018448,0.462194502,0.096472070,9.783491135
1784149125.735674,0.007083178,-0.045069981,-0.045970444,0.000631416,0.000562131,0.000951930,0.442554563,0.107669711,9.819407463
1784149125.737678,0.007084464,-0.045069862,-0.045970444,0.000751369,0.000691728,0.000576785,0.454231352,0.069202855,9.789134979
1784149125.739674,0.007084464,-0.045069862,-0.045970444,0.000762863,0.000410301,0.000084659,0.457136899,0.087467991,9.798670769
1784149125.741676,0.007084464,-0.045069862,-0.045970444,0.000897362,0.000062808,-0.000743790,0.461915910,0.072793737,9.774371147
1784149125.743676,0.007084369,-0.045071244,-0.045970440,0.000921878,-0.000314986,-0.001438376,0.439001113,0.069195196,9.754600525
1784149125.745679,0.007084369,-0.045071244,-0.045970440,0.000649014,-0.000608280,-0.001421436,0.429454088,0.022639560,9.765949249
1784149125.747681,0.007082469,-0.045070492,-0.045970444,0.000054372,-0.000550340,-0.000974967,0.446168184,0.032227926,9.773648262
1784149125.749682,0.007082469,-0.045070492,-0.045970444,-0.000375094,-0.000183633,-0.000738164,0.466721296,0.026006423,9.792456627
1784149125.751684,0.007082469,-0.045070492,-0.045970444,-0.000255242,-0.000046709,-0.000637901,0.456823230,0.060676176,9.786393166
1784149125.753682,0.007081771,-0.045071039,-0.045970444,0.000373277,0.000009213,-0.000239312,0.449461102,0.083540432,9.797740936
1784149125.755683,0.007081771,-0.045071039,-0.045970444,0.000973852,-0.000079021,0.000285237,0.455559701,0.106635667,9.815382004
1784149125.757687,0.007083133,-0.045071173,-0.045970440,0.000560424,-0.000242229,0.000683515,0.437439948,0.090110205,9.777597427
1784149125.759695,0.007083133,-0.045071173,-0.045970440,-0.000714827,-0.000204967,0.000702201,0.448304921,0.098836049,9.791113853
1784149125.761697,0.007083133,-0.045071173,-0.045970440,-0.001337284,-0.000340686,0.000318253,0.457486272,0.078572974,9.788751602
1784149125.763699,0.007084018,-0.045072012,-0.045970429,-0.001340099,-0.000482848,0.000436166,0.438278139,0.049204491,9.794820786
1784149125.765691,0.007084018,-0.045072012,-0.045970429,-0.001049763,-0.000266575,0.000686777,0.421136141,0.078997329,9.794546127
1784149125.767692,0.007084623,-0.045071613,-0.045970440,-0.000705998,0.000201625,-0.000121564,0.440879434,0.078747526,9.794116020
1784149125.769703,0.007084623,-0.045071613,-0.045970440,-0.000546070,0.000385894,-0.001397418,0.432020724,0.086662285,9.768154144
1784149125.771703,0.007084623,-0.045071613,-0.045970440,-0.000181439,0.000189707,-0.001714550,0.449810714,0.036652006,9.775025368
1784149125.773726,0.007083369,-0.045072239,-0.045970429,0.000155250,0.000007808,-0.001584645,0.448539734,0.042530898,9.769680977
1784149125.775716,0.007083369,-0.045072239,-0.045970429,0.000310821,-0.000086963,-0.001616305,0.473395228,0.056984689,9.771591187
1784149125.777713,0.007082969,-0.045073852,-0.045970418,0.000512077,-0.000268266,-0.001098301,0.491919190,0.068694487,9.792756081
1784149125.779705,0.007082969,-0.045073852,-0.045970418,0.000870700,-0.000730269,-0.000126732,0.474326402,0.061697271,9.800315857
1784149125.781707,0.007082969,-0.045073852,-0.045970418,0.000791393,-0.000845621,0.000329012,0.449350774,0.073348626,9.781985283
1784149125.783712,0.007083037,-0.045074154,-0.045970418,0.000249424,-0.000739350,-0.000169076,0.469563395,0.075282030,9.788741112
1784149125.785745,0.007083037,-0.045074154,-0.045970418,0.000195058,-0.000935923,-0.000478758,0.452032834,0.074044704,9.805305481
1784149125.787723,0.007082613,-0.045074135,-0.045970414,0.000645106,-0.000765510,0.000128551,0.437539548,0.063032828,9.804772377
1784149125.789726,0.007082613,-0.045074135,-0.045970414,0.000687329,-0.000243964,0.000843506,0.439318717,0.062075753,9.810148239
1784149125.791718,0.007082613,-0.045074135,-0.045970414,-0.000166564,0.000236175,0.001255186,0.456889182,0.064844549,9.767142296
1784149125.793717,0.007082274,-0.045075368,-0.045970410,-0.000843891,0.000408879,0.001174927,0.441681921,0.070691809,9.791374207
1784149125.795724,0.007082274,-0.045075368,-0.045970410,-0.000904040,0.000405908,0.000809550,0.447989464,0.074461736,9.816959381
1784149125.797729,0.007082627,-0.045075405,-0.045970406,-0.000783647,0.000493297,0.000327515,0.439397752,0.067562573,9.794490814
1784149125.799725,0.007082627,-0.045075405,-0.045970406,-0.000587575,0.000538012,-0.000059680,0.462281585,0.066459291,9.782400131
1784149125.801727,0.007082627,-0.045075405,-0.045970406,-0.000790826,0.000445225,0.000162455,0.453522921,0.084079728,9.777574539
1784149125.803737,0.007083366,-0.045076512,-0.045970399,-0.001173339,0.000469158,0.000486882,0.431990415,0.085207105,9.783836365
1784149125.805740,0.007083366,-0.045076512,-0.045970399,-0.000887830,0.000752490,0.000400669,0.412819594,0.096154518,9.791062355
1784149125.807743,0.007084276,-0.045074850,-0.045970410,-0.000430431,0.000509214,-0.000151645,0.416306347,0.085570499,9.760958672
1784149125.809741,0.007084276,-0.045074850,-0.045970410,-0.000371984,-0.000006700,-0.000610478,0.460612714,0.077608198,9.792782784
1784149125.811740,0.007084276,-0.045074850,-0.045970410,-0.000562293,-0.000147033,-0.000781325,0.459800601,0.083560832,9.776230812
1784149125.813747,0.007084473,-0.045076068,-0.045970399,-0.000734014,0.000038968,-0.000886180,0.458472401,0.048561413,9.785869598
1784149125.815744,0.007084473,-0.045076068,-0.045970399,-0.000479491,0.000240269,-0.000618612,0.442010492,0.060011309,9.780546188
1784149125.817781,0.007083806,-0.045076154,-0.045970399,-0.000315015,0.000239826,0.000117010,0.450370938,0.046037544,9.777327538
1784149125.819760,0.007083806,-0.045076154,-0.045970399,-0.000249132,0.000310864,0.000851785,0.438174844,0.077063330,9.783791542
1784149125.821753,0.007083806,-0.045076154,-0.045970399,0.000195375,0.000197675,0.001170150,0.436325431,0.072196893,9.778378487
1784149125.823761,0.007083810,-0.045076136,-0.045970399,0.000951671,-0.000138114,0.000859797,0.430118531,0.077732414,9.767199516
1784149125.825753,0.007083810,-0.045076136,-0.045970399,0.000980276,-0.000302115,0.000145929,0.444703400,0.099193290,9.810389519
1784149125.827753,0.007085225,-0.045075770,-0.045970399,0.000404886,-0.000344159,-0.000212167,0.436995238,0.090957828,9.785223961
1784149125.829758,0.007085225,-0.045075770,-0.045970399,0.000690097,-0.000331705,0.000069878,0.440409988,0.078994572,9.823258400
1784149125.831757,0.007085225,-0.045075770,-0.045970399,0.000805611,-0.000501408,0.000238098,0.440790027,0.069531135,9.767157555
1784149125.833751,0.007085608,-0.045076314,-0.045970399,0.000310901,-0.000742132,-0.000074171,0.433751851,0.045710091,9.790310860
1784149125.835752,0.007085608,-0.045076314,-0.045970399,0.000589503,-0.000365968,-0.000369774,0.420478493,0.061548486,9.792193413
1784149125.837755,0.007085183,-0.045075197,-0.045970410,0.001063520,-0.000025187,-0.000205228,0.439415962,0.068112291,9.780148506
1784149125.839772,0.007085183,-0.045075197,-0.045970410,0.000681202,-0.000235515,-0.000341794,0.461768538,0.097062521,9.764216423
1784149125.841788,0.007085183,-0.045075197,-0.045970410,0.000205074,-0.000383397,-0.000965068,0.450982124,0.059877250,9.783244133
1784149125.843811,0.007084765,-0.045075890,-0.045970399,0.000037712,-0.000531385,-0.001039967,0.485273391,0.037128709,9.770131111
1784149125.845771,0.007084765,-0.045075890,-0.045970399,-0.000190219,-0.000351723,-0.000822320,0.429326802,0.085467353,9.752004623
1784149125.847769,0.007085703,-0.045075547,-0.045970406,-0.000604219,0.000285035,-0.000534980,0.444769382,0.065771699,9.784621239
1784149125.849773,0.007085703,-0.045075547,-0.045970406,-0.000727578,0.000565444,-0.000073669,0.433595300,0.069905743,9.790465355
1784149125.851768,0.007085703,-0.045075547,-0.045970406,-0.000334738,0.000243090,0.000169966,0.449665457,0.062153373,9.780569077
1784149125.853768,0.007085248,-0.045076463,-0.045970399,0.000240669,-0.000064976,0.000040621,0.424620628,0.069610916,9.785073280
1784149125.855768,0.007085248,-0.045076463,-0.045970399,0.000952408,0.000030880,0.000038903,0.437401414,0.088184819,9.796415329
1784149125.857771,0.007086252,-0.045076624,-0.045970399,0.001490108,0.000208386,0.000056334,0.430700898,0.053349774,9.792598724
1784149125.859778,0.007086252,-0.045076624,-0.045970399,0.001608442,0.000072539,-0.000239760,0.446978509,0.062229209,9.774737358
1784149125.861776,0.007086252,-0.045076624,-0.045970399,0.001150727,-0.000111994,-0.000222129,0.450371712,0.046853974,9.788539886
1784149125.863774,0.007085704,-0.045077447,-0.045970384,0.000366819,-0.000062682,-0.000028459,0.456166655,0.044857018,9.806915283
1784149125.865775,0.007085704,-0.045077447,-0.045970384,-0.000327187,0.000281327,-0.000012214,0.446139067,0.068372257,9.794502258
1784149125.867783,0.007085944,-0.045077868,-0.045970384,-0.000506340,0.000635967,0.000072926,0.456292629,0.090736046,9.781653404
1784149125.869780,0.007085944,-0.045077868,-0.045970384,-0.000170013,0.000513516,-0.000227466,0.446063668,0.098477259,9.782590866
1784149125.871781,0.007085944,-0.045077868,-0.045970384,0.000020977,0.000425446,-0.000536638,0.436311543,0.071682170,9.787789345
1784149125.873784,0.007086804,-0.045078523,-0.045970377,-0.000167031,0.000342943,-0.000130675,0.436418056,0.045875553,9.825283051
1784149125.875785,0.007086804,-0.045078523,-0.045970377,-0.000106007,0.000120926,-0.000196558,0.446317762,0.083561599,9.800429344
1784149125.877784,0.007087559,-0.045079146,-0.045970369,0.000520390,0.000189118,-0.000603384,0.453305066,0.067365274,9.797192574
1784149125.879793,0.007087559,-0.045079146,-0.045970369,0.000883671,0.000163041,-0.000124095,0.449134976,0.055839978,9.787252426
1784149125.881799,0.007087559,-0.045079146,-0.045970369,0.000800216,-0.000248959,0.000348682,0.439029276,0.037501484,9.801022530
1784149125.883807,0.007085339,-0.045079675,-0.045970362,0.000995134,-0.000475209,-0.000064263,0.436233461,0.066608325,9.808380127
1784149125.885861,0.007085339,-0.045079675,-0.045970362,0.001431098,-0.000193662,-0.000289927,0.438441128,0.060622916,9.763957977
1784149125.887819,0.007084867,-0.045079097,-0.045970369,0.001406893,0.000352021,0.000377416,0.448416173,0.071850888,9.805288315
1784149125.889810,0.007084867,-0.045079097,-0.045970369,0.000862989,0.000522669,0.000626795,0.454908133,0.051644556,9.799783707
1784149125.891806,0.007084867,-0.045079097,-0.045970369,0.000372339,0.000112676,0.000047162,0.441577762,0.061764386,9.786834717
1784149125.893802,0.007083767,-0.045078527,-0.045970369,0.000357609,-0.000174242,0.000040707,0.436126620,0.056038503,9.782756805
1784149125.895809,0.007083767,-0.045078527,-0.045970369,0.000748562,0.000112514,0.000671218,0.465248346,0.088044599,9.765954971
1784149125.897820,0.007084975,-0.045079496,-0.045970362,0.001290142,0.000520509,0.000500243,0.418565959,0.088505767,9.785190582
1784149125.899814,0.007084975,-0.045079496,-0.045970362,0.001465866,0.000570313,0.000012927,0.409661263,0.094841346,9.792395592
1784149125.901812,0.007084975,-0.045079496,-0.045970362,0.000958003,0.000378023,-0.000109688,0.448895484,0.072086804,9.771216393
1784149125.903819,0.007085360,-0.045079287,-0.045970362,0.000386494,0.000005793,-0.000146469,0.472596228,0.029909279,9.800109863
1784149125.905815,0.007085360,-0.045079287,-0.045970362,0.000821182,-0.000096218,0.000099807,0.444038838,0.042073656,9.779088974
1784149125.907827,0.007084131,-0.045079790,-0.045970354,0.001632945,0.000349428,-0.000258654,0.454632461,0.029205164,9.805467606
1784149125.909830,0.007084131,-0.045079790,-0.045970354,0.001733630,0.000410374,-0.000684503,0.439856887,0.030049531,9.776316643
1784149125.911825,0.007084131,-0.045079790,-0.045970354,0.000931130,-0.000133852,-0.000331485,0.429481447,0.063282579,9.784142494
1784149125.913826,0.007082467,-0.045080110,-0.045970354,-0.000267033,-0.000398258,0.000015705,0.422684461,0.094760470,9.780302048
1784149125.915829,0.007082467,-0.045080110,-0.045970354,-0.000571016,0.000089506,-0.000141867,0.482140154,0.075629406,9.780237198
1784149125.917823,0.007082705,-0.045082156,-0.045970339,0.000151214,0.000688753,-0.000596783,0.454476058,0.090587340,9.805861473
1784149125.919844,0.007082705,-0.045082156,-0.045970339,0.000866669,0.000346302,-0.000444825,0.435322762,0.064488135,9.793122292
1784149125.921845,0.007082705,-0.045082156,-0.045970339,0.000764072,-0.000584730,0.000365107,0.446480423,0.059413645,9.793549538
1784149125.923840,0.007082170,-0.045081869,-0.045970343,0.000294664,-0.001040849,0.000648864,0.452692211,0.052296143,9.775128365
1784149125.925836,0.007082170,-0.045081869,-0.045970343,0.000048606,-0.001010082,0.000189835,0.455292284,0.044239685,9.769249916
1784149125.927845,0.007081378,-0.045083120,-0.045970328,0.000161377,-0.000791277,-0.000395729,0.435834229,0.071462154,9.819620132
1784149125.929865,0.007081378,-0.045083120,-0.045970328,0.000191237,-0.000311316,-0.000170738,0.438950866,0.067177609,9.786417007
1784149125.931848,0.007081378,-0.045083120,-0.045970328,-0.000385841,-0.000030861,0.000587538,0.437359124,0.047424149,9.794807434
1784149125.933849,0.007079855,-0.045082979,-0.045970328,-0.000597082,-0.000583778,0.000973581,0.428102255,0.061012328,9.790850639
1784149125.935880,0.007079855,-0.045082979,-0.045970328,0.000243005,-0.001033289,0.001256129,0.437959760,0.058344342,9.770220757
1784149125.937851,0.007080097,-0.045082532,-0.045970336,0.000393801,-0.000755607,0.000453699,0.433009118,0.059100013,9.798914909
1784149125.939851,0.007080097,-0.045082532,-0.045970336,-0.000128598,-0.000650181,-0.000836427,0.415172249,0.067908011,9.789538383
1784149125.941861,0.007080097,-0.045082532,-0.045970336,0.000211321,-0.000588009,-0.000655995,0.463517100,0.057463743,9.785035133
1784149125.943871,0.007079621,-0.045082998,-0.045970336,0.000694756,-0.000368258,-0.000035807,0.451409310,0.058486279,9.789064407
1784149125.945868,0.007079621,-0.045082998,-0.045970336,0.000126213,-0.000212368,-0.000217306,0.447610646,0.040671065,9.780877113
1784149125.947874,0.007078271,-0.045083381,-0.045970336,-0.000576780,-0.000042025,-0.000295513,0.443024457,0.069835871,9.783302307
1784149125.949870,0.007078271,-0.045083381,-0.045970336,-0.000585413,-0.000140347,-0.000190459,0.426983804,0.079037048,9.778411865
1784149125.951876,0.007078271,-0.045083381,-0.045970336,-0.000446674,-0.000282546,-0.000601490,0.434704036,0.087367900,9.790129662
1784149125.953913,0.007078761,-0.045082897,-0.045970336,-0.000375372,0.000173046,-0.001042268,0.440777421,0.071052715,9.805274963
1784149125.955880,0.007078761,-0.045082897,-0.045970336,-0.000523519,0.000539000,-0.000695581,0.422573745,0.084565476,9.764993668
1784149125.957934,0.007080019,-0.045082990,-0.045970336,-0.000369722,0.000131046,0.000492328,0.437366277,0.046264678,9.768797874
1784149125.959902,0.007080019,-0.045082990,-0.045970336,-0.000169277,-0.000417205,0.001049568,0.455099523,0.066529028,9.785532951
1784149125.961881,0.007080019,-0.045082990,-0.045970336,0.000144878,-0.000489557,0.000663322,0.456190288,0.082227953,9.781150818
1784149125.963886,0.007080635,-0.045083579,-0.045970336,0.000411930,-0.000257457,0.000834888,0.433242142,0.077555448,9.786478996
1784149125.965878,0.007080635,-0.045083579,-0.045970336,-0.000170766,0.000025456,0.001374463,0.443119466,0.079906873,9.816093445
1784149125.967880,0.007080874,-0.045083538,-0.045970336,-0.001045891,0.000239845,0.001207261,0.448102146,0.081835784,9.787865639
1784149125.969881,0.007080874,-0.045083538,-0.045970336,-0.001686202,0.000056395,0.000704472,0.429549247,0.067060225,9.756818771
1784149125.971881,0.007080874,-0.045083538,-0.045970336,-0.001671107,-0.000624297,0.000642794,0.444704950,0.059589271,9.772027969
1784149125.973879,0.007080146,-0.045083884,-0.045970328,-0.001315672,-0.001034002,0.000616941,0.444870561,0.074270248,9.786468506
1784149125.975880,0.007080146,-0.045083884,-0.045970328,-0.001282304,-0.000588306,-0.000011866,0.489336371,0.076887660,9.779355049
1784149125.977882,0.007080562,-0.045086499,-0.045970321,-0.001563849,-0.000133997,-0.000523865,0.461104065,0.081586391,9.799533844
1784149125.979894,0.007080562,-0.045086499,-0.045970321,-0.001991580,-0.000235165,-0.000484421,0.421180934,0.081377029,9.774835587
1784149125.981889,0.007080562,-0.045086499,-0.045970321,-0.001597888,-0.000368475,-0.000779830,0.446050912,0.061192166,9.796249390
1784149125.983895,0.007079403,-0.045086693,-0.045970321,-0.000729733,-0.000254651,-0.001191503,0.442970693,0.066169530,9.794934273
1784149125.985915,0.007079403,-0.045086693,-0.045970321,-0.000299284,-0.000387535,-0.001167994,0.447641701,0.080532640,9.782924652
1784149125.987899,0.007080114,-0.045087051,-0.045970317,0.000122012,-0.000574945,-0.001241460,0.414501011,0.048730928,9.778206825
1784149125.989939,0.007080114,-0.045087051,-0.045970317,0.000146867,-0.000112463,-0.001617023,0.450976640,0.060239356,9.795351982
1784149125.991912,0.007080114,-0.045087051,-0.045970317,-0.000270817,0.000171830,-0.001350048,0.448509485,0.077855632,9.779771805
1784149125.993905,0.007080019,-0.045088023,-0.045970306,-0.000187101,-0.000420202,-0.000671996,0.455742985,0.081839807,9.773526192
1784149125.995908,0.007080019,-0.045088023,-0.045970306,0.000611046,-0.001307428,-0.000504344,0.446598113,0.070879407,9.819177628
1784149125.997912,0.007080083,-0.045088001,-0.045970302,0.001233715,-0.001486228,-0.000379541,0.414482862,0.086987875,9.817008972
1784149125.999910,0.007080083,-0.045088001,-0.045970302,0.001242552,-0.000910713,-0.000122931,0.409396708,0.073301062,9.797636986
1784149126.001908,0.007080083,-0.045088001,-0.045970302,0.000724300,-0.000556800,-0.000099658,0.437694073,0.075194560,9.795435905
1784149126.003913,0.007080405,-0.045087926,-0.045970306,0.000436570,-0.000318942,0.000079794,0.428908825,0.089768305,9.778035164
1784149126.005916,0.007080405,-0.045087926,-0.045970306,0.000535650,0.000099454,0.000790037,0.460579574,0.074104004,9.781551361
1784149126.007914,0.007080303,-0.045089424,-0.045970298,0.000098900,0.000140303,0.001214903,0.463947296,0.092064865,9.770013809
1784149126.009919,0.007080303,-0.045089424,-0.045970298,-0.000296606,-0.000436982,0.000852992,0.442406327,0.090288624,9.743530273
1784149126.011914,0.007080303,-0.045089424,-0.045970298,-0.000059040,-0.000789650,0.000337831,0.429786891,0.089604177,9.799554825
1784149126.013914,0.007081660,-0.045087837,-0.045970306,0.000266590,-0.000397914,-0.000412689,0.440009564,0.080191948,9.781571388
1784149126.015917,0.007081660,-0.045087837,-0.045970306,0.000307686,0.000124119,-0.001048688,0.471388787,0.040747546,9.790314674
1784149126.017917,0.007080359,-0.045090105,-0.045970287,0.000204804,0.000122329,-0.000611755,0.483191073,0.051803455,9.789500237
1784149126.019963,0.007080359,-0.045090105,-0.045970287,-0.000363900,-0.000290511,0.000172815,0.458249539,0.068992130,9.811554909
1784149126.021929,0.007080359,-0.045090105,-0.045970287,-0.001336526,-0.000544816,0.000021666,0.463710397,0.073984258,9.792761803
1784149126.023934,0.007080720,-0.045090888,-0.045970280,-0.001824937,-0.000496797,-0.000357573,0.440743923,0.065925188,9.770272255
1784149126.025928,0.007080720,-0.045090888,-0.045970280,-0.001184863,-0.000223665,-0.000125484,0.429371446,0.092304051,9.798674583
1784149126.027927,0.007081597,-0.045090243,-0.045970283,0.000220272,-0.000160587,0.000008221,0.459667861,0.073597580,9.791410446
1784149126.029930,0.007081597,-0.045090243,-0.045970283,0.001295237,-0.000507630,-0.000474143,0.460541725,0.070158184,9.769421577
1784149126.031930,0.007081597,-0.045090243,-0.045970283,0.001083606,-0.000768162,-0.000754955,0.434159249,0.080536589,9.806674957
1784149126.033928,0.007082048,-0.045090314,-0.045970283,0.000583628,-0.000995098,-0.000166001,0.407233179,0.080039673,9.799023628
1784149126.035937,0.007082048,-0.045090314,-0.045970283,0.000838624,-0.000788004,0.000085586,0.407387465,0.057041645,9.819499969
1784149126.037935,0.007081131,-0.045089487,-0.045970298,0.000849702,-0.000094615,0.000163299,0.412364453,0.058519423,9.791717529
1784149126.039943,0.007081131,-0.045089487,-0.045970298,0.000603012,0.000339048,0.000580146,0.454705268,0.034237668,9.790705681
1784149126.041943,0.007081131,-0.045089487,-0.045970298,0.000729442,0.000333547,-0.000074236,0.449784636,0.072415158,9.786460876
1784149126.043942,0.007080998,-0.045089830,-0.045970298,0.000693823,0.000117915,-0.001039727,0.431259841,0.061509080,9.778305054
1784149126.045946,0.007080998,-0.045089830,-0.045970298,0.000502775,-0.000113483,-0.001075837,0.473357618,0.055472288,9.795343399
1784149126.047944,0.007080225,-0.045091230,-0.045970280,0.000686512,-0.000466967,-0.000867986,0.423071295,0.088997990,9.770851135
1784149126.049942,0.007080225,-0.045091230,-0.045970280,0.001017975,-0.000729818,-0.000192782,0.420051485,0.062536009,9.780093193
1784149126.051944,0.007080225,-0.045091230,-0.045970280,0.000812244,-0.000361714,0.000825006,0.438205540,0.079331741,9.779769897
1784149126.053946,0.007081147,-0.045091793,-0.045970276,0.000432020,0.000305907,0.001405848,0.422905445,0.077557303,9.804850578
1784149126.055965,0.007081147,-0.045091793,-0.045970276,0.000495309,0.000517830,0.001954359,0.446567595,0.068207532,9.816919327
1784149126.057956,0.007081170,-0.045092247,-0.045970276,0.000523142,0.000619410,0.002191155,0.430440634,0.069837883,9.805705070
1784149126.059956,0.007081170,-0.045092247,-0.045970276,0.000165965,0.000738126,0.001605131,0.440047979,0.046147518,9.780455589
1784149126.061958,0.007081170,-0.045092247,-0.045970276,0.000008547,0.000231410,0.000868196,0.426803768,0.065458313,9.798051834
1784149126.063973,0.007081040,-0.045091528,-0.045970280,0.000542472,-0.000360490,0.000295033,0.425346494,0.054060686,9.765249252
1784149126.065964,0.007081040,-0.045091528,-0.045970280,0.000466912,-0.000212471,0.000168807,0.437530428,0.061339553,9.790863037
1784149126.067964,0.007081043,-0.045091584,-0.045970280,-0.000545429,0.000083017,0.000509622,0.456536621,0.073714130,9.780649185
1784149126.069969,0.007081043,-0.045091584,-0.045970280,-0.001433284,-0.000222299,0.000790865,0.448661566,0.054435071,9.796656609
1784149126.071968,0.007081043,-0.045091584,-0.045970280,-0.001482177,-0.000500404,0.000220160,0.439934909,0.072713345,9.762244225
1784149126.074049,0.007080902,-0.045091651,-0.045970280,-0.000913962,-0.000148548,-0.000678943,0.440740585,0.102273010,9.762435913
1784149126.075977,0.007080902,-0.045091651,-0.045970280,-0.000463675,0.000335396,-0.000357806,0.462673515,0.063168377,9.803452492
1784149126.077979,0.007080428,-0.045092065,-0.045970280,-0.000153576,0.000811032,0.000382247,0.455885828,0.056319337,9.770672798
1784149126.079981,0.007080428,-0.045092065,-0.045970280,-0.000125437,0.001109980,0.000216767,0.480596662,0.059094358,9.776990891
1784149126.081976,0.007080428,-0.045092065,-0.045970280,-0.000452171,0.001006965,0.000184138,0.447732776,0.051361721,9.789463997
1784149126.083983,0.007079952,-0.045093078,-0.045970269,-0.000525381,0.001198027,0.000505096,0.420943052,0.062883444,9.792649269
1784149126.085996,0.007079952,-0.045093078,-0.045970269,-0.000302757,0.001731438,0.000542976,0.420943052,0.062883444,9.792649269
1784149126.087997,0.007079502,-0.045093600,-0.045970265,0.000104173,0.001325972,0.000476277,0.460931450,0.066444747,9.786883354
1784149126.089992,0.007079502,-0.045093600,-0.045970265,0.000645366,0.000236544,0.000333393,0.460931450,0.066444747,9.786883354
1784149126.091986,0.007079502,-0.045093600,-0.045970265,0.000867665,0.000237390,0.000125146,0.441300064,0.076899067,9.801278114
1784149126.093983,0.007079935,-0.045093428,-0.045970269,0.000779529,0.000528468,0.000010765,0.431060821,0.084154166,9.807589531
1784149126.095990,0.007079571,-0.045093190,-0.045970269,0.000602601,0.000380862,0.000069671,0.405575335,0.089654289,9.773079872
1784149126.098002,0.007079571,-0.045093190,-0.045970269,0.000711710,0.000505863,-0.000066261,0.420730054,0.083797105,9.813406944
1784149126.099993,0.007079571,-0.045093190,-0.045970269,0.001098288,0.000417938,-0.000869816,0.464675874,0.080183797,9.801321983
1784149126.101992,0.007080325,-0.045094203,-0.045970257,0.001303324,-0.000128722,-0.001873199,0.476020306,0.089552179,9.786597252
1784149126.103990,0.007080325,-0.045094203,-0.045970257,0.001178031,-0.000707863,-0.001973785,0.425300598,0.052888133,9.804245949
1784149126.106009,0.007079168,-0.045093402,-0.045970265,0.000870625,-0.000950315,-0.001577057,0.442835540,0.054160424,9.782751083
1784149126.108002,0.007079168,-0.045093402,-0.045970265,0.000294174,-0.000382404,-0.001735751,0.455754995,0.045965366,9.777778625
1784149126.110001,0.007079168,-0.045093402,-0.045970265,0.000023917,0.000515124,-0.001758167,0.455199569,0.074207962,9.776615143
1784149126.111997,0.007079158,-0.045095306,-0.045970250,0.000238224,0.000837665,-0.001306341,0.448275596,0.059393831,9.793101311
1784149126.114001,0.007079158,-0.045095306,-0.045970250,0.000317219,0.000606150,-0.001088224,0.436274886,0.068555981,9.786424637
1784149126.116004,0.007078500,-0.045095243,-0.045970250,0.000301952,0.000314498,-0.001291164,0.452146351,0.082235187,9.787424088
1784149126.117999,0.007078500,-0.045095243,-0.045970250,-0.000230310,0.000500757,-0.000968264,0.420146137,0.071793750,9.801224709
