time_sec,roll_rad,pitch_rad,yaw_rad,gyro_x,gyro_y,gyro_z,acc_x,acc_y,acc_z
1784148253.109179,0.002574785,-0.048200455,-0.260862797,0.000443824,0.000098476,0.000615398,0.473387361,0.021764524,9.809922218
1784148253.111124,0.002570265,-0.048205230,-0.260865718,0.000117557,-0.000125927,0.000513266,0.466131389,0.013145305,9.774888992
1784148253.113101,0.002568578,-0.048209697,-0.260868341,-0.000358641,-0.000698266,0.000021016,0.474468946,0.033743426,9.761579514
1784148253.115106,0.002570672,-0.048206057,-0.260864735,-0.000230440,-0.000564903,0.000081429,0.459325016,0.008580231,9.799062729
1784148253.117099,0.002570790,-0.048206210,-0.260856271,0.000063164,-0.000186459,0.000867449,0.464725137,0.046225216,9.788102150
1784148253.119098,0.002570581,-0.048211575,-0.260851294,0.000125529,-0.000521769,0.001544722,0.464376926,0.055939846,9.808787346
1784148253.121098,0.002570939,-0.048210856,-0.260859907,0.000047964,-0.000685632,0.000883046,0.462164611,0.019030083,9.773577690
1784148253.123113,0.002572937,-0.048209030,-0.260860085,0.000124147,-0.000318244,0.000042908,0.472578228,0.027335979,9.783953667
1784148253.125117,0.002574232,-0.048211947,-0.260863274,0.000302603,-0.000306134,-0.000209316,0.480609924,0.024446160,9.797841072
1784148253.127117,0.002574992,-0.048210703,-0.260866791,0.000342535,-0.000313011,-0.000609911,0.492930204,0.039690129,9.774188995
1784148253.129090,0.002575986,-0.048211820,-0.260863572,0.000371948,-0.000194687,-0.000467809,0.488774270,0.029492814,9.766496658
1784148253.131113,0.002576508,-0.048213523,-0.260860980,0.000354464,-0.000272608,0.000049926,0.461177617,0.049845356,9.789465904
1784148253.133126,0.002579276,-0.048208848,-0.260854721,0.000472093,0.000063986,0.000628060,0.471315086,0.034491990,9.788032532
1784148253.135087,0.002580759,-0.048202563,-0.260849059,0.000671047,0.000792730,0.001250668,0.474050015,0.036821298,9.770565987
1784148253.137086,0.002583462,-0.048202392,-0.260850877,0.000705886,0.001058132,0.001161023,0.479271084,0.021683795,9.747609138
1784148253.139080,0.002578784,-0.048201766,-0.260856479,0.000276774,0.000864931,0.000352717,0.488382459,0.034810506,9.775497437
1784148253.141076,0.002574534,-0.048200566,-0.260848701,-0.000434207,0.000814382,0.000431662,0.491604537,0.043516446,9.805595398
1784148253.143079,0.002575784,-0.048206672,-0.260851651,-0.000541588,0.000322155,0.000649753,0.495177418,0.040906690,9.788097382
1784148253.145094,0.002573707,-0.048210531,-0.260862231,-0.000494747,-0.000444121,-0.000439017,0.468326867,0.046274610,9.774654388
1784148253.147101,0.002570600,-0.048213776,-0.260866433,-0.000801812,-0.000800232,-0.001303798,0.470787704,0.026987324,9.773189545
1784148253.149095,0.002568275,-0.048216946,-0.260866642,-0.001008535,-0.001010158,-0.001229458,0.488256365,0.025304753,9.789334297
1784148253.151087,0.002570163,-0.048216432,-0.260866821,-0.000776564,-0.000844775,-0.000920196,0.451996833,0.032928281,9.790695190
1784148253.153147,0.002569143,-0.048210345,-0.260864466,-0.000510746,-0.000096365,-0.000528783,0.444429427,0.037556507,9.783543587
1784148253.155079,0.002570365,-0.048210096,-0.260865539,-0.000354104,0.000359580,-0.000298355,0.475644529,0.022653962,9.806791306
1784148253.157124,0.002571227,-0.048206307,-0.260870248,-0.000059587,0.000548780,-0.000618398,0.479001015,0.040525801,9.807806015
1784148253.159092,0.002574193,-0.048204504,-0.260868549,0.000282257,0.000792126,-0.000670239,0.482218206,0.009576854,9.806714058
1784148253.161081,0.002578185,-0.048203185,-0.260866225,0.000727276,0.000802417,-0.000239276,0.472495347,0.020197220,9.779872894
1784148253.163081,0.002584137,-0.048205908,-0.260866553,0.001247373,0.000502701,-0.000071139,0.454201311,0.028944194,9.779911041
1784148253.165099,0.002586874,-0.048205465,-0.260860592,0.001516394,0.000211999,0.000303495,0.457963705,0.006856505,9.791877747
1784148253.167082,0.002585813,-0.048204016,-0.260863632,0.001244846,0.000204255,0.000414340,0.475230843,0.023746407,9.779897690
1784148253.169079,0.002585294,-0.048205033,-0.260867417,0.000794309,0.000097328,-0.000155742,0.481467724,0.020879585,9.793784142
1784148253.171082,0.002587461,-0.048204761,-0.260868996,0.000701302,0.000052342,-0.000480225,0.486402392,0.021213433,9.800964355
1784148253.173089,0.002588678,-0.048205025,-0.260870069,0.000760253,0.000071094,-0.000535601,0.484673083,0.024184927,9.764217377
1784148253.175096,0.002585659,-0.048205357,-0.260861248,0.000457174,0.000012062,0.000145176,0.438490689,0.029907793,9.798733711
1784148253.177091,0.002585613,-0.048205778,-0.260862678,0.000072155,-0.000173053,0.000622010,0.455031812,0.023541268,9.782119751
1784148253.179091,0.002589141,-0.048205256,-0.260867059,0.000192217,-0.000252585,0.000049682,0.472909540,0.018297875,9.794206619
1784148253.181092,0.002592163,-0.048201893,-0.260867983,0.000537037,0.000082575,-0.000346603,0.477563471,0.031310748,9.783086777
1784148253.183095,0.002586382,-0.048198622,-0.260872304,0.000157321,0.000513308,-0.000599152,0.471314043,0.034889076,9.795208931
1784148253.185097,0.002583539,-0.048195157,-0.260871410,-0.000481231,0.000830110,-0.000639275,0.467200458,0.065452434,9.789123535
1784148253.187092,0.002595637,-0.048199169,-0.260871291,0.000078047,0.000544324,-0.000417029,0.485319942,0.040737834,9.766566277
1784148253.189095,0.002600853,-0.048202395,-0.260872930,0.001023459,-0.000118432,-0.000455373,0.507110775,0.024323171,9.767378807
1784148253.191106,0.002592395,-0.048200507,-0.260876536,0.000525467,-0.000029255,-0.000680574,0.507936239,0.018475456,9.769135475
1784148253.193099,0.002585490,-0.048199099,-0.260880142,-0.000665433,0.000351178,-0.000934449,0.470246166,0.020181442,9.786146164
1784148253.195117,0.002585862,-0.048197519,-0.260879934,-0.000938692,0.000458480,-0.000884722,0.482350379,0.018320225,9.774042130
1784148253.197129,0.002587162,-0.048199497,-0.260874093,-0.000526293,0.000364298,-0.000234724,0.485309064,0.040651985,9.778672218
1784148253.199106,0.002586659,-0.048199829,-0.260867506,-0.000264429,0.000167453,0.000671261,0.480908483,0.011096963,9.784305573
1784148253.201131,0.002585626,-0.048202369,-0.260870457,-0.000181293,-0.000025132,0.000735107,0.462701112,0.028228018,9.802330971
1784148253.203156,0.002585423,-0.048204977,-0.260875583,-0.000138653,-0.000322357,-0.000013565,0.489439696,0.049028832,9.790385246
1784148253.205123,0.002582551,-0.048205487,-0.260874927,-0.000324175,-0.000448101,-0.000306077,0.475898981,0.043304693,9.800646782
1784148253.207144,0.002579836,-0.048207995,-0.260875672,-0.000658741,-0.000521437,-0.000212504,0.467297524,0.071892418,9.765402794
1784148253.209124,0.002577248,-0.048209570,-0.260875612,-0.000885083,-0.000646824,-0.000180814,0.444527775,0.046032790,9.788530350
1784148253.211119,0.002578253,-0.048206486,-0.260872215,-0.000848240,-0.000418016,0.000115154,0.463803083,0.044826057,9.797507286
1784148253.213120,0.002580705,-0.048206586,-0.260865986,-0.000459598,-0.000149673,0.000729044,0.471105278,0.017841117,9.798686028
1784148253.215121,0.002586425,-0.048204795,-0.260866016,0.000239565,0.000006877,0.000923975,0.480464607,0.011140870,9.778923988
1784148253.217123,0.002585787,-0.048202395,-0.260870039,0.000553430,0.000289229,0.000380639,0.501974404,0.008618739,9.779827118
1784148253.219115,0.002580950,-0.048202861,-0.260872722,0.000057497,0.000341624,-0.000161595,0.479366213,-0.004618478,9.791824341
1784148253.221128,0.002578211,-0.048204996,-0.260875762,-0.000397475,0.000092374,-0.000486150,0.481027573,0.019331958,9.760149002
1784148253.223127,0.002585403,-0.048207492,-0.260874122,0.000100759,-0.000225692,-0.000469302,0.494495898,0.022053564,9.794252396
1784148253.225121,0.002589248,-0.048207853,-0.260869175,0.000843294,-0.000356707,0.000067638,0.482923687,0.029024210,9.779939651
1784148253.227122,0.002590046,-0.048210021,-0.260873735,0.000915505,-0.000408664,0.000061151,0.485953003,0.019592680,9.777639389
1784148253.229126,0.002587587,-0.048214965,-0.260882199,0.000496666,-0.000759992,-0.000830609,0.498569667,0.025118466,9.796964645
1784148253.231171,0.002585784,-0.048219748,-0.260880232,0.000044462,-0.001143106,-0.001029893,0.471894264,0.009273838,9.804907799
1784148253.233132,0.002580045,-0.048229799,-0.260877669,-0.000471285,-0.001766826,-0.000419110,0.460426956,0.025988348,9.806349754
1784148253.235137,0.002569396,-0.048229489,-0.260870814,-0.001423483,-0.001947209,0.000387486,0.460250348,0.047594797,9.792590141
1784148253.237132,0.002564785,-0.048223268,-0.260869682,-0.002051930,-0.001088698,0.000872390,0.503972232,0.062782526,9.783313751
1784148253.239133,0.002568642,-0.048224319,-0.260875702,-0.001568382,-0.000557784,0.000305965,0.485437244,0.051390339,9.780532837
1784148253.241136,0.002572636,-0.048229955,-0.260879934,-0.000716202,-0.000840055,-0.000488691,0.479889154,0.037604328,9.775956154
1784148253.243132,0.002570483,-0.048227847,-0.260877103,-0.000474200,-0.000829375,-0.000453225,0.472788572,0.007616762,9.784276009
1784148253.245138,0.002576806,-0.048224255,-0.260872811,-0.000039512,-0.000215839,0.000136004,0.476850390,0.008966137,9.776217461
1784148253.247142,0.002578606,-0.048224844,-0.260871679,0.000565168,0.000084791,0.000438530,0.477689654,0.004443225,9.780673027
1784148253.249141,0.002573491,-0.048229016,-0.260874897,0.000205460,-0.000224674,0.000185354,0.467351407,0.003622302,9.788727760
1784148253.251141,0.002572273,-0.048228581,-0.260876536,-0.000182509,-0.000429651,-0.000179685,0.457088679,0.007449511,9.773051262
1784148253.253145,0.002571981,-0.048232883,-0.260869741,-0.000105162,-0.000586952,0.000222831,0.457538158,0.007450125,9.772153854
1784148253.255151,0.002567151,-0.048233457,-0.260862052,-0.000376391,-0.000755994,0.001165102,0.475676537,0.023311777,9.777205467
1784148253.257144,0.002567055,-0.048230913,-0.260855973,-0.000550895,-0.000429076,0.001799925,0.458084255,0.014697607,9.760096550
1784148253.259151,0.002566697,-0.048231699,-0.260857671,-0.000405462,-0.000207873,0.001612860,0.456865460,0.027066985,9.787074089
1784148253.261152,0.002569778,-0.048227858,-0.260853648,-0.000172417,-0.000029215,0.001332471,0.468846828,0.090905376,9.798255920
1784148253.263153,0.002564941,-0.048225250,-0.260845155,-0.000272995,0.000333525,0.001833097,0.480538696,0.055799641,9.799386978
1784148253.265157,0.002558879,-0.048223086,-0.260844111,-0.000906679,0.000568928,0.002016228,0.458502173,0.051633541,9.794855118
1784148253.267154,0.002561709,-0.048218232,-0.260845661,-0.001022330,0.000813000,0.001446571,0.462046176,0.009584743,9.778897285
1784148253.269156,0.002562994,-0.048220873,-0.260848671,-0.000621253,0.000663356,0.000741700,0.478608489,0.006627019,9.786965370
1784148253.271155,0.002560270,-0.048216946,-0.260847121,-0.000491724,0.000608765,0.000444875,0.458162427,0.023824977,9.799608231
1784148253.273160,0.002557562,-0.048213031,-0.260838211,-0.000629474,0.001016498,0.001043097,0.452387244,0.028004499,9.789318085
1784148253.275166,0.002554370,-0.048212498,-0.260836333,-0.000823232,0.001044326,0.001513351,0.469131798,0.040264737,9.799275398
1784148253.277167,0.002552805,-0.048211198,-0.260842830,-0.000946319,0.000836833,0.000807680,0.486223817,0.041993916,9.777336121
1784148253.279162,0.002556032,-0.048211474,-0.260846764,-0.000619748,0.000629737,-0.000121235,0.504214823,0.046154525,9.789933205
1784148253.281176,0.002558742,-0.048213642,-0.260844886,-0.000149133,0.000382932,-0.000238499,0.494183600,0.031241110,9.762928009
1784148253.283176,0.002557033,-0.048216537,-0.260846645,-0.000134063,0.000025684,-0.000162967,0.472501874,0.021464793,9.790640831
1784148253.285170,0.002556952,-0.048222616,-0.260849684,-0.000234678,-0.000591357,-0.000435041,0.466262668,0.026339300,9.809495926
1784148253.287169,0.002560747,-0.048225954,-0.260847121,0.000088729,-0.001082800,-0.000362070,0.495831549,0.021953641,9.805909157
1784148253.289174,0.002559913,-0.048227556,-0.260844827,0.000290615,-0.001136675,0.000053765,0.480085224,0.019393966,9.816189766
1784148253.291175,0.002559521,-0.048227776,-0.260848343,0.000151711,-0.000954414,-0.000039663,0.473562211,0.034491856,9.784000397
1784148253.293175,0.002562208,-0.048225977,-0.260846347,0.000288174,-0.000589990,-0.000142160,0.444671005,0.022542283,9.815279007
1784148253.295176,0.002561299,-0.048225749,-0.260842234,0.000350557,-0.000291323,0.000306801,0.468083709,0.025712915,9.768246651
1784148253.297177,0.002557652,-0.048230141,-0.260839820,-0.000006941,-0.000537713,0.000684794,0.496693283,0.053982068,9.773835182
1784148253.299178,0.002558279,-0.048230473,-0.260834515,-0.000159462,-0.000754810,0.001032328,0.465183914,0.046298955,9.776894569
1784148253.301181,0.002560364,-0.048229963,-0.260834754,0.000022684,-0.000590922,0.001089192,0.456490129,0.032515045,9.777693748
1784148253.303208,0.002558487,-0.048229937,-0.260837853,-0.000041956,-0.000447973,0.000570829,0.456902355,-0.005773475,9.805694580
1784148253.305196,0.002557286,-0.048228823,-0.260843545,-0.000267996,-0.000249697,-0.000167589,0.453716695,0.026640190,9.789759636
1784148253.307246,0.002556034,-0.048226897,-0.260843635,-0.000360239,-0.000053255,-0.000506544,0.467360914,0.043718804,9.820816040
1784148253.309202,0.002556568,-0.048227459,-0.260841787,-0.000285188,-0.000022777,-0.000248420,0.485521615,0.022571988,9.800522804
1784148253.311196,0.002548356,-0.048228540,-0.260844141,-0.000701248,-0.000084720,-0.000187959,0.465530843,0.038194925,9.781774521
1784148253.313202,0.002543808,-0.048230585,-0.260847628,-0.001366274,-0.000231835,-0.000488041,0.457440704,0.001006966,9.796322823
1784148253.315208,0.002541974,-0.048227414,-0.260845631,-0.001432836,-0.000093184,-0.000433837,0.468273908,0.043424681,9.797502518
1784148253.317204,0.002544296,-0.048223566,-0.260840714,-0.001026162,0.000413575,0.000150188,0.494611889,0.069069780,9.798140526
1784148253.319197,0.002543546,-0.048227284,-0.260840535,-0.000662351,0.000314811,0.000446782,0.494292766,0.043450154,9.810081482
1784148253.321196,0.002536162,-0.048231531,-0.260837525,-0.001071300,-0.000235296,0.000568853,0.480098575,0.056278791,9.795802116
1784148253.323198,0.002536836,-0.048231538,-0.260838300,-0.001275915,-0.000384618,0.000587123,0.471385330,0.041125551,9.800180435
1784148253.325204,0.002541260,-0.048226345,-0.260833055,-0.000569268,0.000072687,0.000713256,0.467493474,0.052465357,9.787695885
1784148253.327212,0.002539920,-0.048222829,-0.260833472,-0.000232830,0.000641519,0.000842276,0.462376952,0.039753571,9.820338249
1784148253.329205,0.002537179,-0.048222739,-0.260840565,-0.000513983,0.000706579,0.000121153,0.460265547,0.049335763,9.799774170
1784148253.331207,0.002543597,-0.048227940,-0.260826319,-0.000167508,0.000112081,0.000567919,0.437896043,0.053788416,9.780950546
1784148253.333208,0.002541266,-0.048233803,-0.260821760,0.000151013,-0.000722569,0.001685531,0.455798596,0.012772337,9.782947540
1784148253.335217,0.002531929,-0.048234738,-0.260825217,-0.000677340,-0.000988101,0.001344607,0.485923499,0.018143864,9.792425156
1784148253.337214,0.002532881,-0.048231110,-0.260827571,-0.001055059,-0.000479015,0.000613121,0.496245891,0.017624088,9.783913612
1784148253.339215,0.002542618,-0.048224557,-0.260832131,-0.000040591,0.000400806,-0.000059288,0.473608524,0.000104394,9.768088341
1784148253.341219,0.002540026,-0.048219539,-0.260830075,0.000534986,0.001041627,-0.000242511,0.477463335,0.022415124,9.774063110
1784148253.343219,0.002535619,-0.048215535,-0.260829747,0.000011300,0.001336310,0.000000644,0.473339111,0.017736055,9.809447289
1784148253.345221,0.002530389,-0.048217658,-0.260825008,-0.000628660,0.001102573,0.000373440,0.496515810,0.039612334,9.778675079
1784148253.347220,0.002526017,-0.048220761,-0.260817051,-0.001081554,0.000604957,0.001166719,0.470478594,0.039037142,9.780440331
1784148253.349224,0.002526728,-0.048218649,-0.260818124,-0.001027698,0.000528844,0.001331627,0.441933662,0.054947011,9.799792290
1784148253.351223,0.002530018,-0.048214551,-0.260823697,-0.000585732,0.000726799,0.000515119,0.480293572,0.034411985,9.783109665
1784148253.353230,0.002535367,-0.048210137,-0.260821015,0.000062854,0.001028040,0.000156369,0.483687848,0.018639654,9.789736748
1784148253.355236,0.002537629,-0.048208095,-0.260815978,0.000587258,0.001188505,0.000616850,0.495347232,0.018436119,9.797367096
1784148253.357232,0.002535889,-0.048209716,-0.260817707,0.000478281,0.000988371,0.000678981,0.481902868,0.019145586,9.784806252
1784148253.359236,0.002535505,-0.048210718,-0.260824114,0.000181469,0.000633689,-0.000053494,0.482915223,0.028957434,9.789352417
1784148253.361229,0.002538384,-0.048206914,-0.260824054,0.000257567,0.000677477,-0.000476635,0.474941760,0.037575360,9.788952827
1784148253.363237,0.002538823,-0.048195008,-0.260822892,0.000393658,0.001587367,-0.000274419,0.450080544,0.023887133,9.805429459
1784148253.365240,0.002536155,-0.048189137,-0.260824919,0.000132685,0.002362866,-0.000253413,0.440210313,0.024023149,9.804076195
1784148253.367274,0.002529853,-0.048188232,-0.260829777,-0.000535743,0.002089330,-0.000622631,0.451951921,0.029331869,9.792464256
1784148253.369246,0.002527897,-0.048191648,-0.260832071,-0.000975228,0.001259688,-0.000913090,0.483159661,0.048718598,9.782308578
1784148253.371243,0.002540047,-0.048195198,-0.260832667,-0.000158904,0.000461617,-0.000889287,0.492935419,0.039731462,9.768361092
1784148253.373240,0.002550496,-0.048197966,-0.260832250,0.001285746,-0.000075822,-0.000725937,0.480584651,0.020598922,9.771813393
1784148253.375250,0.002549700,-0.048197195,-0.260830194,0.001599310,-0.000190714,-0.000389949,0.472184271,0.031421069,9.777254105
1784148253.377242,0.002541867,-0.048191223,-0.260826916,0.000531657,0.000313989,0.000108759,0.467549741,0.017750753,9.754745483
1784148253.379293,0.002532489,-0.048186865,-0.260828406,-0.000839680,0.000923377,0.000255845,0.483041614,0.037249666,9.757127762
1784148253.381261,0.002531204,-0.048186716,-0.260825604,-0.001372000,0.001038624,0.000307750,0.471132815,0.018463958,9.774029732
1784148253.383259,0.002531396,-0.048185706,-0.260821909,-0.001093976,0.000897418,0.000670298,0.458226889,0.027170559,9.770040512
1784148253.385269,0.002531323,-0.048184421,-0.260818213,-0.000764817,0.000810853,0.000988858,0.483190954,0.050586756,9.771558762
1784148253.387258,0.002537025,-0.048183262,-0.260823667,-0.000270008,0.000784913,0.000589724,0.493417650,0.006453192,9.784735680
1784148253.389260,0.002535673,-0.048182443,-0.260826379,-0.000017368,0.000733837,-0.000134634,0.467871994,0.045015961,9.763439178
1784148253.391303,0.002540344,-0.048178572,-0.260830522,0.000131471,0.000804450,-0.000571518,0.463498712,0.055697337,9.781436920
1784148253.393269,0.002543291,-0.048177306,-0.260828555,0.000546900,0.000886698,-0.000582244,0.468989700,0.026984887,9.776775360
1784148253.395266,0.002541426,-0.048177261,-0.260831863,0.000467356,0.000734302,-0.000519640,0.479142964,0.012972218,9.775797844
1784148253.397265,0.002538558,-0.048174307,-0.260839731,-0.000003487,0.000757715,-0.001123806,0.464010984,-0.012502207,9.794001579
1784148253.399277,0.002533415,-0.048177149,-0.260842144,-0.000565762,0.000578701,-0.001493168,0.487707466,0.017224947,9.792422295
1784148253.401268,0.002532258,-0.048174467,-0.260836422,-0.000814679,0.000458912,-0.000841287,0.474186271,0.012870121,9.799104691
1784148253.403297,0.002532178,-0.048170008,-0.260831863,-0.000630053,0.000868912,0.000088248,0.496371388,0.029556880,9.806856155
1784148253.405288,0.002532480,-0.048172425,-0.260831088,-0.000426701,0.000772970,0.000420331,0.477137297,0.032304626,9.770091057
1784148253.407314,0.002533888,-0.048171494,-0.260833204,-0.000225382,0.000507280,0.000209948,0.450510383,0.020085022,9.772228241
1784148253.409292,0.002536649,-0.048166502,-0.260832012,0.000089406,0.000815781,0.000077803,0.474143267,0.045662872,9.787210464
1784148253.411277,0.002536985,-0.048166748,-0.260822803,0.000261061,0.000892390,0.000756847,0.490416497,0.054507338,9.774282455
1784148253.413287,0.002536597,-0.048168916,-0.260818899,0.000181497,0.000463210,0.001447067,0.484417975,0.042334508,9.795718193
1784148253.415289,0.002543336,-0.048172709,-0.260819167,0.000574785,-0.000066204,0.001281477,0.464461237,0.023067962,9.768674850
1784148253.417286,0.002547721,-0.048169896,-0.260820597,0.001154982,-0.000128734,0.000784025,0.468402117,0.015762988,9.780737877
1784148253.419288,0.002551854,-0.048164651,-0.260820091,0.001403354,0.000439234,0.000478933,0.489281207,0.036025245,9.792095184
1784148253.421283,0.002549713,-0.048164740,-0.260819435,0.001130357,0.000712898,0.000417642,0.461499214,0.002330900,9.791851997
1784148253.423287,0.002547745,-0.048165515,-0.260820955,0.000511434,0.000503470,0.000261736,0.455692530,0.039798845,9.762945175
1784148253.425289,0.002548841,-0.048158135,-0.260817945,0.000318387,0.000815218,0.000295571,0.478115886,0.041039310,9.800186157
1784148253.427290,0.002549138,-0.048151415,-0.260817438,0.000291190,0.001526304,0.000449459,0.479238570,0.022642944,9.801861763
1784148253.429323,0.002548224,-0.048148181,-0.260823101,0.000106933,0.001761650,-0.000017930,0.466506302,0.043257263,9.761185646
1784148253.431294,0.002552008,-0.048151486,-0.260824889,0.000182835,0.001265857,-0.000524267,0.473599076,0.038024664,9.791196823
1784148253.433291,0.002553665,-0.048157655,-0.260820121,0.000446564,0.000268142,-0.000192323,0.466365129,-0.004362723,9.779260635
1784148253.435293,0.002551362,-0.048157383,-0.260819972,0.000297563,-0.000203902,0.000194786,0.468397558,0.015321394,9.779836655
1784148253.437292,0.002548733,-0.048154175,-0.260821164,-0.000092670,0.000069664,0.000082644,0.487224013,0.012903708,9.770873070
1784148253.439296,0.002549017,-0.048150767,-0.260818809,-0.000194164,0.000482088,0.000146842,0.499330103,0.048241727,9.757213593
1784148253.441293,0.002550154,-0.048147503,-0.260815531,-0.000086834,0.000886804,0.000483308,0.489623994,0.028699487,9.813568115
1784148253.443298,0.002543091,-0.048149552,-0.260816753,-0.000518438,0.000810477,0.000508920,0.454158574,0.064170346,9.803898811
1784148253.445301,0.002539073,-0.048149444,-0.260825038,-0.001159775,0.000457061,-0.000232777,0.471414059,0.042568009,9.786292076
1784148253.447304,0.002539657,-0.048147209,-0.260826975,-0.001207865,0.000483511,-0.000843055,0.490749806,0.009111863,9.793716431
1784148253.449301,0.002534543,-0.048143499,-0.260823280,-0.001278281,0.000750170,-0.000473982,0.451726258,0.009313530,9.772608757
1784148253.451305,0.002537031,-0.048140619,-0.260817885,-0.001023402,0.000938139,0.000282734,0.455499947,0.024904836,9.778541565
1784148253.453313,0.002547315,-0.048139982,-0.260813445,0.000208730,0.000865797,0.000834490,0.476774096,0.039874841,9.777313232
1784148253.455311,0.002550052,-0.048138708,-0.260812610,0.001052241,0.000761565,0.000929185,0.469242990,0.011252805,9.783397675
1784148253.457313,0.002547267,-0.048143644,-0.260813862,0.000813927,0.000336946,0.000651887,0.464089602,0.030571397,9.785311699
1784148253.459313,0.002544162,-0.048144724,-0.260808736,0.000258160,-0.000132137,0.000755262,0.476597309,0.023484694,9.751204491
1784148253.461308,0.002541424,-0.048148081,-0.260807574,-0.000218249,-0.000366090,0.000993522,0.479459465,0.039786294,9.784935951
1784148253.463310,0.002538616,-0.048152816,-0.260809094,-0.000566952,-0.000785726,0.000714406,0.479416788,0.035802331,9.778185844
1784148253.465320,0.002534776,-0.048154853,-0.260816038,-0.000891408,-0.001033349,-0.000030269,0.465484709,-0.002190915,9.790482521
1784148253.467318,0.002534831,-0.048153538,-0.260821044,-0.000851101,-0.000765193,-0.000822544,0.456375450,0.024315016,9.796920776
1784148253.469314,0.002542749,-0.048152599,-0.260817230,0.000010602,-0.000367035,-0.000711287,0.471681267,0.027350653,9.783504486
1784148253.471318,0.002543732,-0.048153557,-0.260814577,0.000635329,-0.000242152,-0.000107660,0.462568581,0.015834546,9.781178474
1784148253.473325,0.002545017,-0.048152495,-0.260816723,0.000621285,-0.000143792,-0.000047716,0.454426855,0.010155882,9.775307655
1784148253.475326,0.002543453,-0.048151664,-0.260820508,0.000414199,0.000022637,-0.000437076,0.426096350,0.042348146,9.772796631
1784148253.477329,0.002543356,-0.048151094,-0.260821432,0.000134228,-0.000071271,-0.000631865,0.457782388,0.027614737,9.771387100
1784148253.479327,0.002540063,-0.048156403,-0.260818779,-0.000165694,-0.000555396,-0.000324941,0.478281200,0.015696920,9.772227287
1784148253.481329,0.002539275,-0.048152771,-0.260824889,-0.000342479,-0.000474332,-0.000459903,0.495959580,0.029448520,9.759779930
1784148253.483337,0.002541062,-0.048146699,-0.260825276,-0.000136891,0.000356521,-0.000788063,0.488673061,0.021804349,9.776760101
1784148253.485336,0.002539034,-0.048141874,-0.260829628,-0.000131670,0.000998572,-0.000900787,0.454784185,0.040534560,9.787159920
1784148253.487339,0.002538815,-0.048136950,-0.260837704,-0.000326888,0.001345550,-0.001489344,0.451130509,0.037238151,9.816275597
1784148253.489347,0.002546708,-0.048138618,-0.260839254,0.000212843,0.001157989,-0.001757006,0.470678538,0.017615113,9.768198013
1784148253.491339,0.002546491,-0.048137225,-0.260834992,0.000746134,0.000780762,-0.001122729,0.487167656,0.009621713,9.791475296
1784148253.493342,0.002543418,-0.048134077,-0.260829568,0.000413750,0.000834616,-0.000154529,0.491047233,0.032533027,9.775933266
1784148253.495350,0.002535292,-0.048133243,-0.260825008,-0.000425136,0.000879950,0.000604037,0.485787272,0.006531853,9.787419319
1784148253.497343,0.002529092,-0.048133947,-0.260826349,-0.001200029,0.000719516,0.000704010,0.482293665,0.014224983,9.782981873
1784148253.499347,0.002528969,-0.048136327,-0.260827690,-0.001241527,0.000383669,0.000343207,0.482453674,0.025214521,9.749427795
1784148253.501348,0.002524698,-0.048135567,-0.260829628,-0.001180885,0.000174248,0.000044603,0.452973306,0.002840405,9.798573494
1784148253.503383,0.002517889,-0.048133429,-0.260824323,-0.001568426,0.000329450,0.000297449,0.443994820,0.037673540,9.767851830
1784148253.505362,0.002516116,-0.048138026,-0.260814667,-0.001675719,0.000075882,0.001256108,0.499181062,0.038554732,9.796604156
1784148253.507394,0.002513152,-0.048134793,-0.260817289,-0.001515987,0.000035910,0.001414111,0.494313508,0.043208871,9.780937195
1784148253.509362,0.002510753,-0.048132583,-0.260825455,-0.001500318,0.000465271,0.000322138,0.465600878,0.045231942,9.800201416
1784148253.511360,0.002511601,-0.048135620,-0.260827929,-0.001295488,0.000271994,-0.000475865,0.464658111,0.004863960,9.808012009
1784148253.513371,0.002507628,-0.048136082,-0.260831863,-0.001239312,-0.000049566,-0.000769528,0.451651514,0.041045021,9.784021378
1784148253.515378,0.002506501,-0.048130453,-0.260838032,-0.001281744,0.000312603,-0.001232994,0.438517272,0.032144424,9.799195290
1784148253.517369,0.002506399,-0.048123010,-0.260835648,-0.001055670,0.001021103,-0.001152546,0.445743620,0.035261296,9.788909912
1784148253.519367,0.002504017,-0.048125125,-0.260834515,-0.000952084,0.001012821,-0.000591509,0.457947940,0.004705731,9.779311180
1784148253.521366,0.002502087,-0.048124388,-0.260833234,-0.000917092,0.000593685,-0.000257372,0.474908918,0.034884419,9.789382935
1784148253.523370,0.002502498,-0.048124347,-0.260839373,-0.000726112,0.000433658,-0.000518335,0.462286741,0.029720737,9.782164574
1784148253.525372,0.002506739,-0.048119519,-0.260851681,-0.000273869,0.000643445,-0.001644822,0.469211876,0.009791273,9.799977303
1784148253.527365,0.002507583,-0.048115939,-0.260851890,0.000183328,0.000990451,-0.002067032,0.475434154,0.041156478,9.788528442
1784148253.529367,0.002507349,-0.048119705,-0.260846078,0.000272126,0.000662264,-0.001132657,0.470020860,0.039376393,9.796581268
1784148253.531367,0.002505980,-0.048125450,-0.260841191,0.000094677,-0.000152394,-0.000094530,0.490901679,0.021657959,9.793350220
1784148253.533379,0.002502498,-0.048125975,-0.260839015,-0.000266720,-0.000525931,0.000427917,0.464724243,0.045002162,9.771058083
1784148253.535378,0.002502077,-0.048121218,-0.260838240,-0.000449378,-0.000095179,0.000523730,0.480053723,0.052682389,9.797573090
1784148253.537384,0.002508796,-0.048120730,-0.260834068,0.000051047,0.000301120,0.000703306,0.487887353,0.067176953,9.761359215
1784148253.539384,0.002513941,-0.048119266,-0.260827988,0.000810183,0.000367472,0.001176497,0.472558796,0.025966659,9.787531853
1784148253.541381,0.002516421,-0.048121851,-0.260819942,0.001179032,0.000164146,0.001790294,0.453519970,0.010497685,9.791896820
1784148253.543377,0.002522122,-0.048127003,-0.260815740,0.001479323,-0.000433520,0.002108622,0.475047141,0.045702256,9.780038834
1784148253.545383,0.002519766,-0.048126735,-0.260814607,0.001321842,-0.000646100,0.001889869,0.465569139,0.041333839,9.781346321
1784148253.547394,0.002515964,-0.048122033,-0.260814369,0.000437485,-0.000125254,0.001498378,0.490143418,0.031683583,9.770996094
1784148253.549405,0.002510329,-0.048119895,-0.260811239,-0.000422694,0.000381614,0.001357962,0.507391274,0.009210745,9.749796867
1784148253.551410,0.002510895,-0.048122831,-0.260810405,-0.000583596,0.000349746,0.001272228,0.471556723,0.016640924,9.777606964
1784148253.553417,0.002513106,-0.048132170,-0.260806710,-0.000166857,-0.000453303,0.001224326,0.477969766,0.026917594,9.770058632
1784148253.555432,0.002514229,-0.048131362,-0.260810941,0.000102764,-0.000909853,0.000847108,0.468776703,0.047898546,9.797531128
1784148253.557402,0.002512285,-0.048127457,-0.260813206,-0.000069588,-0.000318074,0.000179733,0.470704824,0.057438537,9.775626183
1784148253.559402,0.002506780,-0.048129261,-0.260813534,-0.000631693,-0.000064025,-0.000019294,0.487528652,0.039218947,9.787182808
1784148253.561530,0.002504596,-0.048132155,-0.260814846,-0.001046032,-0.000311325,-0.000094492,0.481975824,0.024584711,9.775874138
1784148253.563524,0.002505295,-0.048126075,-0.260814816,-0.000926201,0.000043949,-0.000145620,0.486769080,0.013265209,9.783877373
1784148253.565439,0.002504245,-0.048127938,-0.260813534,-0.000694467,0.000318208,-0.000020085,0.447522759,0.035114292,9.806395531
1784148253.567448,0.002503907,-0.048131149,-0.260815471,-0.000587383,-0.000200524,-0.000059098,0.443673044,0.049218167,9.783168793
1784148253.569436,0.002513214,-0.048132546,-0.260818511,0.000178813,-0.000547844,-0.000411187,0.458686709,0.028873986,9.781708717
1784148253.571425,0.002518894,-0.048133396,-0.260820448,0.001155771,-0.000535281,-0.000683587,0.484648347,0.023584340,9.785734177
1784148253.573419,0.002519154,-0.048134968,-0.260823876,0.001252582,-0.000537497,-0.000883068,0.493728399,0.032006059,9.782210350
1784148253.575426,0.002516040,-0.048133362,-0.260823339,0.000709492,-0.000389720,-0.000829960,0.464824080,0.017521333,9.791953087
1784148253.577420,0.002511305,-0.048131902,-0.260825992,0.000025973,-0.000135410,-0.000718705,0.456701130,0.052012287,9.807857513
1784148253.579441,0.002506245,-0.048130780,-0.260829210,-0.000616379,0.000016961,-0.000890795,0.473977625,0.031791981,9.784881592
1784148253.581416,0.002499504,-0.048135061,-0.260824829,-0.001269216,-0.000143022,-0.000530565,0.483872116,0.033873506,9.789385796
1784148253.583442,0.002491869,-0.048134238,-0.260819405,-0.001891064,-0.000279643,0.000327224,0.455808550,0.049225099,9.760316849
1784148253.585431,0.002488470,-0.048135825,-0.260819107,-0.002106982,-0.000253961,0.000664360,0.468164474,0.034455922,9.798789024
1784148253.587428,0.002487662,-0.048141744,-0.260820329,-0.001852001,-0.000668801,0.000438852,0.449756503,0.033792533,9.799216270
1784148253.589437,0.002486761,-0.048142046,-0.260816395,-0.001485047,-0.000884404,0.000510016,0.444121927,0.012029076,9.782482147
1784148253.591433,0.002486406,-0.048140142,-0.260814816,-0.001069236,-0.000648193,0.000744804,0.464215815,0.002893808,9.770788193
1784148253.593431,0.002486911,-0.048138551,-0.260817200,-0.000691598,-0.000348270,0.000483431,0.463183790,0.028895983,9.770503998
1784148253.595472,0.002486911,-0.048138551,-0.260817200,-0.000758093,-0.000016220,-0.000013767,0.471850634,0.040440101,9.769690514
1784148253.597434,0.002501031,-0.048144978,-0.260828048,-0.000935713,-0.000022092,0.000055454,0.479130030,0.023103666,9.758229256
1784148253.599437,0.002501031,-0.048144978,-0.260828048,-0.000906969,-0.000445559,0.000590961,0.486223370,0.006020907,9.795486450
1784148253.601435,0.002500260,-0.048145924,-0.260828048,-0.000849349,-0.000776452,0.000656074,0.456208587,0.048024546,9.802452087
1784148253.603457,0.002500260,-0.048145924,-0.260828048,-0.000495712,-0.000712334,0.000290511,0.469012886,0.067189492,9.793620110
1784148253.605442,0.002500260,-0.048145924,-0.260828048,-0.000125023,-0.000270086,-0.000099777,0.466049314,0.008039676,9.799962997
1784148253.607468,0.002500394,-0.048145857,-0.260828048,-0.000104646,0.000361097,-0.000436928,0.461792380,0.026123710,9.784832001
1784148253.609452,0.002500394,-0.048145857,-0.260828048,0.000000528,0.000907274,-0.000248671,0.455416977,0.056166116,9.793088913
1784148253.611454,0.002502011,-0.048144970,-0.260828048,0.000428678,0.000540641,0.000661000,0.467698783,0.032301363,9.787566185
1784148253.613449,0.002502011,-0.048144970,-0.260828048,0.001023615,-0.000375477,0.000995586,0.459355891,0.046008412,9.765229225
1784148253.615453,0.002502011,-0.048144970,-0.260828048,0.001537160,-0.000446208,0.000665122,0.474793643,0.026274586,9.803227425
1784148253.617445,0.002502803,-0.048144966,-0.260828048,0.001446862,0.000064252,0.000589242,0.480302215,0.034075305,9.767415047
1784148253.619452,0.002502803,-0.048144966,-0.260828048,0.000767512,0.000480612,0.000226357,0.472502142,0.021061342,9.784361839
1784148253.621457,0.002502341,-0.048144992,-0.260828048,0.000017728,0.000537121,-0.000436922,0.456284046,0.017109478,9.802252769
1784148253.623455,0.002502341,-0.048144992,-0.260828048,-0.000115820,0.000320741,-0.000740374,0.476728410,0.038298842,9.810030937
1784148253.625465,0.002502341,-0.048144992,-0.260828048,0.000658790,0.000601698,-0.000632674,0.467232883,0.030550238,9.782623291
1784148253.627456,0.002502814,-0.048144482,-0.260828048,0.001137474,0.001362060,-0.000027754,0.469778746,0.017607542,9.770886421
1784148253.629470,0.002502814,-0.048144482,-0.260828048,0.000093280,0.001876445,0.000500750,0.456406564,0.025776539,9.780340195
1784148253.631465,0.002502702,-0.048143834,-0.260828048,-0.001444313,0.002103308,-0.000054992,0.477179199,0.037498921,9.795679092
1784148253.633470,0.002502702,-0.048143834,-0.260828048,-0.001409802,0.001987356,-0.000658147,0.471817732,0.037749149,9.770121574
1784148253.635482,0.002502702,-0.048143834,-0.260828048,-0.000464981,0.001869436,-0.000193674,0.469073147,0.034533452,9.786237717
1784148253.637474,0.002503543,-0.048143841,-0.260828048,-0.000317250,0.001969021,0.000199020,0.494121701,0.026294459,9.765585899
1784148253.639475,0.002503543,-0.048143841,-0.260828048,-0.000805030,0.002016085,-0.000183912,0.484599918,0.019149248,9.779428482
1784148253.641480,0.002503472,-0.048145335,-0.260828048,-0.000948880,0.001579114,-0.000302697,0.464484781,0.026495846,9.790666580
1784148253.643475,0.002503472,-0.048145335,-0.260828048,-0.000284104,0.000532408,-0.000374014,0.453602970,0.018853152,9.813919067
1784148253.645476,0.002503472,-0.048145335,-0.260828048,0.000016810,-0.000532233,-0.000734823,0.452724725,0.019420709,9.798678398
1784148253.647474,0.002503925,-0.048143692,-0.260828078,-0.000377419,-0.001157979,-0.000871446,0.484575272,0.016928520,9.776725769
1784148253.649479,0.002503925,-0.048143692,-0.260828078,-0.000332685,-0.000970765,-0.000750242,0.474484980,-0.000072448,9.791399956
1784148253.651482,0.002502621,-0.048144277,-0.260828048,-0.000262835,-0.000744455,-0.000715542,0.490001500,0.021647198,9.796487808
1784148253.653559,0.002502621,-0.048144277,-0.260828048,-0.000393542,-0.000737191,-0.001088570,0.470805973,0.030373873,9.801007271
1784148253.655498,0.002502621,-0.048144277,-0.260828048,-0.000197433,-0.000572272,-0.001485327,0.443217814,0.012393144,9.795933723
1784148253.657488,0.002503133,-0.048142467,-0.260828108,0.000520264,-0.000765310,-0.001612725,0.464741200,0.049999304,9.824441910
1784148253.659491,0.002503133,-0.048142467,-0.260828108,0.001181925,-0.001307290,-0.001075736,0.492265671,0.022997307,9.791566849
1784148253.661493,0.002502336,-0.048142850,-0.260828078,0.000940979,-0.001588761,-0.000287922,0.471039057,0.048829313,9.788572311
1784148253.663487,0.002502336,-0.048142850,-0.260828078,0.000554697,-0.001285678,-0.000018393,0.473762959,0.051476218,9.789489746
1784148253.665493,0.002502336,-0.048142850,-0.260828078,0.000586298,-0.000616288,-0.000143979,0.465587944,0.043103419,9.784495354
1784148253.667502,0.002502623,-0.048142716,-0.260828078,0.000625426,-0.000256362,0.000016571,0.467820525,0.040962063,9.766551971
1784148253.669499,0.002502623,-0.048142716,-0.260828078,0.000449795,-0.000477937,0.000130511,0.476069331,0.056807116,9.791767120
1784148253.671496,0.002504626,-0.048143160,-0.260828078,-0.000075393,-0.000756304,-0.000563995,0.467340142,0.038286403,9.765637398
1784148253.673503,0.002504626,-0.048143160,-0.260828078,-0.000344986,-0.000441211,-0.000597524,0.461055845,0.039157882,9.780431747
1784148253.675507,0.002504626,-0.048143160,-0.260828078,-0.000427275,0.000361525,-0.000365849,0.480012715,0.011121180,9.782511711
1784148253.677505,0.002504983,-0.048143622,-0.260828048,-0.000925195,0.000450597,-0.000778192,0.497505575,0.008819317,9.759648323
1784148253.679502,0.002504983,-0.048143622,-0.260828048,-0.000949379,0.000166640,-0.000556483,0.473973632,0.031760182,9.789361954
1784148253.681504,0.002506409,-0.048143700,-0.260828048,-0.000148080,0.000542156,0.000060871,0.481017381,0.056435816,9.772043228
1784148253.683509,0.002506409,-0.048143700,-0.260828048,0.000668263,0.000596996,0.000545861,0.484081089,0.012928052,9.773112297
1784148253.685513,0.002506409,-0.048143700,-0.260828048,0.000965725,-0.000220268,0.000316266,0.467279583,0.034565993,9.784890175
1784148253.687515,0.002507812,-0.048143353,-0.260828048,0.000621878,-0.000844816,0.000021592,0.440354466,0.034482054,9.782175064
1784148253.689517,0.002507812,-0.048143353,-0.260828048,0.000287206,-0.000635460,0.000225684,0.454819918,0.043247767,9.783590317
1784148253.691559,0.002507486,-0.048142724,-0.260828048,0.000408628,-0.000197569,0.000159912,0.471870571,0.005439321,9.777088165
1784148253.693514,0.002507486,-0.048142724,-0.260828048,-0.000048677,-0.000161336,0.000217865,0.483263910,0.021272756,9.798271179
1784148253.695519,0.002507486,-0.048142724,-0.260828048,-0.000613990,0.000084881,0.000044318,0.472713888,0.000948219,9.777059555
1784148253.697564,0.002506521,-0.048142757,-0.260828048,-0.000224537,0.000602905,-0.000945436,0.458209425,-0.011772831,9.764859200
1784148253.699529,0.002506521,-0.048142757,-0.260828048,0.000594342,0.000343542,-0.001506692,0.450884551,0.016654197,9.813004494
1784148253.701534,0.002505882,-0.048141509,-0.260828048,0.000878962,-0.000046227,-0.000906275,0.465166122,0.044132281,9.766569138
1784148253.703531,0.002505882,-0.048141509,-0.260828048,0.000639452,0.000265302,0.000075285,0.472906351,0.052215494,9.750040054
1784148253.705534,0.002505882,-0.048141509,-0.260828048,0.000408330,0.000259200,0.000734797,0.491784573,0.057095189,9.785955429
1784148253.707556,0.002508552,-0.048142862,-0.260828078,0.000521717,-0.000520035,0.000850339,0.497734666,0.029269723,9.781747818
1784148253.709543,0.002508552,-0.048142862,-0.260828078,0.000929746,-0.001126211,0.000772347,0.483281761,0.022629356,9.796487808
1784148253.711541,0.002508307,-0.048142336,-0.260828078,0.001286471,-0.001100024,0.000646024,0.456742555,0.053149864,9.773791313
1784148253.713551,0.002508307,-0.048142336,-0.260828078,0.001330280,-0.001093848,0.000102288,0.463920772,0.053454965,9.780973434
1784148253.715539,0.002508307,-0.048142336,-0.260828078,0.000692590,-0.001206353,-0.000584362,0.479680359,0.021366442,9.791543007
1784148253.717545,0.002508243,-0.048143048,-0.260828078,0.000107158,-0.000747476,-0.001009551,0.475931883,0.042348716,9.745944023
1784148253.719586,0.002508243,-0.048143048,-0.260828078,0.000029142,0.000173265,-0.000701715,0.459296376,0.041080832,9.765199661
1784148253.721553,0.002508613,-0.048142418,-0.260828048,0.000132288,0.000765313,0.000334688,0.483771592,0.024974700,9.780810356
1784148253.723549,0.002508613,-0.048142418,-0.260828048,0.000260650,0.001035928,0.000782006,0.480437309,0.009304508,9.785190582
1784148253.725553,0.002508613,-0.048142418,-0.260828048,0.000374757,0.001309271,0.000386257,0.470978051,0.004678909,9.759596825
1784148253.727548,0.002507626,-0.048142578,-0.260828048,0.000529486,0.001383292,-0.000173403,0.454504818,0.016039787,9.766827583
1784148253.729562,0.002507626,-0.048142578,-0.260828048,0.000420484,0.001112411,-0.000059769,0.486411244,0.021283381,9.791101456
1784148253.731552,0.002507470,-0.048143215,-0.260828048,0.000121022,0.000857032,0.001069345,0.502569020,0.020301318,9.774073601
1784148253.733561,0.002507470,-0.048143215,-0.260828048,-0.000022865,0.000815180,0.001730347,0.473637134,0.041567024,9.797046661
1784148253.735554,0.002507470,-0.048143215,-0.260828048,-0.000362602,0.000594988,0.001271756,0.444313526,0.064100057,9.768469810
1784148253.737556,0.002509233,-0.048142720,-0.260828048,-0.000938598,0.000045240,0.000429536,0.482318163,0.052818984,9.774263382
1784148253.739554,0.002509233,-0.048142720,-0.260828048,-0.000901932,0.000000815,-0.000343771,0.497514486,0.048506007,9.786354065
1784148253.741578,0.002509983,-0.048143733,-0.260828048,0.000069947,0.000583694,-0.000162063,0.487084061,0.002883221,9.794122696
1784148253.743562,0.002509983,-0.048143733,-0.260828048,0.000828222,0.000770131,0.000564772,0.457911313,0.001579546,9.777944565
1784148253.745569,0.002509983,-0.048143733,-0.260828048,0.000475050,0.000666601,0.000622145,0.468481958,0.021256173,9.764183998
1784148253.747563,0.002508714,-0.048143562,-0.260828048,-0.000233045,0.000669035,0.000501191,0.471710771,0.028799467,9.768718719
1784148253.749560,0.002508714,-0.048143562,-0.260828048,-0.000388122,0.000629813,0.000593940,0.432674974,0.031335950,9.797390938
1784148253.751565,0.002509236,-0.048141919,-0.260828048,-0.000158191,0.000420982,0.000101442,0.459215373,0.035578120,9.783096313
1784148253.753571,0.002509236,-0.048141919,-0.260828048,0.000425636,0.000283137,-0.000382960,0.461485445,0.038596064,9.795671463
1784148253.755580,0.002509236,-0.048141919,-0.260828048,0.001447844,0.000299509,-0.000282947,0.491848916,0.024470948,9.774089813
1784148253.757606,0.002509846,-0.048142713,-0.260828048,0.002549830,-0.000000839,0.000185879,0.492127001,0.012176289,9.801360130
1784148253.759578,0.002509846,-0.048142713,-0.260828048,0.002879387,-0.000397627,0.001031121,0.509291053,0.058548339,9.802122116
1784148253.761572,0.002511710,-0.048144098,-0.260828048,0.002559357,-0.000749764,0.001176282,0.459320903,0.044111639,9.780013084
1784148253.763579,0.002511710,-0.048144098,-0.260828048,0.002056288,-0.001000172,0.000758134,0.471811354,0.039725043,9.807345390
1784148253.765581,0.002511710,-0.048144098,-0.260828048,0.001169732,-0.000798668,0.000400674,0.459588826,0.031330854,9.812659264
1784148253.767580,0.002511648,-0.048143230,-0.260828048,0.000453821,-0.000505354,-0.000147856,0.463505983,0.020191375,9.796899796
1784148253.769574,0.002511648,-0.048143230,-0.260828048,0.000544474,-0.000584717,-0.000800839,0.466474950,0.042199180,9.784043312
1784148253.771580,0.002512862,-0.048142612,-0.260828048,0.000827291,-0.000610309,-0.001041333,0.481110513,0.026470724,9.764229774
1784148253.773578,0.002512862,-0.048142612,-0.260828048,0.000312310,-0.000265622,-0.000493580,0.464878261,0.021190878,9.779871941
1784148253.775581,0.002512862,-0.048142612,-0.260828048,-0.000098052,0.000023296,-0.000329066,0.498036921,0.017165847,9.782119751
1784148253.777581,0.002513636,-0.048143577,-0.260828048,0.000326376,0.000068957,-0.001021319,0.485295951,0.002553649,9.780667305
1784148253.779587,0.002513636,-0.048143577,-0.260828048,0.000887764,0.000167182,-0.000820835,0.485080570,0.022638159,9.792004585
1784148253.781590,0.002513054,-0.048144460,-0.260828018,0.001277130,0.000235074,-0.000043023,0.458997726,0.018460201,9.796438217
1784148253.783586,0.002513054,-0.048144460,-0.260828018,0.001107846,0.000076968,-0.000055929,0.466791898,0.032643177,9.804156303
1784148253.785592,0.002513054,-0.048144460,-0.260828018,0.000569179,-0.000067516,-0.000427191,0.454750419,0.039457399,9.812706947
1784148253.787611,0.002513448,-0.048143998,-0.260828018,0.000554655,-0.000321393,-0.000607619,0.443443209,0.030788178,9.792017937
1784148253.789604,0.002513448,-0.048143998,-0.260828018,0.000868306,-0.000460376,0.000001836,0.459051609,0.058096383,9.767100334
1784148253.791595,0.002514795,-0.048143245,-0.260828018,0.000449646,-0.000177659,0.000609395,0.479622155,0.052418225,9.772463799
1784148253.793606,0.002514795,-0.048143245,-0.260828018,-0.000482787,0.000363698,0.000294691,0.438698500,0.047759466,9.808261871
1784148253.795606,0.002514795,-0.048143245,-0.260828018,-0.000548289,0.000661568,0.000047818,0.457174212,0.051793877,9.774680138
1784148253.797618,0.002515783,-0.048141737,-0.260828018,-0.000098321,0.000186350,0.000334255,0.490996510,0.028485477,9.778151512
1784148253.799601,0.002515783,-0.048141737,-0.260828018,0.000043873,-0.000555151,0.000757045,0.450738817,0.038098857,9.758894920
1784148253.801635,0.002516739,-0.048140615,-0.260828018,0.000098985,-0.000625053,0.000778758,0.465081930,0.035767280,9.745892525
1784148253.803609,0.002516739,-0.048140615,-0.260828018,-0.000087967,-0.000058234,0.000256102,0.470717192,0.023594048,9.809482574
1784148253.805612,0.002516739,-0.048140615,-0.260828018,0.000066477,0.000407544,-0.000448824,0.454324365,0.038831137,9.775490761
1784148253.807613,0.002517153,-0.048139937,-0.260827988,0.000840580,0.000038421,-0.001073561,0.479636192,0.018586470,9.804526329
1784148253.809611,0.002517153,-0.048139937,-0.260827988,0.000748732,-0.000603497,-0.001188812,0.495130986,-0.001102471,9.773032188
1784148253.811621,0.002515949,-0.048141137,-0.260827988,0.000414983,-0.000619599,-0.001054058,0.491753072,0.017230436,9.784355164
1784148253.813629,0.002515949,-0.048141137,-0.260827988,0.000586029,-0.000780010,-0.000919957,0.506165445,0.021929512,9.790675163
1784148253.815627,0.002515949,-0.048141137,-0.260827988,0.000365784,-0.001036590,-0.000913851,0.470304817,0.023075892,9.757023811
1784148253.817644,0.002515868,-0.048141528,-0.260828018,0.000300327,-0.000792771,-0.000870749,0.466119856,0.010622880,9.751560211
1784148253.819631,0.002515868,-0.048141528,-0.260828018,0.000868290,-0.000479345,-0.000584890,0.474586427,0.044802543,9.781377792
1784148253.821628,0.002516799,-0.048141345,-0.260828018,0.001279447,-0.000502647,-0.000432205,0.484697044,0.027615992,9.785759926
1784148253.823624,0.002516799,-0.048141345,-0.260828018,0.001124214,-0.000731815,-0.000142363,0.470970154,0.042611916,9.780911446
1784148253.825633,0.002516799,-0.048141345,-0.260828018,0.000502869,-0.000968488,0.000591090,0.449845403,0.040978990,9.796573639
1784148253.827630,0.002517565,-0.048140880,-0.260828018,-0.000240172,-0.001175651,0.001431629,0.440882534,0.042803150,9.808231354
1784148253.829655,0.002517565,-0.048140880,-0.260828018,-0.000525389,-0.001129234,0.001702475,0.468979627,0.026905391,9.787980080
1784148253.831635,0.002517452,-0.048141152,-0.260828018,-0.000494407,-0.000878461,0.001323713,0.463752508,0.041995205,9.817663193
1784148253.833659,0.002517452,-0.048141152,-0.260828018,-0.000272877,-0.000732703,0.000849330,0.477990329,0.029916598,9.789354324
1784148253.835646,0.002517452,-0.048141152,-0.260828018,0.000430430,-0.000651026,0.000612782,0.484682381,0.026284823,9.783958435
1784148253.837642,0.002517314,-0.048142020,-0.260827988,0.001071567,-0.000324697,0.000730979,0.465337723,0.022081049,9.779878616
1784148253.839644,0.002517314,-0.048142020,-0.260827988,0.000544307,-0.000041136,0.000960175,0.472460210,0.018703887,9.800934792
1784148253.841650,0.002517455,-0.048142057,-0.260827988,-0.000418591,0.000031004,0.000583919,0.467177808,0.029304553,9.831933022
1784148253.843644,0.002517455,-0.048142057,-0.260827988,-0.000671685,-0.000298044,0.000109837,0.452619374,0.009673678,9.783371925
1784148253.845648,0.002517455,-0.048142057,-0.260827988,-0.000480990,-0.000868548,0.000214521,0.454681575,0.030403152,9.762885094
1784148253.847654,0.002517077,-0.048141051,-0.260828018,-0.000174246,-0.000817874,0.000275595,0.483918071,0.037072826,9.780439377
1784148253.849650,0.002517077,-0.048141051,-0.260828018,0.000269244,-0.000565459,0.000014756,0.482733786,0.012935761,9.774456024
1784148253.851646,0.002516942,-0.048141599,-0.260828048,0.000300563,-0.000647312,-0.000357724,0.485584289,0.028335076,9.809079170
1784148253.853657,0.002516942,-0.048141599,-0.260828048,-0.000130232,-0.000758705,-0.000196838,0.469935983,0.030601589,9.770522118
1784148253.855662,0.002516942,-0.048141599,-0.260828048,-0.000244132,-0.000576781,0.000698377,0.474505872,0.038492937,9.786716461
1784148253.857658,0.002517235,-0.048142005,-0.260828018,-0.000070271,-0.000087479,0.001425135,0.457683682,0.021162037,9.796900749
1784148253.859652,0.002517235,-0.048142005,-0.260828018,0.000202623,0.000376498,0.001774883,0.449485511,0.010174605,9.781579018
1784148253.861656,0.002517159,-0.048141275,-0.260828018,0.000452999,0.000409617,0.001757278,0.447331160,0.017796433,9.784764290
1784148253.863657,0.002517159,-0.048141275,-0.260828018,0.000290785,0.000277128,0.001472255,0.476285905,0.036732145,9.779085159
1784148253.865659,0.002517159,-0.048141275,-0.260828018,-0.000187351,0.000451160,0.001807109,0.474135816,0.043172248,9.759397507
1784148253.867657,0.002516886,-0.048141513,-0.260828048,-0.000716507,0.000649784,0.002394144,0.459944576,0.020459944,9.765516281
1784148253.869663,0.002516886,-0.048141513,-0.260828048,-0.000996089,0.000384227,0.002025395,0.476356953,0.040535226,9.748174667
1784148253.871661,0.002517502,-0.048141822,-0.260827988,-0.000804137,-0.000098937,0.001340589,0.476384193,0.010455302,9.819715500
1784148253.873667,0.002517502,-0.048141822,-0.260827988,-0.000536534,-0.000274184,0.001149783,0.464143783,0.036267705,9.803281784
1784148253.875669,0.002517502,-0.048141822,-0.260827988,-0.000393443,-0.000220192,0.000831194,0.482017785,0.028968934,9.789352417
1784148253.877724,0.002517231,-0.048142079,-0.260828018,-0.000344156,-0.000234596,0.000652875,0.474256217,0.056280393,9.806108475
1784148253.879674,0.002517231,-0.048142079,-0.260828018,-0.000398042,-0.000172567,0.000595439,0.489246041,0.031695079,9.770995140
1784148253.881676,0.002517438,-0.048142646,-0.260827988,-0.000433961,0.000196127,0.000627613,0.467006713,0.012148852,9.787436485
1784148253.883682,0.002517438,-0.048142646,-0.260827988,-0.000277865,0.000711530,0.001176219,0.475069404,0.010313939,9.778914452
1784148253.885685,0.002517438,-0.048142646,-0.260827988,0.000161605,0.001031810,0.001196994,0.475871921,0.039038111,9.770581245
1784148253.887687,0.002517790,-0.048142657,-0.260827988,0.000896498,0.001047878,0.000688075,0.492905170,0.039492995,9.801984787
1784148253.889682,0.002517790,-0.048142657,-0.260827988,0.001065984,0.000702549,0.000477228,0.489014506,0.014062434,9.793747902
1784148253.891686,0.002517891,-0.048143402,-0.260827988,0.000607860,0.000186930,0.000375389,0.470296055,0.025032712,9.796937943
1784148253.893682,0.002517891,-0.048143402,-0.260827988,0.000600934,-0.000013663,0.000537368,0.475619346,0.056803316,9.793112755
1784148253.895689,0.002517891,-0.048143402,-0.260827988,0.000849520,-0.000126198,0.000601803,0.478416473,0.064485915,9.778817177
1784148253.897690,0.002519230,-0.048144035,-0.260827988,0.000577504,-0.000346180,0.000466736,0.466674864,0.020777147,9.771800995
1784148253.899695,0.002519230,-0.048144035,-0.260827988,0.000033300,-0.000666688,0.000691831,0.464803398,0.016142480,9.796875000
1784148253.901695,0.002519052,-0.048143622,-0.260827988,-0.000273487,-0.000938025,0.001000157,0.485094726,0.022749441,9.776314735
1784148253.903693,0.002519052,-0.048143622,-0.260827988,-0.000346275,-0.000736796,0.000487106,0.459950566,0.021317711,9.770901680
1784148253.905697,0.002519052,-0.048143622,-0.260827988,-0.000232512,-0.000301579,-0.000281912,0.444084793,0.009709781,9.793676376
1784148253.907698,0.002518271,-0.048142709,-0.260828018,-0.000368023,0.000049177,-0.000084117,0.447760165,0.016824806,9.794622421
1784148253.909697,0.002518271,-0.048142709,-0.260828018,-0.000705415,0.000087962,0.000599942,0.478519529,-0.001369511,9.777498245
1784148253.911703,0.002516758,-0.048143674,-0.260828018,-0.000825531,-0.000079920,0.000573876,0.463057876,0.020606929,9.802282333
1784148253.913702,0.002516758,-0.048143674,-0.260828018,-0.000912513,-0.000270903,0.000012951,0.463077664,0.057542633,9.774723053
1784148253.915706,0.002516758,-0.048143674,-0.260828018,-0.000944204,-0.000754351,-0.000072612,0.481575906,0.029838806,9.793841362
1784148253.917706,0.002517422,-0.048143692,-0.260828048,-0.000696988,-0.001234229,-0.000333796,0.487515807,0.039117206,9.801527977
1784148253.919705,0.002517422,-0.048143692,-0.260828048,-0.000275471,-0.001062559,-0.000827659,0.468612045,0.033630569,9.788024902
1784148253.921709,0.002517552,-0.048143022,-0.260828018,0.000179200,-0.000598988,-0.000878431,0.463546842,0.023755988,9.799612999
1784148253.923710,0.002517552,-0.048143022,-0.260828018,-0.000141474,-0.000291911,-0.000645848,0.455305874,0.008377977,9.771709442
1784148253.925711,0.002517552,-0.048143022,-0.260828018,-0.000570900,0.000204223,-0.000529362,0.474530995,0.002316798,9.770344734
1784148253.927715,0.002515537,-0.048143145,-0.260828048,0.000128213,0.000430959,-0.000804682,0.496437877,0.032918356,9.775044441
1784148253.929714,0.002515537,-0.048143145,-0.260828048,0.000395631,0.000056221,-0.000593450,0.499484867,0.062026769,9.771648407
1784148253.931717,0.002518566,-0.048144069,-0.260828048,0.000070237,0.000166820,-0.000438260,0.467500716,0.053332653,9.791737556
1784148253.933720,0.002518566,-0.048144069,-0.260828048,0.000651594,0.000583427,-0.000791380,0.463922590,0.053064238,9.772901535
1784148253.935728,0.002518566,-0.048144069,-0.260828048,0.001269343,0.000522961,-0.000743462,0.493868560,0.044459935,9.794843674
1784148253.937723,0.002520200,-0.048145410,-0.260828048,0.001086893,0.000556511,-0.000510557,0.478582203,0.041983545,9.792571068
1784148253.939723,0.002520200,-0.048145410,-0.260828048,0.000792412,0.000743137,-0.000087517,0.477869540,0.019642115,9.785252571
1784148253.941723,0.002520002,-0.048145797,-0.260828048,0.000792911,0.000679336,0.000129634,0.457078874,0.008993344,9.808031082
1784148253.943722,0.002520002,-0.048145797,-0.260828048,0.000464274,0.000224747,-0.000094059,0.471422136,0.004231564,9.758696556
1784148253.945732,0.002520002,-0.048145797,-0.260828048,-0.000262840,-0.000170054,-0.000763597,0.450700074,0.035766844,9.771881104
1784148253.947730,0.002519328,-0.048144110,-0.260828048,-0.000520608,-0.000423710,-0.001395141,0.488001972,0.041433919,9.789886475
1784148253.949728,0.002519328,-0.048144110,-0.260828048,-0.000671238,-0.000396338,-0.001294368,0.508159101,0.038471546,9.792128563
1784148253.951732,0.002520735,-0.048146360,-0.260828048,-0.001084159,0.000022522,-0.001165059,0.476812065,0.043417189,9.783164024
1784148253.953746,0.002520735,-0.048146360,-0.260828048,-0.000930102,0.000522624,-0.001375931,0.460548848,0.034245607,9.779053688
1784148253.955755,0.002520735,-0.048146360,-0.260828048,-0.000190469,0.000411425,-0.001404838,0.455836594,0.017124770,9.800908089
1784148253.957775,0.002520223,-0.048144836,-0.260828078,0.000415421,-0.000173730,-0.001518859,0.460882902,0.026039829,9.798280716
1784148253.959744,0.002520223,-0.048144836,-0.260828078,0.000588519,-0.000344684,-0.001673132,0.462548673,0.015272120,9.797315598
1784148253.961744,0.002519681,-0.048145071,-0.260828078,-0.000077666,-0.000137469,-0.001658567,0.463670462,0.034052726,9.800575256
1784148253.963741,0.002519681,-0.048145071,-0.260828078,-0.000687495,0.000195041,-0.001683246,0.455304235,0.043928452,9.749970436
1784148253.965745,0.002519681,-0.048145071,-0.260828078,-0.000825896,0.000377651,-0.001321982,0.453925490,0.043688148,9.786281586
1784148253.967750,0.002520432,-0.048143733,-0.260828078,-0.001018678,0.000437684,-0.000734426,0.481490225,0.059457686,9.787306786
1784148253.969742,0.002520432,-0.048143733,-0.260828078,-0.001127139,0.000102868,-0.000272352,0.478488475,0.033948861,9.788484573
1784148253.971751,0.002520629,-0.048143312,-0.260828078,-0.001007213,-0.000195524,-0.000206501,0.460314691,0.017807396,9.822884560
1784148253.973746,0.002520629,-0.048143312,-0.260828078,-0.000610222,-0.000322922,-0.000699090,0.467357069,0.006503659,9.824613571
1784148253.975753,0.002520629,-0.048143312,-0.260828078,-0.000322297,-0.000506487,-0.000932081,0.478037030,0.033122279,9.779511452
1784148253.977749,0.002520629,-0.048143312,-0.260828078,-0.000220484,-0.000515156,-0.000758302,0.478037030,0.033122279,9.779511452
1784148253.979755,0.002520264,-0.048143219,-0.260828078,0.000074969,-0.000057761,-0.000321891,0.455595613,0.034575567,9.804606438
1784148253.981755,0.002520264,-0.048143219,-0.260828078,0.000511485,0.000739159,0.000305846,0.455595613,0.034575567,9.804606438
1784148253.983757,0.002520550,-0.048143037,-0.260828078,0.000446548,0.000947955,0.000417482,0.468742073,0.006388216,9.775297165
1784148253.985761,0.002520805,-0.048143812,-0.260828078,0.000217801,0.000995351,0.000281314,0.472728193,0.038246028,9.761607170
1784148253.987760,0.002520805,-0.048143812,-0.260828078,0.000287880,0.001241655,0.000454451,0.467431307,0.045895379,9.766582489
1784148253.989767,0.002520805,-0.048143812,-0.260828078,0.000374158,0.001365822,0.000724741,0.467431307,0.045895379,9.766582489
1784148253.991838,0.002521564,-0.048143469,-0.260828108,0.000346788,0.001457692,0.000849302,0.457704067,0.022944342,9.798257828
1784148253.993785,0.002521564,-0.048143469,-0.260828108,0.000363228,0.001454776,0.000524521,0.449261963,0.028978821,9.783942223
1784148253.995809,0.002521342,-0.048142482,-0.260828108,0.000083962,0.001293246,0.000376829,0.471769363,0.035340823,9.793867111
1784148253.997781,0.002521342,-0.048142482,-0.260828108,-0.000156115,0.001139748,0.000305083,0.486978412,0.030722976,9.785781860
1784148253.999772,0.002522016,-0.048143011,-0.260828108,0.000390583,0.000893598,0.000343474,0.516421974,0.017647989,9.807245255
1784148254.001779,0.002522016,-0.048143011,-0.260828108,0.000859777,0.000639969,0.000623865,0.488476843,0.004854955,9.766340256
1784148254.003776,0.002522016,-0.048143011,-0.260828108,0.000822676,0.000373720,0.000104999,0.473439425,0.024201464,9.782140732
1784148254.005786,0.002521930,-0.048143037,-0.260828108,0.000699425,-0.000376624,-0.000366501,0.490361720,0.012838030,9.774461746
1784148254.007776,0.002521930,-0.048143037,-0.260828108,0.000388718,-0.001088497,0.000209386,0.435217500,0.019177897,9.801349640
1784148254.009786,0.002521890,-0.048141569,-0.260828108,-0.000174057,-0.000832817,0.001174248,0.440758914,0.068069600,9.783735275
1784148254.011783,0.002521890,-0.048141569,-0.260828108,-0.000327282,-0.000360008,0.001662522,0.484012872,0.046737190,9.807402611
1784148254.013787,0.002521890,-0.048141569,-0.260828108,0.000082388,-0.000396410,0.001565636,0.500536203,0.039014064,9.792572975
1784148254.015788,0.002522958,-0.048142895,-0.260828108,0.000525746,-0.000441273,0.001296613,0.487913251,0.031007184,9.744089127
1784148254.017786,0.002522958,-0.048142895,-0.260828108,0.000887808,-0.000099381,0.001590181,0.457693964,0.058428045,9.785932541
1784148254.019787,0.002524770,-0.048142012,-0.260828137,0.001122663,0.000851078,0.001952319,0.489606321,0.063312717,9.797649384
1784148254.021788,0.002524770,-0.048142012,-0.260828137,0.000771928,0.001555413,0.001186416,0.473830551,0.020094113,9.791978836
1784148254.023790,0.002524770,-0.048142012,-0.260828137,0.000617859,0.001331889,0.000227381,0.461902678,-0.001274429,9.794071198
1784148254.025793,0.002523588,-0.048140470,-0.260828108,0.001206575,0.000888409,0.000033736,0.497122616,0.014206964,9.758786201
1784148254.027797,0.002523588,-0.048140470,-0.260828108,0.001385045,0.000837474,-0.000015956,0.480739743,0.033170458,9.767857552
1784148254.029792,0.002524157,-0.048140589,-0.260828108,0.000685405,0.000919411,-0.000395795,0.484788209,0.035224967,9.786705971
1784148254.031796,0.002524157,-0.048140589,-0.260828108,0.000011323,0.000731542,-0.001107388,0.458127171,0.020304879,9.790619850
1784148254.033797,0.002524157,-0.048140589,-0.260828108,0.000114062,0.000371072,-0.001427508,0.470992178,0.007627043,9.786066055
1784148254.035807,0.002524341,-0.048139762,-0.260828108,0.000568895,0.000227713,-0.001226201,0.473123521,-0.002202794,9.778383255
1784148254.037810,0.002524341,-0.048139762,-0.260828108,0.001062383,0.000225098,-0.000356654,0.462403208,0.003586977,9.802621841
1784148254.039801,0.002523635,-0.048139296,-0.260828108,0.001306819,-0.000212417,0.001068473,0.452695131,0.015945135,9.783413887
1784148254.041803,0.002523635,-0.048139296,-0.260828108,0.001122047,-0.000740453,0.001653624,0.467620969,0.026824078,9.801878929
1784148254.043810,0.002523635,-0.048139296,-0.260828108,0.000706301,-0.000558803,0.001216123,0.464742839,0.047175188,9.780486107
1784148254.045807,0.002524825,-0.048138648,-0.260828108,0.000174404,0.000098860,0.000755556,0.477859974,0.055535629,9.778310776
1784148254.047814,0.002524825,-0.048138648,-0.260828108,0.000397566,0.000333513,0.001051459,0.448581815,0.048131824,9.801100731
1784148254.049810,0.002525242,-0.048137043,-0.260828137,0.001154653,0.000370169,0.001574099,0.456956714,0.033055823,9.763799667
1784148254.051812,0.002525242,-0.048137043,-0.260828137,0.001293913,0.000620408,0.001449976,0.485721827,0.038336486,9.788518906
1784148254.053822,0.002525242,-0.048137043,-0.260828137,0.000888146,0.000665618,0.001123311,0.488884240,0.038871381,9.770592690
1784148254.055816,0.002526004,-0.048138347,-0.260828108,0.000700485,0.000643502,0.000867152,0.487107784,0.041470863,9.786299706
1784148254.057816,0.002526004,-0.048138347,-0.260828108,0.000747019,0.000719174,0.000067583,0.489894211,0.048664156,9.777831078
1784148254.059819,0.002526707,-0.048139337,-0.260828108,0.000509299,0.000636113,-0.000985443,0.506288648,0.028576169,9.737815857
1784148254.061821,0.002526707,-0.048139337,-0.260828108,-0.000048939,0.000163450,-0.001376381,0.481596768,-0.006775746,9.776121140
1784148254.063823,0.002526707,-0.048139337,-0.260828108,-0.000293353,-0.000131288,-0.001227398,0.442187160,0.002031592,9.805728912
1784148254.065825,0.002525065,-0.048138313,-0.260828108,-0.000033366,0.000027369,-0.001134141,0.466043293,0.007991980,9.806687355
1784148254.067822,0.002525065,-0.048138313,-0.260828108,-0.000097988,0.000073359,-0.001012840,0.466787964,0.031801302,9.796529770
1784148254.069840,0.002525284,-0.048138339,-0.260828108,-0.000345044,0.000053693,-0.000708466,0.465707541,0.052558303,9.777831078
1784148254.071838,0.002525284,-0.048138339,-0.260828108,-0.000106053,0.000235386,-0.000900166,0.479333818,0.029473651,9.786214828
1784148254.073833,0.002525284,-0.048138339,-0.260828108,0.000339065,0.000364382,-0.000967199,0.485740423,0.040509515,9.797947884
1784148254.075836,0.002525670,-0.048139110,-0.260828078,0.000590164,0.000509488,-0.000420153,0.482733101,0.051736068,9.799811363
1784148254.077832,0.002525670,-0.048139110,-0.260828078,0.000916813,0.000471313,-0.000292986,0.474727124,0.020886330,9.804986000
1784148254.079833,0.002525243,-0.048139326,-0.260828108,0.001152392,0.000192425,-0.000346164,0.470795304,0.027857808,9.776781082
1784148254.081833,0.002525243,-0.048139326,-0.260828108,0.000891162,0.000224152,0.000229479,0.469222218,0.009467320,9.782490730
1784148254.083833,0.002525243,-0.048139326,-0.260828108,0.000502855,0.000286616,0.000450164,0.465667009,0.050617017,9.798890114
1784148254.085838,0.002526559,-0.048139565,-0.260828108,0.000346450,0.000155523,-0.000166080,0.452485114,0.037287679,9.806862831
1784148254.087843,0.002526559,-0.048139565,-0.260828108,0.000430863,0.000056557,-0.000398090,0.482273966,0.013259108,9.792838097
1784148254.089842,0.002525850,-0.048140608,-0.260828078,0.000674448,0.000125826,-0.000457719,0.467908472,0.048545603,9.771083832
1784148254.091843,0.002525850,-0.048140608,-0.260828078,0.000998480,0.000424704,-0.000174608,0.474311382,0.059552852,9.786850929
1784148254.093842,0.002525850,-0.048140608,-0.260828078,0.000656599,0.000790224,0.000428680,0.474794388,0.024254180,9.772278786
1784148254.095847,0.002525843,-0.048140015,-0.260828078,-0.000222653,0.001157388,0.000199812,0.470674694,0.017989947,9.778512001
1784148254.097849,0.002525843,-0.048140015,-0.260828078,-0.000430138,0.001242969,-0.000418536,0.457205892,0.018912086,9.799127579
1784148254.099890,0.002525352,-0.048139367,-0.260828108,-0.000331777,0.001083423,-0.000346333,0.473934621,0.029831618,9.808628082
1784148254.101948,0.002525352,-0.048139367,-0.260828108,-0.000605775,0.000807934,-0.000132704,0.480272710,0.033436563,9.794311523
1784148254.103976,0.002525352,-0.048139367,-0.260828108,-0.000788426,0.000464173,-0.000158366,0.484097183,0.013055242,9.755178452
1784148254.105926,0.002525458,-0.048140019,-0.260828108,-0.000884155,0.000286338,-0.000339064,0.495628774,0.002926609,9.772610664
1784148254.107921,0.002525458,-0.048140019,-0.260828108,-0.000971279,0.000193747,-0.000596884,0.460185707,0.043842584,9.816327095
1784148254.109899,0.002525654,-0.048139472,-0.260828078,-0.000903426,0.000522079,-0.000980859,0.476082563,0.020132147,9.782566071
1784148254.111875,0.002525654,-0.048139472,-0.260828078,-0.000921569,0.001176641,-0.001366685,0.490627348,0.035197932,9.779985428
1784148254.113872,0.002525654,-0.048139472,-0.260828078,-0.000865525,0.001487422,-0.001107017,0.466142118,0.015661366,9.799115181
1784148254.115876,0.002525433,-0.048139445,-0.260828108,-0.000809915,0.001530240,-0.000359244,0.481820047,0.013223523,9.798666954
1784148254.117898,0.002525433,-0.048139445,-0.260828108,-0.000736951,0.001324104,0.000671629,0.460132271,0.001372737,9.803053856
1784148254.119887,0.002524387,-0.048139069,-0.260828078,-0.000416355,0.000828958,0.001439164,0.458195955,0.025305582,9.780340195
1784148254.121879,0.002524387,-0.048139069,-0.260828078,-0.000198975,0.000543298,0.001529350,0.466052175,0.045651894,9.803341866
1784148254.123875,0.002524387,-0.048139069,-0.260828078,-0.000111698,0.000391622,0.001324474,0.460841686,0.021661961,9.783905983
1784148254.125880,0.002524599,-0.048138600,-0.260828078,0.000277875,0.000279052,0.000941057,0.465768605,0.020718697,9.781662941
1784148254.127876,0.002524599,-0.048138600,-0.260828078,0.000688623,0.000126668,0.000174153,0.452322215,0.023439042,9.801393509
1784148254.129883,0.002524056,-0.048137449,-0.260828108,0.000590253,0.000107839,-0.000041663,0.478366435,0.024474904,9.797839165
1784148254.131885,0.002524056,-0.048137449,-0.260828108,-0.000111957,0.000439143,0.000415799,0.494920224,0.019423639,9.785267830
1784148254.133889,0.002524056,-0.048137449,-0.260828108,-0.000441285,0.000717185,0.000316307,0.466702431,0.024236830,9.789307594
1784148254.135885,0.002523682,-0.048137028,-0.260828137,-0.000105298,0.000521749,-0.000443444,0.480826944,0.042774402,9.803337097
1784148254.137885,0.002523682,-0.048137028,-0.260828137,-0.000280456,0.000145930,-0.000349017,0.477942556,0.027108006,9.806374550
1784148254.139895,0.002524709,-0.048136894,-0.260828137,-0.000610768,-0.000292970,0.000585017,0.465204298,0.011301366,9.783842087
1784148254.141890,0.002524709,-0.048136894,-0.260828137,-0.000365613,-0.000956496,0.000704701,0.469668210,0.010656008,9.803569794
1784148254.143887,0.002524709,-0.048136894,-0.260828137,-0.000126302,-0.000951444,0.000289257,0.453064263,0.010042759,9.793687820
1784148254.145888,0.002524420,-0.048135594,-0.260828137,0.000178637,-0.000536297,0.000169628,0.467032224,0.013565872,9.777134895
1784148254.147894,0.002524420,-0.048135594,-0.260828137,0.000455779,-0.000180019,0.000010660,0.482485235,0.029516075,9.774561882
1784148254.149896,0.002524717,-0.048136447,-0.260828137,0.000206710,0.000139492,-0.000286047,0.500355482,0.059372023,9.765355110
1784148254.151893,0.002524717,-0.048136447,-0.260828137,-0.000126045,-0.000063188,0.000325521,0.481489092,0.023074878,9.800073624
1784148254.153972,0.002524717,-0.048136447,-0.260828137,-0.000298368,-0.000339802,0.001131472,0.448122382,0.046431575,9.788984299
1784148254.155924,0.002526300,-0.048135467,-0.260828108,-0.000309161,-0.000229037,0.000492997,0.467641443,0.028606378,9.803235054
1784148254.157911,0.002526300,-0.048135467,-0.260828108,-0.000060703,-0.000002909,-0.000656876,0.463941395,0.020080697,9.811696053
1784148254.159912,0.002525651,-0.048134599,-0.260828137,0.000786326,-0.000027786,-0.001097405,0.471031308,0.009962233,9.772631645
1784148254.161909,0.002525651,-0.048134599,-0.260828137,0.001801187,0.000002472,-0.001200802,0.468814760,0.013040856,9.784754753
1784148254.163905,0.002525651,-0.048134599,-0.260828137,0.002161052,0.000064161,-0.001204301,0.477068871,0.028117176,9.792033195
1784148254.165909,0.002525528,-0.048134305,-0.260828137,0.001626657,0.000097478,-0.000847144,0.483420461,0.032640304,9.774581909
1784148254.167914,0.002525528,-0.048134305,-0.260828137,0.000241581,0.000111387,-0.000083148,0.436392367,0.004435164,9.793187141
1784148254.169910,0.002523239,-0.048132338,-0.260828167,-0.000840356,0.000050753,0.000400698,0.451454818,0.024092456,9.774049759
1784148254.171907,0.002523239,-0.048132338,-0.260828167,-0.000357328,0.000444847,0.000432704,0.467345536,0.039544437,9.777750015
1784148254.173921,0.002523239,-0.048132338,-0.260828167,0.001041443,0.000558771,0.000438666,0.464378715,0.053522348,9.770663261
1784148254.175965,0.002525273,-0.048131935,-0.260828167,0.001354435,0.000402036,-0.000317624,0.456168622,0.042846147,9.774621964
1784148254.177926,0.002525273,-0.048131935,-0.260828167,0.000666551,0.000873484,-0.000830662,0.457788825,0.029692376,9.794265747
1784148254.179938,0.002524954,-0.048130967,-0.260828197,-0.000017011,0.001319698,-0.000030754,0.484297603,0.032063194,9.791168213
1784148254.181924,0.002524954,-0.048130967,-0.260828197,-0.000505325,0.000870580,0.000565724,0.463811845,0.046516150,9.811863899
1784148254.183918,0.002524954,-0.048130967,-0.260828197,-0.000284617,0.000269302,0.000656656,0.459688663,0.038603164,9.797911644
1784148254.185921,0.002525639,-0.048130404,-0.260828197,0.000369355,0.000276383,0.000653956,0.464287162,0.011157062,9.805809021
1784148254.187922,0.002525639,-0.048130404,-0.260828197,0.000447958,0.000233160,0.000434465,0.471372664,0.040620361,9.808246613
1784148254.189922,0.002526760,-0.048129752,-0.260828197,-0.000113874,-0.000205411,0.000235213,0.470294267,0.024613364,9.792900085
1784148254.191922,0.002526760,-0.048129752,-0.260828197,-0.000832853,-0.000632550,0.000576367,0.512185454,0.037514344,9.793472290
1784148254.193927,0.002526760,-0.048129752,-0.260828197,-0.001333278,-0.000457989,0.000827638,0.462334126,0.032526147,9.765596390
1784148254.195932,0.002527809,-0.048129428,-0.260828197,-0.001007068,-0.000101183,0.000507612,0.464313477,0.012580434,9.794610977
1784148254.197937,0.002527809,-0.048129428,-0.260828197,-0.000788134,0.000069838,0.000129537,0.470314831,0.026802292,9.800086975
1784148254.199931,0.002528418,-0.048129607,-0.260828197,-0.000937421,0.000089095,-0.000038654,0.478994578,0.040474929,9.814978600
1784148254.201967,0.002528418,-0.048129607,-0.260828197,-0.000649882,-0.000027366,-0.000125172,0.483231217,0.056578394,9.811050415
1784148254.203939,0.002528418,-0.048129607,-0.260828197,-0.000495234,-0.000200615,-0.000351246,0.469957143,0.033200331,9.783092499
1784148254.205941,0.002527957,-0.048129834,-0.260828197,-0.000452208,-0.000039194,-0.000333929,0.465903252,0.031507920,9.776352882
1784148254.207938,0.002527957,-0.048129834,-0.260828197,-0.000560474,0.000582776,-0.000138207,0.468581766,0.031365313,9.791596413
1784148254.209933,0.002528191,-0.048129637,-0.260828197,-0.000583308,0.001162371,-0.000175349,0.498069316,0.020663684,9.794246674
1784148254.211936,0.002528191,-0.048129637,-0.260828197,-0.000203777,0.001418779,-0.000274909,0.488578260,0.052566789,9.798476219
1784148254.213939,0.002528191,-0.048129637,-0.260828197,-0.000021828,0.001263497,-0.000168975,0.465252608,0.015329838,9.784317970
1784148254.215938,0.002528755,-0.048129037,-0.260828197,0.000163637,0.001023922,-0.000110476,0.465552390,0.003206880,9.787377357
1784148254.217944,0.002528755,-0.048129037,-0.260828197,0.000151923,0.000687877,0.000111525,0.469817400,0.020749625,9.770010948
1784148254.219940,0.002528566,-0.048129179,-0.260828197,-0.000146639,0.000426761,0.000507372,0.476751804,0.038483258,9.784029961
1784148254.221951,0.002528566,-0.048129179,-0.260828197,-0.000307148,0.000435467,0.000544216,0.457958996,0.042788178,9.779555321
1784148254.223945,0.002528566,-0.048129179,-0.260828197,-0.000727829,0.000699287,0.000210973,0.459801644,0.010010581,9.786071777
1784148254.225951,0.002528023,-0.048128862,-0.260828227,-0.000996548,0.000947614,-0.000446611,0.460368931,0.019856788,9.786582947
1784148254.227948,0.002528023,-0.048128862,-0.260828227,-0.000561136,0.001082614,-0.000419455,0.470501721,0.039625008,9.760717392
1784148254.229949,0.002529016,-0.048129000,-0.260828227,-0.000278005,0.001519217,0.000270074,0.472310454,0.004553552,9.774839401
1784148254.231977,0.002529016,-0.048129000,-0.260828227,-0.000573651,0.002011213,-0.000292496,0.466820896,0.033682175,9.783989906
1784148254.234078,0.002529016,-0.048129000,-0.260828227,-0.001187655,0.002144140,-0.001390181,0.484423369,0.005192499,9.789203644
1784148254.235964,0.002528457,-0.048129763,-0.260828227,-0.001622463,0.001841539,-0.001650484,0.488015175,0.005569028,9.792795181
1784148254.237959,0.002528457,-0.048129763,-0.260828227,-0.001310040,0.001465118,-0.000991546,0.455054462,0.024936020,9.774953842
1784148254.240007,0.002528720,-0.048128095,-0.260828227,-0.000922525,0.000989523,-0.000241608,0.444601953,0.015918253,9.801785469
1784148254.241971,0.002528720,-0.048128095,-0.260828227,-0.001168552,0.000218435,0.000030732,0.474827945,0.028571626,9.795170784
1784148254.243961,0.002528720,-0.048128095,-0.260828227,-0.001258291,-0.000521596,-0.000204966,0.472009242,0.016260350,9.767292976
1784148254.245986,0.002528466,-0.048128504,-0.260828227,-0.000760127,-0.000883907,-0.000844136,0.453410447,0.037902199,9.781760216
1784148254.247972,0.002528466,-0.048128504,-0.260828227,-0.000394405,-0.000860665,-0.001181798,0.506989956,0.052448716,9.781905174
1784148254.249973,0.002529701,-0.048130762,-0.260828257,-0.000148704,-0.000990272,-0.000977335,0.481297165,0.045370575,9.815461159
1784148254.251970,0.002529701,-0.048130762,-0.260828257,0.000175807,-0.000926480,-0.000466237,0.481769860,0.045148984,9.782732010
1784148254.253972,0.002529701,-0.048130762,-0.260828257,-0.000127765,-0.000675530,-0.000201937,0.457103670,0.008783857,9.774404526
1784148254.255995,0.002528967,-0.048129939,-0.260828286,-0.000838095,-0.000595103,-0.000064900,0.464074731,0.029643681,9.789788246
1784148254.257978,0.002528967,-0.048129939,-0.260828286,-0.000885999,-0.000595353,-0.000000756,0.484375119,0.037943922,9.783136368
1784148254.260006,0.002529236,-0.048130490,-0.260828257,-0.000361282,-0.000691233,-0.000007827,0.487233579,0.015410233,9.796443939
1784148254.261978,0.002529236,-0.048130490,-0.260828257,0.000459248,-0.000334601,0.000116457,0.483536869,0.007316615,9.807147980
1784148254.263975,0.002529236,-0.048130490,-0.260828257,0.001185174,0.000085480,0.000262249,0.485593796,-0.009585208,9.785970688
1784148254.265991,0.002527607,-0.048131183,-0.260828257,0.001020338,-0.000160540,0.000617004,0.446074992,0.025413118,9.787053108
1784148254.267983,0.002527607,-0.048131183,-0.260828257,0.000302816,-0.000440432,0.000729515,0.449787438,0.034847442,9.776806831
1784148254.269984,0.002528459,-0.048130479,-0.260828286,0.000021837,-0.000157305,0.000218866,0.471847683,0.041227914,9.784938812
1784148254.271987,0.002528459,-0.048130479,-0.260828286,0.000181722,0.000332675,-0.000096821,0.421324402,0.019893115,9.788787842
1784148254.273988,0.002528459,-0.048130479,-0.260828286,0.000241400,0.000578695,0.000250154,0.486516237,0.030217167,9.794745445
1784148254.275997,0.002528246,-0.048130758,-0.260828286,0.000226911,0.000399001,0.000428622,0.447073072,0.034707054,9.801461220
1784148254.277990,0.002528246,-0.048130758,-0.260828286,-0.000002739,0.000037466,0.000394535,0.470461875,0.036473382,9.762939453
1784148254.279987,0.002529345,-0.048131380,-0.260828286,-0.000148948,0.000114077,0.000660460,0.455839574,0.016743580,9.791490555
1784148254.281995,0.002529345,-0.048131380,-0.260828286,0.000255180,0.000595698,0.000965678,0.457617700,0.014156823,9.773990631
1784148254.283993,0.002529345,-0.048131380,-0.260828286,0.000565367,0.000695502,0.001006134,0.474892467,-0.004456060,9.777027130
1784148254.285992,0.002527163,-0.048130952,-0.260828286,0.000481452,0.000467555,0.000708506,0.457817644,0.033161595,9.810428619
1784148254.288005,0.002527163,-0.048130952,-0.260828286,0.000311846,0.000302668,0.000491522,0.435452938,0.037652414,9.786225319
1784148254.289993,0.002527510,-0.048129417,-0.260828316,0.000369797,0.000269925,0.000442537,0.464485347,0.026095584,9.783937454
1784148254.292028,0.002527510,-0.048129417,-0.260828316,0.000357886,0.000194429,0.000117649,0.472223938,0.034976140,9.781311989
1784148254.293998,0.002527510,-0.048129417,-0.260828316,-0.000063475,0.000449425,-0.000045750,0.473698169,0.045697253,9.783174515
1784148254.295999,0.002528364,-0.048129644,-0.260828346,-0.000366644,0.001082358,0.000289009,0.475196242,0.019826051,9.764181137
1784148254.298000,0.002528364,-0.048129644,-0.260828346,-0.000282704,0.001183605,-0.000028250,0.477180958,0.035891492,9.769665718
1784148254.300000,0.002529093,-0.048130028,-0.260828316,-0.000355211,0.000505603,-0.000715066,0.463431299,0.013522832,9.789685249
1784148254.302005,0.002529093,-0.048130028,-0.260828316,-0.001027064,-0.000272725,-0.000712521,0.464849591,0.018938353,9.781649590
1784148254.304003,0.002529093,-0.048130028,-0.260828316,-0.001281125,-0.000736375,-0.000366733,0.468086421,0.027355313,9.789328575
1784148254.306004,0.002528663,-0.048128892,-0.260828316,-0.000866188,-0.000774400,-0.000148311,0.489308447,0.037861604,9.785829544
1784148254.308009,0.002528663,-0.048128892,-0.260828316,-0.000722921,-0.000458402,0.000012470,0.474068284,0.075771056,9.774849892
1784148254.310011,0.002531433,-0.048129503,-0.260828316,-0.000561779,0.000005176,0.000130988,0.476176053,0.028570274,9.792931557
1784148254.312011,0.002531433,-0.048129503,-0.260828316,-0.000133574,0.000663412,0.000237658,0.487812459,0.026158733,9.796065331
1784148254.314018,0.002531433,-0.048129503,-0.260828316,0.000338139,0.000818660,0.000079140,0.467285186,0.035420567,9.790725708
1784148254.316022,0.002531287,-0.048129745,-0.260828316,0.000840333,0.000499394,-0.000255118,0.472704351,0.036841735,9.770115852
1784148254.318016,0.002531287,-0.048129745,-0.260828316,0.001116968,0.000463331,-0.000100528,0.466091514,0.009993678,9.777111053
1784148254.320017,0.002530825,-0.048129726,-0.260828346,0.001265859,0.000581730,-0.000005240,0.477243096,0.005681575,9.796371460
1784148254.322021,0.002530825,-0.048129726,-0.260828346,0.001299517,0.000399909,-0.000117955,0.450811952,0.043944608,9.755794525
1784148254.324018,0.002530825,-0.048129726,-0.260828346,0.001106391,0.000233027,-0.000074241,0.477598369,0.034017600,9.780414581
1784148254.326023,0.002531616,-0.048130143,-0.260828316,0.000584929,0.000060236,0.000173335,0.482171565,0.040314227,9.768802643
1784148254.328022,0.002531616,-0.048130143,-0.260828316,0.000241533,-0.000012701,0.000462356,0.452831894,0.062720075,9.758157730
1784148254.330022,0.002532862,-0.048129231,-0.260828316,0.000355755,0.000129888,0.000403797,0.452027678,0.034793258,9.780394554
1784148254.332021,0.002532862,-0.048129231,-0.260828316,0.000166455,0.000040813,0.000016644,0.458548665,0.053215906,9.761240005
1784148254.334026,0.002532862,-0.048129231,-0.260828316,-0.000062838,-0.000165646,-0.000501000,0.437708110,0.038525946,9.785337448
1784148254.336029,0.002533960,-0.048127890,-0.260828316,-0.000141192,-0.000408883,-0.000571593,0.473789781,0.015719438,9.777154922
1784148254.338027,0.002533960,-0.048127890,-0.260828316,-0.000504950,-0.000493550,-0.000496629,0.503079832,0.025648847,9.777246475
1784148254.340035,0.002534368,-0.048130061,-0.260828316,-0.000821364,-0.000372470,-0.000802118,0.489497125,0.016350541,9.786140442
1784148254.342036,0.002534368,-0.048130061,-0.260828316,-0.000782433,-0.000449163,-0.001025154,0.494413614,0.015324602,9.795554161
1784148254.344031,0.002534368,-0.048130061,-0.260828316,-0.000592095,-0.000543664,-0.001043177,0.495182455,0.005788276,9.812081337
1784148254.346038,0.002533500,-0.048130874,-0.260828316,-0.000326534,-0.000612990,-0.001200522,0.496430486,0.034481261,9.807334900
1784148254.348040,0.002533500,-0.048130874,-0.260828316,-0.000151892,-0.000700174,-0.001170966,0.477157176,0.035703894,9.796116829
1784148254.350041,0.002533981,-0.048131291,-0.260828286,-0.000097592,-0.000764450,-0.000896830,0.443914533,0.032987259,9.796962738
1784148254.352043,0.002533981,-0.048131291,-0.260828286,0.000083348,-0.001031114,-0.000319036,0.465561122,0.040460177,9.778202057
1784148254.354048,0.002533981,-0.048131291,-0.260828286,0.000562849,-0.000850920,0.000068415,0.462718129,0.029578259,9.801442146
1784148254.356072,0.002534070,-0.048130527,-0.260828286,0.001011725,-0.000084775,-0.000620433,0.475404590,0.039707668,9.803313255
1784148254.358047,0.002534070,-0.048130527,-0.260828286,0.001177421,0.000601198,-0.001139847,0.483520806,0.041132487,9.777327538
1784148254.360048,0.002534573,-0.048130967,-0.260828286,0.001036066,0.000503354,-0.000474976,0.483406097,0.033742532,9.808663368
1784148254.362048,0.002534573,-0.048130967,-0.260828286,0.000546468,-0.000019048,0.000872735,0.469327599,0.017594213,9.773575783
1784148254.364051,0.002534573,-0.048130967,-0.260828286,-0.000127025,0.000238314,0.001117455,0.488901198,0.004251797,9.787407875
1784148254.366050,0.002534625,-0.048130848,-0.260828286,-0.000179893,0.000605941,0.000503150,0.471926033,0.010335105,9.781601906
1784148254.368053,0.002534625,-0.048130848,-0.260828286,0.000748603,0.000139596,0.000666843,0.499446094,0.022914857,9.790226936
1784148254.370051,0.002534283,-0.048132449,-0.260828227,0.001426691,-0.000020823,0.000895405,0.479480594,0.042385023,9.797507286
1784148254.372053,0.002534283,-0.048132449,-0.260828227,0.001171868,0.000772339,0.000740857,0.447612405,0.041090406,9.784914970
1784148254.374054,0.002534283,-0.048132449,-0.260828227,0.000550921,0.001193737,0.000482293,0.451828629,0.018631687,9.785223007
1784148254.376058,0.002534646,-0.048131075,-0.260828286,-0.000183669,0.000495477,0.000342039,0.459935993,0.022013323,9.799150467
1784148254.378058,0.002534646,-0.048131075,-0.260828286,-0.001087176,-0.000639088,0.000217740,0.463965446,0.021891624,9.809016228
1784148254.380085,0.002534662,-0.048130415,-0.260828286,-0.001866118,-0.001064447,-0.000502580,0.461257726,0.056961861,9.796685219
1784148254.382067,0.002534662,-0.048130415,-0.260828286,-0.001833225,-0.001056251,-0.001114859,0.469659746,0.045342363,9.777340889
1784148254.384068,0.002534662,-0.048130415,-0.260828286,-0.001449847,-0.001094693,-0.000820450,0.477956176,0.025189340,9.761079788
1784148254.386067,0.002534509,-0.048131593,-0.260828286,-0.000792587,-0.001166092,-0.000064063,0.472581685,0.027768038,9.786198616
1784148254.388066,0.002534509,-0.048131593,-0.260828286,0.000569531,-0.001496733,0.000342394,0.492065281,0.006826194,9.797738075
1784148254.390091,0.002533044,-0.048132829,-0.260828257,0.000862620,-0.001329984,-0.000028263,0.470405489,0.033191402,9.783540726
1784148254.392076,0.002533044,-0.048132829,-0.260828257,-0.000335117,-0.001283511,-0.000264840,0.478880942,0.063794106,9.749223709
1784148254.394105,0.002533044,-0.048132829,-0.260828257,-0.001269368,-0.001880622,-0.000170020,0.453282952,0.063543484,9.767579079
1784148254.396092,0.002535170,-0.048131779,-0.260828316,-0.001492581,-0.001869234,-0.000314352,0.477521658,0.027333152,9.775440216
1784148254.398079,0.002535170,-0.048131779,-0.260828316,-0.001321879,-0.001074338,-0.000125756,0.486093998,0.032052912,9.789375305
1784148254.400087,0.002535493,-0.048132427,-0.260828257,-0.000455301,-0.000238261,0.000826577,0.491677672,0.011772233,9.795976639
1784148254.402084,0.002535493,-0.048132427,-0.260828257,0.000627476,0.000347170,0.001647290,0.475422025,0.039034322,9.771924973
1784148254.404088,0.002535493,-0.048132427,-0.260828257,0.000708600,0.000407172,0.001610191,0.458225816,0.027567651,9.777215958
1784148254.406084,0.002535604,-0.048131697,-0.260828286,0.000185455,0.000150178,0.001743031,0.491669208,0.047268659,9.781857491
1784148254.408088,0.002535604,-0.048131697,-0.260828286,0.000062222,0.000497390,0.002294485,0.448531657,0.042467311,9.778648376
1784148254.410085,0.002536462,-0.048130605,-0.260828286,-0.000401016,0.001085205,0.001578275,0.447868019,0.024970781,9.783018112
1784148254.412086,0.002536462,-0.048130605,-0.260828286,-0.001336005,0.001342529,0.000621378,0.446851522,0.053527173,9.801581383
1784148254.414086,0.002536462,-0.048130605,-0.260828286,-0.001280087,0.001231286,0.000375090,0.465186417,0.048344806,9.804255486
1784148254.416093,0.002537818,-0.048130464,-0.260828286,0.000075980,0.000669634,-0.000057641,0.476396590,0.046927143,9.794393539
1784148254.418090,0.002537818,-0.048130464,-0.260828286,0.001171426,0.000221991,-0.000156302,0.513481319,-0.004947318,9.776612282
1784148254.420089,0.002536258,-0.048132692,-0.260828257,0.001320146,0.000186890,0.000422279,0.467263430,0.031601954,9.760662079
1784148254.422094,0.002536258,-0.048132692,-0.260828257,0.001733688,0.000065043,0.001331116,0.447697192,0.010248473,9.774405479
1784148254.424093,0.002536258,-0.048132692,-0.260828257,0.002216395,-0.000059019,0.001560043,0.470786303,0.029408000,9.810864449
1784148254.426099,0.002537204,-0.048132811,-0.260828257,0.001954409,-0.000122568,0.001364952,0.488294363,0.026820339,9.765135765
1784148254.428102,0.002537204,-0.048132811,-0.260828257,0.001289051,-0.000577617,0.001201747,0.455477893,0.023109814,9.778977394
1784148254.430098,0.002537097,-0.048132099,-0.260828257,0.000825091,-0.000745022,0.000704713,0.454614997,0.025014909,9.764641762
1784148254.432100,0.002537097,-0.048132099,-0.260828257,0.000929972,-0.000043787,0.000347919,0.451013774,0.024158625,9.765531540
1784148254.434103,0.002537097,-0.048132099,-0.260828257,0.001113681,0.000427908,0.000412883,0.471230984,0.027343687,9.785296440
1784148254.436106,0.002536377,-0.048131976,-0.260828257,0.001439516,0.000174382,0.000637706,0.469759405,0.052208047,9.756761551
1784148254.438103,0.002536377,-0.048131976,-0.260828257,0.001784559,-0.000101023,0.000728944,0.464037687,0.026514314,9.788870811
1784148254.440104,0.002536678,-0.048131749,-0.260828227,0.001314892,-0.000165891,0.000470089,0.463677675,0.031273119,9.750345230
1784148254.442114,0.002536678,-0.048131749,-0.260828227,0.000541874,0.000044262,0.000155903,0.469604313,0.002046546,9.754197121
1784148254.444108,0.002536678,-0.048131749,-0.260828227,0.000250708,0.000266421,-0.000072162,0.463502407,0.019352684,9.788825035
1784148254.446112,0.002536658,-0.048131023,-0.260828227,0.000232315,-0.000112032,-0.000529836,0.466282904,0.024878146,9.762860298
1784148254.448110,0.002536658,-0.048131023,-0.260828227,-0.000003711,-0.000854859,-0.000613478,0.472743958,0.005643677,9.809817314
1784148254.450110,0.002535883,-0.048131015,-0.260828227,-0.000210384,-0.001251965,-0.000619507,0.454213142,-0.008146936,9.766222954
1784148254.452117,0.002535883,-0.048131015,-0.260828227,0.000224961,-0.000933715,-0.000926464,0.498697907,-0.001733146,9.792310715
1784148254.454116,0.002535883,-0.048131015,-0.260828227,0.000688448,-0.000401561,-0.000480257,0.469404906,0.024688451,9.783934593
1784148254.456129,0.002535254,-0.048131395,-0.260828197,0.000371682,-0.000260928,0.000185369,0.452547044,0.039397489,9.762042999
1784148254.458122,0.002535254,-0.048131395,-0.260828197,-0.000164842,-0.000133640,0.000092265,0.440653235,0.023566261,9.804521561
1784148254.460118,0.002535159,-0.048130255,-0.260828197,-0.000304834,-0.000329390,-0.000337805,0.459119081,0.063897610,9.770276070
1784148254.462119,0.002535159,-0.048130255,-0.260828197,-0.000270024,-0.001193546,-0.000636858,0.476195604,0.031156296,9.807293892
1784148254.464125,0.002535159,-0.048130255,-0.260828197,-0.000078248,-0.001447881,-0.000689893,0.488165647,0.019725725,9.817993164
1784148254.466123,0.002534834,-0.048130959,-0.260828227,0.000412027,-0.000988860,-0.000742434,0.452149004,0.008697660,9.795470238
1784148254.468125,0.002534834,-0.048130959,-0.260828227,0.000770230,-0.000651823,-0.001213937,0.468948603,0.023823719,9.780340195
1784148254.470125,0.002535083,-0.048131194,-0.260828227,0.000558864,-0.000721979,-0.002083433,0.497484863,0.045840494,9.783199310
1784148254.472131,0.002535083,-0.048131194,-0.260828227,0.000077940,-0.000808437,-0.002248221,0.460210681,0.044849783,9.800642014
1784148254.474136,0.002535083,-0.048131194,-0.260828227,0.000108166,-0.000733191,-0.002096116,0.466399163,0.036737796,9.796112061
1784148254.476140,0.002535756,-0.048130956,-0.260828227,0.000563529,-0.000824495,-0.002400626,0.481662661,-0.000987227,9.781090736
1784148254.478141,0.002535756,-0.048130956,-0.260828227,0.000789422,-0.000638101,-0.002585114,0.466467291,0.004548803,9.786043167
1784148254.480133,0.002535197,-0.048130695,-0.260828227,0.001007828,-0.000433887,-0.002231646,0.486237824,0.006945447,9.791458130
1784148254.482139,0.002535197,-0.048130695,-0.260828227,0.001324945,-0.000596351,-0.001397973,0.471023023,0.010302086,9.787877083
1784148254.484139,0.002535197,-0.048130695,-0.260828227,0.001485940,-0.000498070,-0.000771503,0.465501368,0.036746118,9.796560287
1784148254.486145,0.002535781,-0.048129980,-0.260828286,0.001495550,-0.000370760,-0.000405247,0.493724734,0.031977437,9.786245346
1784148254.488139,0.002535781,-0.048129980,-0.260828286,0.001300449,-0.000546600,-0.000013888,0.486087203,0.031188792,9.784889221
1784148254.490142,0.002536105,-0.048130870,-0.260828286,0.000925282,-0.000492083,0.000253809,0.455671191,0.039630316,9.786705971
1784148254.492143,0.002536105,-0.048130870,-0.260828286,0.000653645,-0.000290614,0.000485831,0.467411578,0.045739572,9.788550377
1784148254.494143,0.002536105,-0.048130870,-0.260828286,0.000583615,-0.000001896,0.000764161,0.480656028,0.028052101,9.794725418
1784148254.496151,0.002537451,-0.048131417,-0.260828286,0.000387034,0.000085114,0.000785485,0.454740971,0.036140807,9.775025368
1784148254.498150,0.002537451,-0.048131417,-0.260828286,0.000077302,-0.000244469,0.000599995,0.478834599,0.025838472,9.794261932
1784148254.500147,0.002536890,-0.048132025,-0.260828227,0.000141951,-0.000327586,0.000773085,0.488879204,0.039236665,9.782252312
1784148254.502149,0.002536890,-0.048132025,-0.260828227,0.000194331,0.000115341,0.000974199,0.497541994,0.012348955,9.767292976
1784148254.504155,0.002536890,-0.048132025,-0.260828227,-0.000580167,0.000379091,0.000415069,0.512781084,0.012426559,9.791965485
1784148254.506155,0.002535928,-0.048135631,-0.260828286,-0.001418146,0.000270075,-0.000301245,0.479029536,0.004781734,9.793677330
1784148254.508156,0.002535928,-0.048135631,-0.260828286,-0.001197848,0.000231935,-0.000207761,0.442008317,0.024025595,9.800491333
1784148254.510159,0.002536463,-0.048132475,-0.260828257,-0.000422428,0.000250633,0.000005992,0.473879755,0.025345646,9.809496880
1784148254.512194,0.002536463,-0.048132475,-0.260828257,0.000254316,0.000411692,-0.000595468,0.463535130,0.023663782,9.812613487
1784148254.514220,0.002536463,-0.048132475,-0.260828257,0.000403962,0.000550612,-0.001015999,0.448461056,0.037857335,9.796998978
1784148254.516178,0.002536538,-0.048131961,-0.260828257,-0.000056671,0.000004452,-0.000424273,0.458427519,0.044964999,9.787640572
1784148254.518168,0.002536538,-0.048131961,-0.260828257,-0.000360413,-0.000719852,0.000348010,0.475916117,0.008281661,9.811182022
1784148254.520169,0.002535663,-0.048132487,-0.260828227,-0.000721184,-0.000865357,0.000479274,0.483906448,0.038197316,9.811382294
1784148254.522171,0.002535663,-0.048132487,-0.260828227,-0.000908437,-0.000648849,0.000685126,0.450792342,0.045005500,9.795702934
1784148254.524167,0.002535663,-0.048132487,-0.260828227,-0.000535011,-0.000119856,0.001036535,0.460686684,0.047897104,9.812317848
1784148254.526176,0.002536756,-0.048131939,-0.260828227,-0.000059486,0.000642627,0.001078336,0.459958524,0.025028216,9.816206932
1784148254.528180,0.002536756,-0.048131939,-0.260828227,0.000122480,0.001090426,0.001342600,0.471997738,0.016574759,9.786126137
1784148254.530174,0.002536064,-0.048132241,-0.260828227,-0.000220762,0.000899576,0.001567580,0.468531609,0.063290767,9.775662422
1784148254.532179,0.002536064,-0.048132241,-0.260828227,-0.000731586,-0.000026285,0.001347590,0.445422858,0.047218904,9.809161186
1784148254.534177,0.002536064,-0.048132241,-0.260828227,-0.000725762,-0.000866723,0.001168953,0.485150158,0.027645221,9.780828476
1784148254.536185,0.002536936,-0.048132099,-0.260828227,-0.000317102,-0.000836248,0.001187457,0.488310724,0.029380918,9.783084869
1784148254.538187,0.002536936,-0.048132099,-0.260828227,0.000035056,-0.000779078,0.001273424,0.478391737,0.025485292,9.781705856
1784148254.540184,0.002536553,-0.048133109,-0.260828227,0.000632614,-0.000904983,0.001642540,0.481561750,0.027700758,9.779481888
1784148254.542185,0.002536553,-0.048133109,-0.260828227,0.000907858,-0.000813214,0.001623376,0.480624735,0.026183948,9.805474281
1784148254.544188,0.002536553,-0.048133109,-0.260828227,0.000334040,-0.000590145,0.000977242,0.452040255,0.034081753,9.754386902
1784148254.546187,0.002536804,-0.048132531,-0.260828197,-0.000099549,-0.000141036,0.000760838,0.457382172,0.031245513,9.765581131
1784148254.548191,0.002536804,-0.048132531,-0.260828197,0.000272615,0.000373831,0.001074675,0.472195923,0.032323357,9.776362419
1784148254.550192,0.002537450,-0.048132345,-0.260828227,0.000434326,0.000695202,0.001447244,0.478634447,0.044827111,9.770620346
1784148254.552195,0.002537450,-0.048132345,-0.260828227,-0.000188233,0.000957071,0.001428806,0.488437057,0.002920028,9.786501884
1784148254.554195,0.002537450,-0.048132345,-0.260828227,-0.000426754,0.000825520,0.000764055,0.456442475,0.028086307,9.770492554
1784148254.556218,0.002537385,-0.048131760,-0.260828227,0.000008597,0.000113803,-0.000155917,0.468292862,0.045600891,9.806483269
1784148254.558204,0.002537385,-0.048131760,-0.260828227,0.000560689,-0.000337425,-0.000464322,0.469242781,0.011656248,9.789677620
1784148254.560200,0.002536681,-0.048131373,-0.260828227,0.000816119,-0.000669981,0.000195292,0.454213709,0.030662911,9.790233612
1784148254.562197,0.002536681,-0.048131373,-0.260828227,0.000422186,-0.001049763,0.000638022,0.453226864,0.024294844,9.805435181
1784148254.564202,0.002536681,-0.048131373,-0.260828227,0.000140518,-0.000910403,0.000619889,0.486131996,0.036405344,9.807338715
1784148254.566203,0.002536564,-0.048132099,-0.260828257,0.000373520,-0.000452626,0.000446894,0.489729732,0.035612870,9.786264420
1784148254.568206,0.002536564,-0.048132099,-0.260828257,0.000274648,0.000047852,-0.000021612,0.472568125,0.026039787,9.777219772
1784148254.570206,0.002536634,-0.048130896,-0.260828227,-0.000125925,0.000128001,-0.000365021,0.490609616,0.032221179,9.757550240
1784148254.572212,0.002536634,-0.048130896,-0.260828227,-0.000184528,0.000074219,-0.000344668,0.460209936,0.046060134,9.819479942
1784148254.574208,0.002536634,-0.048130896,-0.260828227,-0.000046558,0.000067762,-0.000112749,0.489917010,0.013685646,9.782088280
1784148254.576219,0.002536272,-0.048131473,-0.260828286,-0.000056778,-0.000116516,0.000181387,0.473325849,0.014794290,9.782080650
1784148254.578212,0.002536272,-0.048131473,-0.260828286,-0.000226027,-0.000176686,0.000341662,0.463824540,0.008621308,9.785171509
1784148254.580216,0.002535599,-0.048130795,-0.260828286,-0.000114942,-0.000259710,0.000566886,0.462738544,0.031360567,9.802799225
1784148254.582222,0.002535599,-0.048130795,-0.260828286,0.000258066,-0.000036128,0.000859369,0.475748539,0.031174758,9.805500984
1784148254.584219,0.002535599,-0.048130795,-0.260828286,0.000694484,0.000252517,0.000820676,0.482229054,0.010472772,9.806719780
1784148254.586221,0.002534545,-0.048131369,-0.260828286,0.000991040,0.000104588,0.000537734,0.471265197,0.030450799,9.789351463
1784148254.588219,0.002534545,-0.048131369,-0.260828286,0.000883318,0.000127083,0.000205462,0.464151323,0.037138198,9.806873322
1784148254.590224,0.002535702,-0.048131179,-0.260828286,0.000518825,0.000399871,-0.000252242,0.478941530,0.032761388,9.765612602
1784148254.592273,0.002535702,-0.048131179,-0.260828286,0.000630409,0.000272978,-0.000984029,0.462823510,0.038515225,9.804638863
1784148254.594232,0.002535702,-0.048131179,-0.260828286,0.001395007,-0.000168815,-0.001517989,0.478701413,0.049408469,9.756304741
1784148254.596236,0.002537565,-0.048131153,-0.260828286,0.002204749,-0.000371814,-0.001183838,0.479045033,0.042089086,9.776879311
1784148254.598272,0.002537565,-0.048131153,-0.260828286,0.002271331,-0.000371500,-0.000705744,0.477890670,0.022240847,9.797823906
1784148254.600247,0.002537004,-0.048131377,-0.260828286,0.002032064,-0.000346849,-0.000899333,0.477723449,0.008357232,9.797286987
1784148254.602294,0.002537004,-0.048131377,-0.260828286,0.002196805,-0.000728971,-0.000969844,0.462552339,0.015300734,9.793280602
1784148254.604239,0.002537004,-0.048131377,-0.260828286,0.001877669,-0.001401026,-0.000626962,0.473315299,0.013494922,9.775794983
1784148254.606258,0.002536389,-0.048130840,-0.260828286,0.001233604,-0.001560305,-0.000682870,0.481931835,0.022211362,9.794689178
1784148254.608246,0.002536389,-0.048130840,-0.260828286,0.000807523,-0.001116504,-0.001099499,0.452224851,0.050938938,9.777807236
1784148254.610241,0.002537350,-0.048130244,-0.260828316,0.000247308,-0.000432071,-0.001148668,0.483060777,0.005079382,9.807582855
1784148254.612250,0.002537350,-0.048130244,-0.260828316,-0.000269865,0.000083714,-0.000859633,0.474352509,0.027150817,9.806818008
1784148254.614246,0.002537350,-0.048130244,-0.260828316,-0.000415553,0.000149320,-0.000379657,0.486518711,0.029426174,9.779945374
1784148254.616246,0.002537774,-0.048130594,-0.260828286,-0.000126973,-0.000094908,-0.000067103,0.490259707,0.007980039,9.827781677
1784148254.618252,0.002537774,-0.048130594,-0.260828286,0.000084644,-0.000269300,-0.000417047,0.470561594,0.045365840,9.772411346
1784148254.620247,0.002538630,-0.048130333,-0.260828316,-0.000194297,-0.000337121,-0.000762595,0.437731594,0.041953836,9.807327271
1784148254.622247,0.002538630,-0.048130333,-0.260828316,-0.000562146,-0.000477183,-0.000617949,0.455316991,0.048487183,9.802005768
1784148254.624248,0.002538630,-0.048130333,-0.260828316,-0.000721512,-0.000650061,-0.000891887,0.465049118,0.035103109,9.776373863
1784148254.626251,0.002538748,-0.048129901,-0.260828286,-0.000424251,-0.001066784,-0.001363188,0.486429960,0.024673117,9.818470955
1784148254.628256,0.002538748,-0.048129901,-0.260828286,0.000336171,-0.001109891,-0.001108501,0.478397131,0.026743326,9.793819427
1784148254.630256,0.002539038,-0.048129946,-0.260828286,0.000803416,-0.000815932,-0.000993496,0.471572101,0.017978454,9.778512001
1784148254.632253,0.002539038,-0.048129946,-0.260828286,0.000324341,-0.001238042,-0.001383911,0.456856310,0.025373707,9.773165703
1784148254.634293,0.002539038,-0.048129946,-0.260828286,-0.000352493,-0.001740666,-0.001561621,0.492319405,0.026663668,9.779932976
1784148254.636278,0.002539374,-0.048130743,-0.260828286,-0.000351550,-0.001449610,-0.001127028,0.477883071,0.021370357,9.794231415
1784148254.638262,0.002539374,-0.048130743,-0.260828286,0.000229578,-0.000958950,-0.000302506,0.472430140,0.013198366,9.756066322
1784148254.640259,0.002539464,-0.048130888,-0.260828286,0.000795371,-0.000801146,0.000315315,0.460641891,0.003063812,9.753300667
1784148254.642287,0.002539464,-0.048130888,-0.260828286,0.000716916,-0.001054786,0.000094641,0.450425833,0.012933542,9.769942284
1784148254.644265,0.002539464,-0.048130888,-0.260828286,-0.000044418,-0.001299647,-0.000771591,0.461570829,0.007353863,9.778435707
1784148254.646276,0.002538343,-0.048131008,-0.260828286,-0.000433774,-0.001193260,-0.001166110,0.456478506,0.031612761,9.778586388
1784148254.648268,0.002538343,-0.048131008,-0.260828286,-0.000572005,-0.000905320,-0.000802244,0.489482552,0.051799275,9.778746605
1784148254.650275,0.002539289,-0.048131488,-0.260828257,-0.000651097,-0.000249243,0.000024955,0.490494281,0.062821455,9.802130699
1784148254.652269,0.002539289,-0.048131488,-0.260828257,-0.000295945,-0.000046069,0.000680842,0.468751848,0.046081252,9.801106453
1784148254.654370,0.002539289,-0.048131488,-0.260828257,-0.000152928,-0.000650342,0.000757133,0.481831998,0.050502259,9.785903931
1784148254.656311,0.002539819,-0.048131824,-0.260828257,-0.000028625,-0.000980557,0.000452319,0.479771316,0.028568797,9.786658287
1784148254.658276,0.002539819,-0.048131824,-0.260828257,0.000212392,-0.000735321,-0.000001462,0.474815071,0.025633041,9.767355919
1784148254.660276,0.002539916,-0.048131764,-0.260828257,-0.000120871,-0.000820395,-0.000460678,0.483529747,0.005639242,9.790997505
1784148254.662278,0.002539916,-0.048131764,-0.260828257,-0.000982117,-0.001165349,-0.000526994,0.508865714,0.021958612,9.781712532
1784148254.664280,0.002539916,-0.048131764,-0.260828257,-0.001496828,-0.000969541,-0.000301857,0.474801004,0.024711672,9.770937920
1784148254.666288,0.002539972,-0.048131969,-0.260828257,-0.001490152,-0.000668465,-0.000226617,0.457395464,0.034187276,9.792948723
1784148254.668282,0.002539972,-0.048131969,-0.260828257,-0.001218994,-0.000919542,-0.000246211,0.455053151,0.026546631,9.800519943
1784148254.670283,0.002539580,-0.048131753,-0.260828257,-0.000696811,-0.001107942,0.000064933,0.481874228,0.016082987,9.774475098
1784148254.672293,0.002539580,-0.048131753,-0.260828257,0.000141748,-0.000621818,0.000566577,0.476389289,0.044843145,9.772411346
1784148254.674296,0.002539580,-0.048131753,-0.260828257,0.000698543,-0.000249209,0.000950088,0.472441971,0.017344110,9.803167343
1784148254.676292,0.002539116,-0.048130974,-0.260828286,0.000556627,-0.000440064,0.001262129,0.465852469,0.028270442,9.790677071
1784148254.678292,0.002539116,-0.048130974,-0.260828286,0.000455322,-0.000398798,0.001436300,0.431624144,0.055568542,9.793958664
1784148254.680297,0.002540728,-0.048128407,-0.260828316,0.000474541,-0.000135528,0.001528526,0.460846663,0.022106744,9.784356117
1784148254.682301,0.002540728,-0.048128407,-0.260828316,0.000795698,-0.000070055,0.001108097,0.462555468,0.013299411,9.759643555
1784148254.684303,0.002540728,-0.048128407,-0.260828316,0.000710450,0.000434494,0.000244250,0.495741338,0.012730881,9.779846191
1784148254.686297,0.002539853,-0.048129331,-0.260828316,-0.000000494,0.000971705,-0.000493449,0.482690096,0.046938866,9.781398773
1784148254.688298,0.002539853,-0.048129331,-0.260828316,-0.000271819,0.000801206,-0.000835024,0.482510924,0.068929687,9.776606560
1784148254.690305,0.002542934,-0.048130516,-0.260828286,-0.000399738,0.000512152,-0.000741681,0.442993969,0.030384114,9.786634445
1784148254.692310,0.002542934,-0.048130516,-0.260828286,-0.000456510,0.000476861,0.000031373,0.440650076,0.021920681,9.783888817
1784148254.694306,0.002542934,-0.048130516,-0.260828286,-0.000227067,0.000377231,0.000432087,0.463342160,0.005929756,9.786497116
1784148254.696308,0.002540389,-0.048129912,-0.260828286,0.000101737,-0.000032324,-0.000378778,0.490652800,-0.000164954,9.775276184
1784148254.698308,0.002540389,-0.048129912,-0.260828286,0.000359975,-0.000276774,-0.000987206,0.507005095,0.015383026,9.764630318
1784148254.700312,0.002540840,-0.048132282,-0.260828257,0.000728606,-0.000300009,-0.000580855,0.482953578,0.031286266,9.776814461
1784148254.702312,0.002540840,-0.048132282,-0.260828257,0.001211826,-0.000482573,-0.000068793,0.462855726,0.038769595,9.768774033
1784148254.704313,0.002540840,-0.048132282,-0.260828257,0.001423505,-0.000393084,-0.000507076,0.452748001,0.020415206,9.784785271
1784148254.706319,0.002540769,-0.048130907,-0.260828286,0.001253952,-0.000197631,-0.000952511,0.469099700,0.035553381,9.768758774
1784148254.708320,0.002540769,-0.048130907,-0.260828286,0.000601667,-0.000270958,-0.000394510,0.463328451,0.041384839,9.778206825
1784148254.710336,0.002542116,-0.048130274,-0.260828286,-0.000073213,-0.000324326,0.000354656,0.482576191,0.039555274,9.811838150
1784148254.712326,0.002542116,-0.048130274,-0.260828286,-0.000017407,0.000098873,0.000903859,0.468014359,0.057892371,9.779662132
1784148254.714330,0.002542116,-0.048130274,-0.260828286,0.000134605,0.000640843,0.001161012,0.459432244,0.054716438,9.800704956
1784148254.716330,0.002543836,-0.048130125,-0.260828227,-0.000211705,0.000502607,0.001019717,0.438760877,0.051899228,9.793044090
1784148254.718331,0.002543836,-0.048130125,-0.260828227,-0.000121411,0.000238320,0.000573434,0.491468102,0.030281115,9.776817322
1784148254.720328,0.002544075,-0.048131563,-0.260828286,0.000559717,0.000040814,-0.000021506,0.471090198,0.014480003,9.767281532
1784148254.722329,0.002544075,-0.048131563,-0.260828286,0.000489318,-0.000515145,0.000227859,0.473068029,0.030491393,9.780387878
1784148254.724327,0.002544075,-0.048131563,-0.260828286,-0.000503047,-0.000912443,0.000805206,0.468195230,0.035914268,9.782659531
1784148254.726338,0.002544903,-0.048131164,-0.260828286,-0.001291118,-0.000675318,0.000596814,0.469549537,0.036367241,9.779524803
1784148254.728338,0.002544903,-0.048131164,-0.260828286,-0.000940207,-0.000207447,0.000592532,0.490536183,0.027588949,9.779040337
1784148254.730342,0.002544674,-0.048132110,-0.260828286,-0.000506555,-0.000015621,0.001094315,0.469908595,0.030385377,9.801007271
1784148254.732342,0.002544674,-0.048132110,-0.260828286,-0.000589016,0.000039307,0.001314339,0.462556809,0.052115612,9.782758713
1784148254.734342,0.002544674,-0.048132110,-0.260828286,-0.000448545,0.000133924,0.001023952,0.474612564,0.011066168,9.799990654
1784148254.736345,0.002544120,-0.048131585,-0.260828316,-0.000200280,0.000309605,0.000759079,0.496312827,0.023015520,9.781706810
1784148254.738342,0.002544120,-0.048131585,-0.260828316,0.000052874,0.000454253,0.000656589,0.482499361,0.031654134,9.788921356
1784148254.740345,0.002544354,-0.048132222,-0.260828286,0.000493374,0.000791963,0.000403109,0.458832651,0.004999116,9.799488068
1784148254.742351,0.002544354,-0.048132222,-0.260828286,0.000380412,0.001042770,0.000199737,0.476041794,0.017784232,9.797792435
1784148254.744350,0.002544354,-0.048132222,-0.260828286,-0.000246988,0.001014370,0.000212007,0.500440359,0.031773556,9.802838326
1784148254.746352,0.002544758,-0.048133228,-0.260828286,-0.000394725,0.001222897,0.000457387,0.482379317,0.022196066,9.796034813
1784148254.748351,0.002544758,-0.048133228,-0.260828286,-0.000679264,0.001684139,0.000402913,0.475752562,0.031206558,9.801017761
1784148254.750354,0.002545017,-0.048133656,-0.260828286,-0.001377245,0.001773894,0.000288870,0.479517281,0.007111182,9.780242920
1784148254.752355,0.002545017,-0.048133656,-0.260828286,-0.001968865,0.000867444,0.000326607,0.484885961,0.004891414,9.767681122
1784148254.754359,0.002545017,-0.048133656,-0.260828286,-0.001894239,0.000095098,0.000119604,0.459045678,0.021675423,9.785248756
1784148254.756372,0.002543977,-0.048132993,-0.260828286,-0.001368359,-0.000381419,-0.000228537,0.478977740,0.036694463,9.779537201
1784148254.758362,0.002543977,-0.048132993,-0.260828286,-0.000877218,-0.000800833,-0.000626799,0.476041615,0.015350834,9.761911392
1784148254.760419,0.002543689,-0.048133306,-0.260828286,-0.000353553,-0.000750058,-0.000607799,0.465361774,0.023891974,9.777198792
1784148254.762379,0.002543689,-0.048133306,-0.260828286,-0.000297802,-0.000605325,0.000019886,0.478259742,0.015121771,9.790157318
1784148254.764368,0.002543689,-0.048133306,-0.260828286,-0.000877606,-0.000927836,0.000907022,0.456039548,0.032911517,9.785766602
1784148254.766367,0.002544736,-0.048132129,-0.260828286,-0.001355113,-0.001251961,0.001516603,0.464710623,0.044083979,9.774190903
1784148254.768367,0.002544736,-0.048132129,-0.260828286,-0.001493288,-0.000605173,0.001442426,0.457874835,0.036449950,9.788928986
1784148254.770370,0.002545154,-0.048131015,-0.260828316,-0.001645994,-0.000040338,0.000883377,0.446948498,0.023997327,9.795563698
1784148254.772365,0.002545154,-0.048131015,-0.260828316,-0.001744791,-0.000133416,0.000545532,0.474947780,0.038433131,9.794338226
1784148254.774371,0.002545154,-0.048131015,-0.260828316,-0.001272198,0.000061012,0.000608622,0.473419845,0.021615461,9.767776489
1784148254.776378,0.002544831,-0.048130959,-0.260828316,-0.000308800,0.000487283,0.000115598,0.476691484,0.033549335,9.784893990
1784148254.778379,0.002544831,-0.048130959,-0.260828316,0.000390274,0.000528301,-0.000317278,0.485743910,0.042158276,9.818133354
1784148254.780402,0.002545821,-0.048131127,-0.260828316,0.000407847,0.000309393,-0.000291807,0.459882528,0.017133435,9.792393684
1784148254.782406,0.002545821,-0.048131127,-0.260828316,0.000221670,0.000064283,-0.000635081,0.472530812,0.023313863,9.782583237
1784148254.784384,0.002545821,-0.048131127,-0.260828316,-0.000109211,0.000124586,-0.001335427,0.471461326,0.008593525,9.775313377
1784148254.786404,0.002545313,-0.048130505,-0.260828346,-0.000274515,0.000491463,-0.001807598,0.463864625,0.011369490,9.776669502
1784148254.788389,0.002545313,-0.048130505,-0.260828346,0.000086897,0.000334904,-0.001394990,0.464523822,0.029641112,9.789340973
1784148254.790395,0.002545831,-0.048130102,-0.260828346,0.000416563,-0.000250056,-0.000735891,0.480455220,0.048251078,9.789923668
1784148254.792389,0.002545831,-0.048130102,-0.260828346,0.000734996,-0.000154286,-0.000379075,0.501648188,0.056501660,9.788651466
1784148254.794393,0.002545831,-0.048130102,-0.260828346,0.000775615,0.000584290,-0.000242079,0.468064696,0.026373537,9.801426888
1784148254.796397,0.002546410,-0.048130482,-0.260828316,0.000586544,0.000927808,-0.000324228,0.462767214,0.033613097,9.801020622
1784148254.798390,0.002546410,-0.048130482,-0.260828316,0.000353019,0.000622775,-0.000658096,0.483606339,0.048696954,9.784548759
1784148254.800396,0.002547803,-0.048131440,-0.260828286,-0.000040900,-0.000139547,-0.000489488,0.483723253,0.059346270,9.798964500
1784148254.802399,0.002547803,-0.048131440,-0.260828286,-0.000418870,-0.000660457,0.000048580,0.448302269,0.024040494,9.787047386
1784148254.804394,0.002547803,-0.048131440,-0.260828286,-0.000343410,-0.000412527,0.000246040,0.447827369,0.021002723,9.774025917
1784148254.806398,0.002547375,-0.048130408,-0.260828286,0.000218865,-0.000129609,0.000427367,0.505959988,0.004096922,9.778456688
1784148254.808402,0.002547375,-0.048130408,-0.260828286,0.000339272,0.000097280,0.000613273,0.491473824,0.031542327,9.788482666
1784148254.810403,0.002548037,-0.048131708,-0.260828257,-0.000316628,0.000142043,0.001162043,0.496137589,0.045848206,9.784543037
1784148254.812398,0.002548037,-0.048131708,-0.260828257,-0.001119482,0.000214156,0.001561519,0.481969535,0.024940467,9.788877487
1784148254.814410,0.002548037,-0.048131708,-0.260828257,-0.001482351,0.000644714,0.001457853,0.447604001,0.040213559,9.782217979
1784148254.816422,0.002549994,-0.048129812,-0.260828346,-0.001262908,0.000539506,0.001326612,0.457943588,0.041450661,9.778649330
1784148254.818408,0.002549994,-0.048129812,-0.260828346,-0.000925997,0.000013851,0.000759438,0.480699778,0.030828899,9.782189369
1784148254.820403,0.002549890,-0.048130658,-0.260828316,-0.000709873,0.000173755,-0.000065957,0.477015615,0.022833854,9.778996468
1784148254.822410,0.002549890,-0.048130658,-0.260828316,-0.000476323,0.000701633,-0.000376006,0.477018863,0.022859290,9.775410652
1784148254.824412,0.002549890,-0.048130658,-0.260828316,-0.000404185,0.000420277,-0.000443274,0.472931325,0.020496344,9.800049782
1784148254.826413,0.002549531,-0.048130788,-0.260828316,-0.000553993,-0.000088935,-0.000422086,0.474021643,0.036192108,9.796116829
1784148254.828414,0.002549531,-0.048130788,-0.260828316,-0.001075639,-0.000079452,-0.000080255,0.490211695,0.038301248,9.785386086
1784148254.830418,0.002549659,-0.048131987,-0.260828316,-0.001203040,-0.000129045,0.000132748,0.454598784,0.024481099,9.776744843
1784148254.832415,0.002549659,-0.048131987,-0.260828316,-0.000520171,-0.000387977,0.000035185,0.464897066,0.022960458,9.783021927
1784148254.834419,0.002549659,-0.048131987,-0.260828316,-0.000093965,-0.000450618,0.000091063,0.476289332,-0.001235830,9.762700081
1784148254.836427,0.002548169,-0.048131380,-0.260828286,-0.000108906,-0.000492743,0.000131271,0.498999625,0.019696219,9.739544868
1784148254.838421,0.002548169,-0.048131380,-0.260828286,-0.000426210,-0.000360236,0.000503970,0.458751798,0.034656145,9.787573814
1784148254.840425,0.002548694,-0.048130788,-0.260828346,-0.000982577,-0.000119637,0.001335369,0.460279047,0.049037240,9.778700829
1784148254.842423,0.002548694,-0.048130788,-0.260828346,-0.001117538,-0.000071945,0.001724131,0.480961770,0.015570217,9.785231590
1784148254.844426,0.002548694,-0.048130788,-0.260828346,-0.000725220,0.000086381,0.001539461,0.485250920,0.036140572,9.783124924
1784148254.846431,0.002549173,-0.048131779,-0.260828346,-0.000347613,0.000221827,0.000899739,0.461414963,0.067929141,9.766269684
1784148254.848428,0.002549173,-0.048131779,-0.260828346,-0.000089180,0.000429337,0.000325976,0.461064398,0.040441353,9.788957596
1784148254.850435,0.002549826,-0.048132319,-0.260828316,-0.000006269,0.000834626,-0.000253221,0.463881105,0.049899898,9.776915550
1784148254.852430,0.002549826,-0.048132319,-0.260828316,-0.000233599,0.001189411,-0.001072426,0.469453603,0.028720113,9.783958435
1784148254.854434,0.002549826,-0.048132319,-0.260828316,-0.000581496,0.001393511,-0.001290712,0.479669988,0.019663630,9.778979301
1784148254.856437,0.002550219,-0.048132330,-0.260828316,-0.000802438,0.001234973,-0.001306977,0.505637944,0.014018231,9.770001411
1784148254.858437,0.002550219,-0.048132330,-0.260828316,-0.000607414,0.000558774,-0.001501903,0.504546642,-0.000873810,9.786941528
1784148254.860440,0.002549544,-0.048134781,-0.260828316,-0.000574922,-0.000022978,-0.001590419,0.475147188,0.018628063,9.806765556
1784148254.862445,0.002549544,-0.048134781,-0.260828316,-0.000963288,-0.000030125,-0.001364407,0.440181077,0.021360820,9.800473213
1784148254.864448,0.002549544,-0.048134781,-0.260828316,-0.001553541,0.000160550,-0.000314617,0.457349539,0.030987954,9.801894188
1784148254.866443,0.002549943,-0.048134159,-0.260828286,-0.001892686,0.000492150,0.001155382,0.464189976,0.038253512,9.775944710
1784148254.868441,0.002549943,-0.048134159,-0.260828286,-0.001467472,0.000804995,0.001162669,0.492197752,0.017192889,9.788838387
1784148254.870440,0.002549003,-0.048134968,-0.260828286,-0.000741335,0.000767276,-0.000276985,0.497849375,0.039496519,9.792573929
1784148254.872446,0.002549003,-0.048134968,-0.260828286,-0.000106024,0.000680670,-0.000676054,0.457782209,0.027208110,9.765555382
1784148254.874449,0.002549003,-0.048134968,-0.260828286,0.000646209,0.000807357,-0.000134870,0.445549697,0.019951122,9.800020218
1784148254.876451,0.002549515,-0.048133872,-0.260828316,0.001141807,0.001062427,0.000224096,0.465157509,0.008905755,9.805795670
1784148254.878457,0.002549515,-0.048133872,-0.260828316,0.000887475,0.001235661,0.000683121,0.461559564,0.044854805,9.797504425
1784148254.880458,0.002551936,-0.048133403,-0.260828346,0.000445645,0.000988304,0.000744250,0.487621456,0.046840649,9.786334038
1784148254.882454,0.002551936,-0.048133403,-0.260828346,0.000465641,0.000555200,0.000336621,0.482484519,0.030726409,9.793399811
1784148254.884528,0.002551936,-0.048133403,-0.260828346,0.000680272,0.000328079,-0.000049781,0.496325403,0.025140857,9.797860146
1784148254.886500,0.002552132,-0.048134267,-0.260828346,0.000204285,0.000205552,-0.000350089,0.496069074,0.039633986,9.776432991
1784148254.888474,0.002552132,-0.048134267,-0.260828346,-0.000577194,0.000083874,-0.000389213,0.500591934,0.005106360,9.772180557
1784148254.890499,0.002551173,-0.048135597,-0.260828316,-0.000570923,-0.000246070,-0.000237626,0.447820902,0.021761917,9.793309212
1784148254.892497,0.002551173,-0.048135597,-0.260828316,0.000228964,-0.000600457,-0.000541760,0.474239200,0.017340191,9.800478935
1784148254.894471,0.002551173,-0.048135597,-0.260828316,0.000920604,-0.000841135,-0.000871359,0.475821912,0.036617067,9.796120644
1784148254.896477,0.002551283,-0.048135996,-0.260828316,0.001171667,-0.000820398,-0.000352601,0.463754416,0.040794410,9.797480583
1784148254.898470,0.002551283,-0.048135996,-0.260828316,0.001506584,-0.000105516,0.000119708,0.477256119,0.043779910,9.794374466
1784148254.900467,0.002552158,-0.048136454,-0.260828316,0.001572941,0.000565273,-0.000203584,0.458787292,0.034125879,9.736012459
1784148254.902483,0.002552158,-0.048136454,-0.260828316,0.000945633,0.000414024,-0.000570099,0.502747655,-0.001289234,9.785591125
1784148254.904481,0.002552158,-0.048136454,-0.260828316,0.000357973,-0.000055289,-0.000749052,0.489790678,0.004583339,9.802206039
1784148254.906482,0.002550702,-0.048137687,-0.260828316,0.000114475,-0.000074408,-0.001003688,0.474341005,0.024628393,9.783489227
1784148254.908479,0.002550702,-0.048137687,-0.260828316,-0.000081774,0.000014881,-0.000376311,0.452934623,0.037288278,9.805966377
1784148254.910478,0.002551147,-0.048136130,-0.260828346,-0.000264886,-0.000209840,0.000440084,0.474618673,0.047893755,9.787673950
1784148254.912476,0.002551147,-0.048136130,-0.260828346,-0.000266674,-0.000064551,0.000314678,0.494208664,0.035491794,9.795235634
1784148254.914480,0.002551147,-0.048136130,-0.260828346,-0.000520111,0.000064000,-0.000101885,0.470266521,0.020747054,9.769561768
1784148254.916488,0.002551200,-0.048136070,-0.260828346,-0.000819539,-0.000417310,-0.000372630,0.467656195,0.027507331,9.768707275
1784148254.918481,0.002551200,-0.048136070,-0.260828346,-0.000347296,-0.000469286,-0.000585155,0.496111453,0.044831458,9.801571846
1784148254.920482,0.002552655,-0.048137840,-0.260828346,0.000237800,0.000118230,-0.000411178,0.476043761,0.053363323,9.772018433
1784148254.922489,0.002552655,-0.048137840,-0.260828346,0.000210341,0.000494245,0.000183899,0.447953731,0.032131799,9.783961296
1784148254.924491,0.002552655,-0.048137840,-0.260828346,-0.000079251,0.000950181,0.000762407,0.470868945,0.034923438,9.791173935
1784148254.926491,0.002553222,-0.048137836,-0.260828316,-0.000272373,0.001229022,0.001039161,0.473577917,0.034615867,9.766515732
1784148254.928490,0.002553222,-0.048137836,-0.260828316,-0.000401563,0.000680159,0.000568684,0.448748767,0.023612220,9.783457756
1784148254.930493,0.002553389,-0.048136186,-0.260828316,-0.000642023,0.000190019,0.000532092,0.445791990,0.038479693,9.777274132
1784148254.932492,0.002553389,-0.048136186,-0.260828316,-0.000815359,0.000170164,0.001283545,0.478715062,0.014763453,9.776705742
1784148254.934498,0.002553389,-0.048136186,-0.260828316,-0.000537212,0.000588411,0.001003640,0.469895065,0.027847050,9.779918671
1784148254.936499,0.002553135,-0.048136082,-0.260828316,-0.000119037,0.000659663,0.000329428,0.480438828,0.046500571,9.784083366
1784148254.938497,0.002553135,-0.048136082,-0.260828316,-0.000164411,0.000278715,0.000593479,0.466559350,0.013380838,9.804032326
1784148254.940500,0.002552248,-0.048135564,-0.260828316,-0.000611322,0.000273213,0.001183836,0.464369714,0.053045768,9.774696350
1784148254.942500,0.002552248,-0.048135564,-0.260828316,-0.000700860,0.000199202,0.000873765,0.463231266,0.033728167,9.783986092
1784148254.944504,0.002552248,-0.048135564,-0.260828316,-0.000536100,-0.000447626,0.000067286,0.459789664,0.045885004,9.781818390
