time_sec,roll_rad,pitch_rad,yaw_rad,gyro_x,gyro_y,gyro_z,acc_x,acc_y,acc_z
1784151746.254967,-0.006146279,0.002451977,1.325148582,-0.000464119,0.002299199,0.000965143,-0.020714132,-0.053798568,9.795512199
1784151746.256879,-0.006146279,0.002451977,1.325148582,-0.000431358,0.002716731,0.000775444,-0.023642946,-0.035468221,9.806387901
1784151746.258865,-0.006145027,0.002451876,1.325148582,-0.000965223,0.003313903,0.000800464,-0.011385689,-0.024773823,9.792570114
1784151746.260844,-0.006145027,0.002451876,1.325148582,-0.001251748,0.003189748,0.000833789,-0.019764025,-0.049746618,9.791055679
1784151746.262843,-0.006145027,0.002451876,1.325148582,-0.000956400,0.002860872,0.000695072,-0.003718744,-0.058506187,9.796843529
1784151746.264875,-0.006145577,0.002450400,1.325148463,-0.000720887,0.002714386,0.000053015,-0.022052873,-0.052507382,9.805382729
1784151746.266856,-0.006145577,0.002450400,1.325148463,-0.000910425,0.002577782,-0.000776493,-0.024146540,-0.005195320,9.771611214
1784151746.268855,-0.006142474,0.002450674,1.325148582,-0.001552688,0.002733921,-0.001091329,-0.031955849,-0.019092485,9.786756516
1784151746.270869,-0.006142474,0.002450674,1.325148582,-0.001969861,0.002540581,-0.001232055,-0.037188727,-0.080443822,9.791738510
1784151746.272856,-0.006142474,0.002450674,1.325148582,-0.001843937,0.002069675,-0.001101055,-0.046089236,-0.074479900,9.788183212
1784151746.274851,-0.006143305,0.002451192,1.325148582,-0.001187805,0.002185642,-0.000532821,-0.038310707,-0.061231013,9.801276207
1784151746.276836,-0.006143305,0.002451192,1.325148582,-0.000364209,0.002394272,-0.000424509,-0.005488871,-0.057072535,9.787436485
1784151746.278842,-0.006143225,0.002450404,1.325148582,0.000160296,0.002118963,-0.000979919,-0.026961217,-0.052227929,9.774892807
1784151746.280841,-0.006143225,0.002450404,1.325148582,-0.000385375,0.001493769,-0.000955125,-0.046542130,-0.037322618,9.793351173
1784151746.282838,-0.006143225,0.002450404,1.325148582,-0.001220024,0.000877281,-0.000324894,-0.050249305,-0.047525667,9.785661697
1784151746.284861,-0.006142028,0.002452331,1.325148582,-0.001119755,0.000638743,-0.000224514,-0.024266867,-0.051029831,9.790595055
1784151746.286882,-0.006142028,0.002452331,1.325148582,-0.000029111,0.000852194,-0.000508651,-0.026174795,-0.058384068,9.820136070
1784151746.288859,-0.006141556,0.002452403,1.325148582,0.000511522,0.000938432,-0.000716431,-0.039736275,-0.031140573,9.793846130
1784151746.290855,-0.006141556,0.002452403,1.325148582,0.000088025,0.000790426,-0.000274560,-0.044704851,-0.033768285,9.794273376
1784151746.292858,-0.006141556,0.002452403,1.325148582,0.000178665,0.000874410,0.000355923,-0.031027600,-0.016428936,9.788568497
1784151746.294924,-0.006139606,0.002452207,1.325148582,0.000520415,0.001241705,0.000311915,-0.050275199,-0.048945863,9.796412468
1784151746.296917,-0.006139606,0.002452207,1.325148582,0.000421430,0.001064154,0.000096305,-0.060760036,-0.062271547,9.799006462
1784151746.298957,-0.006139069,0.002454462,1.325148582,0.000093848,0.000774022,0.000190659,-0.032430105,-0.057283651,9.802652359
1784151746.300880,-0.006139069,0.002454462,1.325148582,-0.000124373,0.000743434,0.000097968,-0.021288626,-0.064512081,9.790960312
1784151746.302919,-0.006139069,0.002454462,1.325148582,0.000000448,0.000056548,-0.000694880,-0.030522527,-0.085495800,9.797094345
1784151746.304901,-0.006140353,0.002454472,1.325148582,0.000145469,-0.000602323,-0.001941176,-0.018751483,-0.077118114,9.794917107
1784151746.306966,-0.006140353,0.002454472,1.325148582,-0.000340632,-0.000520936,-0.002359503,-0.048653018,-0.064110510,9.783762932
1784151746.308900,-0.006140533,0.002455855,1.325148582,-0.000962869,-0.000065871,-0.002157021,-0.025364174,-0.067996338,9.784209251
1784151746.310882,-0.006140533,0.002455855,1.325148582,-0.001325872,0.000211886,-0.002208240,-0.049450245,-0.056013454,9.780675888
1784151746.312885,-0.006140533,0.002455855,1.325148582,-0.001899444,0.000343019,-0.001831249,-0.042570166,-0.079945952,9.794427872
1784151746.314878,-0.006141649,0.002456238,1.325148582,-0.002354983,0.000347520,-0.001322509,-0.015371878,-0.055821560,9.818369865
1784151746.316867,-0.006141649,0.002456238,1.325148582,-0.002254495,0.000237146,-0.000789376,-0.022032619,-0.051131707,9.800909042
1784151746.318913,-0.006140594,0.002456997,1.325148582,-0.001835836,0.000403012,-0.000074142,-0.025925180,-0.037771497,9.819371223
1784151746.320884,-0.006140594,0.002456997,1.325148582,-0.001278450,0.000431790,0.000338477,-0.042695768,-0.052668631,9.802224159
1784151746.322883,-0.006140594,0.002456997,1.325148582,-0.000636522,0.000469871,0.000368758,-0.035242349,-0.031954087,9.774119377
1784151746.324877,-0.006139482,0.002457576,1.325148582,-0.000238059,0.000733898,0.000139298,-0.028754283,-0.013385552,9.797558784
1784151746.326887,-0.006139482,0.002457576,1.325148582,-0.000402736,0.000731051,0.000313314,-0.040384810,-0.011332938,9.781867981
1784151746.328882,-0.006136783,0.002457966,1.325148582,-0.000376506,0.000871393,0.000441108,-0.038706414,-0.020785376,9.784947395
1784151746.330914,-0.006136783,0.002457966,1.325148582,-0.000484771,0.000762889,-0.000098986,-0.056452882,-0.039937951,9.800947189
1784151746.332879,-0.006136783,0.002457966,1.325148582,-0.001070075,0.000548743,-0.001053601,-0.041595761,-0.036896557,9.787531853
1784151746.334880,-0.006134996,0.002458873,1.325148582,-0.001039715,0.000855020,-0.001619365,-0.034532584,-0.045604739,9.802276611
1784151746.336875,-0.006134996,0.002458873,1.325148582,-0.000281718,0.000636454,-0.001743980,-0.040556576,-0.062031422,9.791853905
1784151746.338881,-0.006135424,0.002459198,1.325148582,0.000069348,0.000298632,-0.001709713,0.000835187,-0.090762213,9.788123131
1784151746.340881,-0.006135424,0.002459198,1.325148582,-0.000357672,0.000420764,-0.001828198,0.004291139,-0.101184435,9.798371315
1784151746.342877,-0.006135424,0.002459198,1.325148582,-0.001375363,0.000373472,-0.001934447,-0.030436900,-0.076714620,9.822255135
1784151746.344883,-0.006136872,0.002459294,1.325148582,-0.001864454,0.000334197,-0.001668489,-0.074857831,-0.038145687,9.834117889
1784151746.346898,-0.006136872,0.002459294,1.325148582,-0.000918197,0.000416207,-0.001255434,-0.070293836,-0.070322216,9.814188957
1784151746.348920,-0.006137412,0.002460802,1.325148582,0.000278139,0.000647488,-0.000465368,-0.081398323,-0.061991185,9.796747208
1784151746.350907,-0.006137412,0.002460802,1.325148582,0.001114321,0.000923465,0.000255144,-0.051160347,-0.048432346,9.788792610
1784151746.352918,-0.006137412,0.002460802,1.325148582,0.001376890,0.000735366,0.000271860,-0.051539145,-0.042606294,9.789278984
1784151746.354912,-0.006136927,0.002463298,1.325148582,0.001278969,0.000479116,-0.000312796,-0.001051028,-0.021954739,9.818601608
1784151746.356911,-0.006136927,0.002463298,1.325148582,0.001534077,0.000484034,-0.000267778,0.014187967,-0.063520648,9.776653290
1784151746.358928,-0.006136873,0.002461360,1.325148582,0.001897159,0.000266615,0.000269518,0.002068455,-0.099370211,9.799278259
1784151746.360909,-0.006136873,0.002461360,1.325148582,0.002108679,0.000217014,0.000625350,-0.029952478,-0.077654086,9.764416695
1784151746.362917,-0.006136873,0.002461360,1.325148582,0.002101420,0.000273613,0.000722365,-0.056166038,-0.053379353,9.800414085
1784151746.364942,-0.006137500,0.002462110,1.325148582,0.001677689,-0.000019861,0.000339214,-0.061740920,-0.032218646,9.796059608
1784151746.366980,-0.006137500,0.002462110,1.325148582,0.001136293,-0.000032710,-0.000011365,-0.054976739,-0.032444414,9.752576828
1784151746.368941,-0.006136116,0.002463013,1.325148582,0.000728165,0.000371727,-0.000210319,-0.043718264,-0.026996769,9.785350800
1784151746.370944,-0.006136116,0.002463013,1.325148582,0.000360744,0.000777763,-0.000787989,-0.037720282,-0.050796937,9.782065392
1784151746.372969,-0.006136116,0.002463013,1.325148582,0.000595901,0.000796929,-0.001010988,-0.014569889,-0.065907232,9.786026001
1784151746.374932,-0.006136733,0.002462496,1.325148582,0.001143971,0.000624401,-0.000776741,-0.024676839,-0.045855228,9.819769859
1784151746.376928,-0.006136733,0.002462496,1.325148582,0.000984531,0.000596729,-0.000931369,-0.030712979,-0.064404063,9.792744637
1784151746.378935,-0.006136890,0.002462333,1.325148582,0.000574692,0.000218425,-0.000829854,-0.040074725,-0.057722908,9.815196037
1784151746.380930,-0.006136890,0.002462333,1.325148582,0.001087227,-0.000247232,-0.000539050,-0.052303735,-0.066167966,9.827683449
1784151746.382956,-0.006136890,0.002462333,1.325148582,0.001991230,-0.000050986,-0.000521945,-0.072430775,-0.061346967,9.816037178
1784151746.384995,-0.006120739,0.002443414,1.325185895,0.001782903,0.000192139,0.000098003,-0.049055442,-0.057255350,9.828639984
1784151746.386969,-0.006120739,0.002443414,1.325185895,0.001303072,-0.000023872,0.000421118,-0.068163842,-0.042978249,9.808539391
1784151746.388953,-0.006120014,0.002444992,1.325185895,0.000774668,-0.000197696,-0.000258497,-0.041573778,-0.034291461,9.799204826
1784151746.390971,-0.006120014,0.002444992,1.325185895,0.000097124,-0.000539705,-0.000340063,-0.034966383,-0.045481343,9.785688400
1784151746.392965,-0.006120014,0.002444992,1.325185895,0.000253026,-0.000746841,0.000414115,-0.038454857,-0.074526772,9.781015396
1784151746.395017,-0.006121134,0.002446340,1.325185895,0.000224432,-0.000609877,0.001235680,-0.012661370,-0.055306345,9.804028511
1784151746.396966,-0.006121134,0.002446340,1.325185895,-0.000084821,-0.000522333,0.001400412,-0.019260362,-0.008486503,9.784596443
1784151746.398957,-0.006118885,0.002446014,1.325185895,0.000306737,-0.000372225,0.001034480,-0.003871108,-0.069435321,9.821881294
1784151746.400981,-0.006118885,0.002446014,1.325185895,0.000373082,-0.000440505,0.000766565,-0.016541744,-0.043470889,9.784822464
1784151746.402951,-0.006118885,0.002446014,1.325185895,-0.000232906,-0.000842067,0.000387873,-0.037040729,-0.067522906,9.801687241
1784151746.404946,-0.006119432,0.002446709,1.325185895,-0.000440285,-0.001209565,0.000184162,-0.038144290,-0.046543691,9.814820290
1784151746.406965,-0.006119432,0.002446709,1.325185895,0.000022817,-0.001485233,0.000253314,-0.038082268,-0.043217186,9.787941933
1784151746.408967,-0.006118527,0.002446863,1.325185895,0.000974383,-0.001781456,0.000105565,-0.055654045,-0.048022281,9.802242279
1784151746.410962,-0.006118527,0.002446863,1.325185895,0.001525249,-0.001709832,0.000342291,-0.011801087,-0.060473986,9.773060799
1784151746.412950,-0.006118527,0.002446863,1.325185895,0.000862315,-0.001377409,0.000713183,-0.025690204,-0.058916900,9.768127441
1784151746.414957,-0.006118362,0.002447348,1.325185895,-0.000076464,-0.001490200,0.000962621,-0.009479610,-0.054618824,9.764583588
1784151746.416969,-0.006118362,0.002447348,1.325185895,-0.000543402,-0.001609709,0.000982004,-0.022539329,-0.057257507,9.781142235
1784151746.419000,-0.006118471,0.002447108,1.325185895,-0.000806802,-0.001353731,0.000691277,-0.027317034,-0.040546950,9.834148407
1784151746.420999,-0.006118471,0.002447108,1.325185895,-0.001179287,-0.001042301,0.000967293,-0.060904980,-0.037983686,9.786160469
1784151746.422972,-0.006118471,0.002447108,1.325185895,-0.001525190,-0.000872826,0.001853899,-0.063126102,-0.035346668,9.797385216
1784151746.424965,-0.006117354,0.002449115,1.325185895,-0.001323851,-0.000610812,0.002591533,-0.045777932,-0.048517246,9.791040421
1784151746.426967,-0.006117354,0.002449115,1.325185895,-0.000540691,-0.000329832,0.001993141,-0.029092576,-0.042398095,9.782576561
1784151746.428972,-0.006116338,0.002448707,1.325185895,-0.000062466,-0.000444036,0.000887379,-0.010532133,-0.028778816,9.787164688
1784151746.430974,-0.006116338,0.002448707,1.325185895,-0.000335063,-0.001061620,0.000258396,-0.014205874,-0.035881113,9.784424782
1784151746.432980,-0.006116338,0.002448707,1.325185895,-0.001129006,-0.001466892,-0.000561544,-0.005952578,-0.020811163,9.792600632
1784151746.434971,-0.006114701,0.002448402,1.325185895,-0.001591284,-0.001043855,-0.001082469,-0.038351268,-0.028419182,9.786691666
1784151746.436972,-0.006114701,0.002448402,1.325185895,-0.000772340,-0.000769126,-0.000972908,-0.057705902,-0.106665686,9.798724174
1784151746.438971,-0.006117151,0.002450326,1.325185895,0.000160220,-0.001221910,-0.000679576,-0.042654000,-0.085470930,9.815463066
1784151746.440973,-0.006117151,0.002450326,1.325185895,-0.000139001,-0.001757086,-0.000486638,-0.016442502,-0.074198358,9.758174896
1784151746.442976,-0.006117151,0.002450326,1.325185895,-0.000586723,-0.001745950,-0.000759407,-0.034431316,-0.038726334,9.779905319
1784151746.444973,-0.006116713,0.002450637,1.325185895,-0.000369767,-0.001706810,-0.001101495,-0.022502379,-0.017754873,9.770636559
1784151746.446976,-0.006116713,0.002450637,1.325185895,-0.000145186,-0.002096317,-0.000811371,-0.029099584,-0.005268807,9.790884972
1784151746.448978,-0.006114778,0.002451096,1.325185895,-0.000090168,-0.002256666,0.000014257,-0.009385688,-0.043340672,9.816661835
1784151746.450980,-0.006114778,0.002451096,1.325185895,-0.000336476,-0.002100513,0.000634837,0.002528903,-0.062503859,9.780683517
1784151746.452981,-0.006114778,0.002451096,1.325185895,-0.000663485,-0.002412720,0.000362242,-0.028369173,-0.055130567,9.807601929
1784151746.454982,-0.006114859,0.002450647,1.325185895,-0.000345189,-0.003076259,-0.000144766,-0.027128825,-0.029334832,9.769212723
1784151746.456983,-0.006114859,0.002450647,1.325185895,0.000308425,-0.003041547,-0.000618871,-0.020952636,-0.037138764,9.784411430
1784151746.458996,-0.006113851,0.002450065,1.325185895,0.000665625,-0.002383013,-0.001285845,0.004962945,-0.044007584,9.821602821
1784151746.460986,-0.006113851,0.002450065,1.325185895,0.000454069,-0.002060073,-0.001791403,0.008246321,-0.070381545,9.807091713
1784151746.462994,-0.006113851,0.002450065,1.325185895,-0.000247973,-0.002288103,-0.001964579,-0.034959596,-0.044617210,9.790177345
1784151746.464992,-0.006112837,0.002450673,1.325185895,-0.000924093,-0.002439980,-0.001188328,-0.037570853,-0.038269930,9.784387589
1784151746.466991,-0.006112837,0.002450673,1.325185895,-0.000707844,-0.002146274,-0.000294525,-0.034862865,-0.036153644,9.796957016
1784151746.469002,-0.006111479,0.002451133,1.325185895,-0.000056550,-0.001660785,-0.000760314,-0.032911841,-0.060375474,9.797252655
1784151746.470999,-0.006111479,0.002451133,1.325185895,0.000311711,-0.001142645,-0.001315511,-0.066904761,-0.089782789,9.772372246
1784151746.473001,-0.006111479,0.002451133,1.325185895,0.001122579,-0.000665476,-0.001321408,-0.033187870,-0.083628111,9.791275024
1784151746.475003,-0.006112365,0.002451962,1.325185895,0.001870651,-0.000805760,-0.001292069,0.021363527,-0.062831178,9.792805672
1784151746.476997,-0.006112365,0.002451962,1.325185895,0.001576186,-0.001496308,-0.000715702,-0.020666312,-0.048963204,9.808545113
1784151746.479010,-0.006111739,0.002451651,1.325185895,0.000222846,-0.001951641,-0.000207108,-0.026874904,-0.044657107,9.781217575
1784151746.481004,-0.006111739,0.002451651,1.325185895,-0.000993722,-0.001972217,-0.000268480,-0.036836691,-0.052133244,9.779368401
1784151746.483002,-0.006111739,0.002451651,1.325185895,-0.000972503,-0.001708007,-0.000472657,-0.043452188,-0.040196884,9.813959122
1784151746.485011,-0.006111201,0.002452321,1.325185895,-0.000090774,-0.001721315,-0.000873894,-0.032783229,-0.049633943,9.798666000
1784151746.487015,-0.006111201,0.002452321,1.325185895,0.000478978,-0.001695889,-0.000895333,-0.039457154,-0.081422284,9.807421684
1784151746.489009,-0.006112289,0.002452481,1.325185895,0.000628409,-0.001012738,-0.000221702,-0.023265552,-0.079300433,9.794898987
1784151746.491017,-0.006112289,0.002452481,1.325185895,0.000848300,-0.000334725,0.000017488,-0.012972740,-0.083295785,9.771121979
1784151746.493013,-0.006112289,0.002452481,1.325185895,0.001022285,-0.000446945,-0.000786418,-0.032358177,-0.051447440,9.800896645
1784151746.495015,-0.006111580,0.002452508,1.325185895,0.001054432,-0.000888434,-0.001247847,-0.039357536,-0.036156561,9.805471420
1784151746.497017,-0.006111580,0.002452508,1.325185895,0.000968094,-0.001229637,-0.001132982,-0.025146367,-0.047634959,9.818861961
1784151746.499017,-0.006110606,0.002452491,1.325185895,0.000706304,-0.001458610,-0.000959251,-0.035400704,-0.043740980,9.793770790
1784151746.501017,-0.006110606,0.002452491,1.325185895,-0.000081375,-0.001514856,-0.000201210,-0.019445539,-0.060506605,9.791436195
1784151746.503023,-0.006110606,0.002452491,1.325185895,-0.000436530,-0.001361303,0.000532965,-0.036071986,-0.099697970,9.788029671
1784151746.505021,-0.006112266,0.002453033,1.325185895,-0.000346332,-0.000854344,0.000601212,-0.026125042,-0.093149543,9.794359207
1784151746.507024,-0.006112266,0.002453033,1.325185895,-0.000625518,-0.000554857,0.000902718,-0.009445666,-0.087888166,9.780509949
1784151746.509026,-0.006113668,0.002451666,1.325185895,-0.000326344,-0.000648975,0.001265835,-0.008789006,-0.070852317,9.777929306
1784151746.511030,-0.006113668,0.002451666,1.325185895,0.000379702,-0.000792918,0.001223836,-0.028871574,-0.062438086,9.764964104
1784151746.513031,-0.006113668,0.002451666,1.325185895,0.000731205,-0.000896356,0.001247146,-0.007035271,-0.036446504,9.788014412
1784151746.515028,-0.006112393,0.002450741,1.325185895,0.000965121,-0.001401902,0.001008969,-0.010511314,-0.064583302,9.781556129
1784151746.517027,-0.006112393,0.002450741,1.325185895,0.001425055,-0.001702640,0.001052918,-0.029434254,-0.069005862,9.807511330
1784151746.519030,-0.006112699,0.002451490,1.325185895,0.001697779,-0.000967980,0.001234563,-0.039878935,-0.080393434,9.789496422
1784151746.521035,-0.006112699,0.002451490,1.325185895,0.001457656,-0.000860590,0.001454068,-0.011265506,-0.090089068,9.778252602
1784151746.523041,-0.006112699,0.002451490,1.325185895,0.000908207,-0.001808924,0.002365837,0.019869590,-0.075328216,9.788688660
1784151746.525033,-0.006113768,0.002449139,1.325185895,0.000479622,-0.001849396,0.002690645,0.007031924,-0.060814023,9.786975861
1784151746.527033,-0.006113768,0.002449139,1.325185895,0.000541146,-0.000959306,0.002012339,0.009320328,-0.054409523,9.827368736
1784151746.529040,-0.006113038,0.002447608,1.325185895,0.000635418,-0.000761177,0.001479666,-0.005137528,-0.065141574,9.787384987
1784151746.531073,-0.006113038,0.002447608,1.325185895,0.000168722,-0.001531907,0.001555018,-0.027988890,-0.062160607,9.787382126
1784151746.533043,-0.006113038,0.002447608,1.325185895,-0.000519254,-0.002433601,0.001932395,0.001591176,-0.062000256,9.837624550
1784151746.535041,-0.006113456,0.002446641,1.325185895,-0.000814629,-0.002619956,0.001434031,-0.006802405,-0.053150821,9.805393219
1784151746.537045,-0.006113456,0.002446641,1.325185895,-0.000730031,-0.001804546,0.001004547,-0.036303394,-0.042960741,9.811707497
1784151746.539073,-0.006112919,0.002447087,1.325185895,-0.000904395,-0.001000405,0.002064405,-0.018696589,-0.072632134,9.794048309
1784151746.541053,-0.006112919,0.002447087,1.325185895,-0.000618515,-0.000759042,0.002510305,0.014439706,-0.079265445,9.785071373
1784151746.543091,-0.006112919,0.002447087,1.325185895,0.000260419,-0.000621017,0.001951455,-0.036489084,-0.058610763,9.807571411
1784151746.545058,-0.006113136,0.002446880,1.325185895,0.000611159,-0.000430560,0.002067882,-0.046231121,-0.047736391,9.808080673
1784151746.547061,-0.006113136,0.002446880,1.325185895,0.001012193,-0.000238610,0.002026863,-0.068054855,-0.034012672,9.807698250
1784151746.549059,-0.006111904,0.002448671,1.325185895,0.001518912,-0.000317191,0.002014156,-0.014366698,-0.046877015,9.818876266
1784151746.551053,-0.006111904,0.002448671,1.325185895,0.001629349,-0.000770949,0.002543834,-0.018158929,-0.065451436,9.791405678
1784151746.553061,-0.006111904,0.002448671,1.325185895,0.001201546,-0.001311242,0.002801360,-0.016664475,-0.051734507,9.813014030
1784151746.555063,-0.006111783,0.002448448,1.325185895,0.000475200,-0.001697491,0.002519000,-0.017171407,-0.057456866,9.799528122
1784151746.557059,-0.006111783,0.002448448,1.325185895,0.000130501,-0.001831551,0.001447930,-0.021611938,-0.053790249,9.795959473
1784151746.559070,-0.006110983,0.002448521,1.325185895,0.000007595,-0.001821382,0.000469902,-0.009497839,-0.053141762,9.808977127
1784151746.561062,-0.006110983,0.002448521,1.325185895,-0.000425386,-0.001687597,0.000299131,0.005144597,-0.031226199,9.788061142
1784151746.563071,-0.006110983,0.002448521,1.325185895,-0.000900943,-0.001354310,0.000157734,-0.023881907,-0.018001536,9.807843208
1784151746.565069,-0.006108387,0.002447852,1.325185895,-0.000668496,-0.001081867,0.000073865,0.000122155,-0.038736966,9.782179832
1784151746.567068,-0.006108387,0.002447852,1.325185895,0.000187680,-0.000891245,0.000086022,0.001183895,-0.060856931,9.803559303
1784151746.569073,-0.006108321,0.002446595,1.325185895,0.000580220,-0.000390013,0.000114581,-0.020144941,-0.045153148,9.775841713
1784151746.571095,-0.006108321,0.002446595,1.325185895,-0.000021526,-0.000159957,0.000241534,-0.004027566,-0.047669884,9.785704613
1784151746.573083,-0.006108321,0.002446595,1.325185895,-0.000715230,-0.000327832,-0.000282018,-0.013064330,-0.052507907,9.789251328
1784151746.575083,-0.006107833,0.002446453,1.325185895,-0.000799949,-0.000127357,-0.001202508,-0.000049550,-0.052655555,9.786574364
1784151746.577075,-0.006107833,0.002446453,1.325185895,-0.000448185,-0.000061752,-0.001223001,-0.009682549,-0.068378799,9.809777260
1784151746.579084,-0.006108807,0.002446186,1.325185895,-0.000216401,-0.000467550,-0.000608683,-0.023608493,-0.070354529,9.797645569
1784151746.581086,-0.006108807,0.002446186,1.325185895,-0.000517477,-0.000932782,-0.001029337,-0.026249541,-0.029489415,9.789387703
1784151746.583086,-0.006108807,0.002446186,1.325185895,-0.001078297,-0.001210367,-0.001931690,-0.008008403,-0.042706460,9.787975311
1784151746.585085,-0.006107049,0.002445984,1.325185895,-0.001538987,-0.001109134,-0.002081986,-0.010590717,-0.070073299,9.797659874
1784151746.587086,-0.006107049,0.002445984,1.325185895,-0.001364998,-0.000612222,-0.001646754,-0.020010525,-0.068713605,9.812455177
1784151746.589093,-0.006107521,0.002445712,1.325185895,-0.000712325,-0.000059235,-0.001111170,-0.011678229,-0.048156831,9.804972649
1784151746.591088,-0.006107521,0.002445712,1.325185895,-0.000417130,0.000241875,-0.001425877,-0.002970886,-0.069424562,9.818742752
1784151746.593089,-0.006107521,0.002445712,1.325185895,-0.000241943,0.000049672,-0.001982426,-0.013060238,-0.050449342,9.814820290
1784151746.595088,-0.006106649,0.002445977,1.325185895,-0.000045733,-0.000275616,-0.001648665,-0.010992109,-0.028862091,9.799716949
1784151746.597176,-0.006106649,0.002445977,1.325185895,0.000047405,-0.000098177,-0.001385243,-0.051395904,-0.027696753,9.834655762
1784151746.599110,-0.006105313,0.002447629,1.325185895,0.000101794,0.000340539,-0.001733194,-0.016008915,-0.036328346,9.787559509
1784151746.601099,-0.006105313,0.002447629,1.325185895,0.000144450,0.000877868,-0.002274283,-0.015751589,-0.051218551,9.801811218
1784151746.603096,-0.006105313,0.002447629,1.325185895,-0.000076397,0.001432575,-0.002433279,0.018516693,-0.076175101,9.784198761
1784151746.605100,-0.006106040,0.002444778,1.325185895,-0.000907475,0.001840689,-0.002026645,-0.019909834,-0.062245015,9.784699440
1784151746.607104,-0.006106040,0.002444778,1.325185895,-0.001518084,0.001652295,-0.001769235,-0.027096132,-0.024213666,9.805110931
1784151746.609104,-0.006104390,0.002445006,1.325185895,-0.001319087,0.000772577,-0.001981967,0.002820692,-0.074690409,9.792712212
1784151746.611102,-0.006104390,0.002445006,1.325185895,-0.000937789,0.000272494,-0.002027470,-0.006554814,-0.070144117,9.800352097
1784151746.613114,-0.006104390,0.002445006,1.325185895,-0.000841810,-0.000092398,-0.001645719,-0.009136940,-0.059514355,9.822387695
1784151746.615111,-0.006105254,0.002443691,1.325185895,-0.000592351,-0.000538375,-0.001657165,-0.033833407,-0.060554750,9.824151039
1784151746.617110,-0.006105254,0.002443691,1.325185895,-0.000368204,-0.000340196,-0.001915246,-0.012666943,-0.053324096,9.840356827
1784151746.619112,-0.006105236,0.002443358,1.325185895,-0.000454734,0.000165304,-0.001848916,0.000413432,-0.049306549,9.818876266
1784151746.621122,-0.006105236,0.002443358,1.325185895,-0.000521887,0.000208064,-0.001549690,-0.014252762,-0.036656588,9.830598831
1784151746.623113,-0.006105236,0.002443358,1.325185895,-0.000428165,0.000022571,-0.001477101,-0.000611959,-0.063273683,9.768570900
1784151746.625119,-0.006105091,0.002442542,1.325185895,-0.000303355,0.000067709,-0.001567542,0.003234174,-0.078216262,9.783722878
1784151746.627116,-0.006105091,0.002442542,1.325185895,-0.000485487,0.000028772,-0.001182965,0.003457149,-0.059840307,9.782495499
1784151746.629122,-0.006105077,0.002441847,1.325185895,-0.000418753,0.000017141,-0.001046810,-0.008498775,-0.083861649,9.779640198
1784151746.631118,-0.006105077,0.002441847,1.325185895,-0.000147941,0.000334684,-0.001667525,-0.034653593,-0.055475779,9.804454803
1784151746.633122,-0.006105077,0.002441847,1.325185895,-0.000133856,0.000439336,-0.001687463,0.000858216,-0.050964244,9.799138069
1784151746.635120,-0.006105127,0.002440723,1.325185895,-0.000097493,-0.000210433,-0.000767296,-0.023745019,-0.042352986,9.829657555
1784151746.637130,-0.006105127,0.002440723,1.325185895,-0.000052878,-0.000753871,-0.000440311,-0.008246396,-0.062416751,9.787847519
1784151746.639129,-0.006105224,0.002440301,1.325185895,0.000224775,-0.000444015,-0.001244789,-0.015465911,-0.065479569,9.790511131
1784151746.641125,-0.006105224,0.002440301,1.325185895,0.000431571,0.000160752,-0.002009242,-0.016463548,-0.072743550,9.805706978
1784151746.643141,-0.006105224,0.002440301,1.325185895,0.000526743,0.000651266,-0.001807772,0.001888471,-0.078195833,9.783272743
1784151746.645135,-0.006105659,0.002439472,1.325185895,0.000412459,0.000968383,-0.000650617,0.005504208,-0.077225067,9.766246796
1784151746.647131,-0.006105659,0.002439472,1.325185895,-0.000213890,0.001150925,0.000245380,-0.010272177,-0.081643365,9.785929680
1784151746.649132,-0.006106120,0.002439693,1.325185895,-0.000429012,0.001629488,-0.000110488,-0.054522682,-0.031192139,9.764691353
1784151746.651132,-0.006106120,0.002439693,1.325185895,-0.000150762,0.002098646,-0.000242009,-0.007466365,-0.034680713,9.792510033
1784151746.653162,-0.006106120,0.002439693,1.325185895,-0.000208236,0.001970157,0.000489529,-0.021528218,-0.046645124,9.799143791
1784151746.655151,-0.006105782,0.002439266,1.325185895,-0.000143319,0.001731078,0.001075962,-0.024579475,-0.037791919,9.819821358
1784151746.657149,-0.006105782,0.002439266,1.325185895,0.000360765,0.001949295,0.001289462,-0.024015872,-0.030001093,9.794317245
1784151746.659150,-0.006104599,0.002439660,1.325185895,0.000277455,0.002204336,0.001246244,-0.024925191,-0.067268327,9.807079315
1784151746.661148,-0.006104599,0.002439660,1.325185895,-0.000441802,0.001677486,0.001173640,0.002159212,-0.054174449,9.807188988
1784151746.663157,-0.006104599,0.002439660,1.325185895,-0.001149899,0.000902118,0.000721134,0.002829278,-0.035816975,9.807755470
1784151746.665154,-0.006103554,0.002438256,1.325185895,-0.001423450,0.000895732,-0.000110465,-0.029171227,-0.047071662,9.809894562
1784151746.667158,-0.006103554,0.002438256,1.325185895,-0.000968475,0.001330242,-0.000099029,-0.001719833,-0.041112758,9.804578781
1784151746.669166,-0.006102609,0.002437844,1.325185895,-0.000636341,0.001823553,0.000433790,-0.018346390,-0.043930832,9.789750099
1784151746.671165,-0.006102609,0.002437844,1.325185895,-0.000990633,0.002207795,0.000748928,-0.005689275,-0.034843609,9.812237740
1784151746.673165,-0.006102609,0.002437844,1.325185895,-0.000908212,0.002161383,0.000760603,-0.007149033,-0.046260323,9.782124519
1784151746.675159,-0.006101310,0.002437552,1.325185895,-0.000559482,0.002000457,0.000443927,-0.023546686,-0.063787743,9.819208145
1784151746.677163,-0.006101310,0.002437552,1.325185895,-0.000521761,0.002009669,0.000520473,-0.017746117,-0.030176977,9.807772636
1784151746.679167,-0.006100034,0.002436848,1.325185895,-0.000370285,0.001903506,0.001153462,0.009189134,-0.030823620,9.787170410
1784151746.681163,-0.006100034,0.002436848,1.325185895,-0.000335675,0.001503220,0.001576564,-0.015787212,-0.054741837,9.793270111
1784151746.683164,-0.006100034,0.002436848,1.325185895,-0.000089694,0.001393986,0.001109929,-0.000075723,-0.052862227,9.815713882
1784151746.685175,-0.006099863,0.002435855,1.325185895,0.000603197,0.001905501,0.000340856,-0.023405192,-0.052944463,9.806276321
1784151746.687175,-0.006099863,0.002435855,1.325185895,0.001343119,0.002415939,0.000377446,-0.036350064,-0.046976499,9.809439659
1784151746.689203,-0.006099532,0.002437121,1.325185895,0.001566823,0.002140783,0.000797135,-0.026347945,-0.074745588,9.789992332
1784151746.691176,-0.006099532,0.002437121,1.325185895,0.001019929,0.001515787,0.001135485,-0.028203562,-0.040449589,9.822042465
1784151746.693171,-0.006099532,0.002437121,1.325185895,0.000315736,0.001172772,0.001219642,-0.014169105,-0.031538233,9.803731918
1784151746.695170,-0.006098000,0.002436248,1.325185895,-0.000086269,0.001033118,0.000722134,-0.007432877,-0.032390028,9.785350800
1784151746.697172,-0.006098000,0.002436248,1.325185895,-0.000229315,0.001415524,0.000398744,-0.024029866,-0.069322489,9.779270172
1784151746.699179,-0.006098827,0.002436562,1.325185895,-0.000098235,0.001867240,0.000868517,-0.019457148,-0.023818927,9.798845291
1784151746.701179,-0.006098827,0.002436562,1.325185895,0.000333765,0.001597271,0.001442612,-0.023157131,-0.033154681,9.795195580
1784151746.703174,-0.006098827,0.002436562,1.325185895,0.000648021,0.001241933,0.001318396,-0.031153161,-0.027551657,9.777737617
1784151746.705177,-0.006097245,0.002436991,1.325185895,-0.000001566,0.001536397,0.000597779,-0.042860679,-0.065723091,9.811106682
1784151746.707178,-0.006097245,0.002436991,1.325185895,-0.000978514,0.002025223,0.000254063,-0.014051500,-0.059689220,9.792791367
1784151746.709182,-0.006097525,0.002436394,1.325185895,-0.000936339,0.001939225,0.000327337,-0.000893148,-0.046950933,9.804990768
1784151746.711213,-0.006097525,0.002436394,1.325185895,-0.000474613,0.001584496,0.000289514,-0.007492202,-0.036910973,9.791150093
1784151746.713199,-0.006097525,0.002436394,1.325185895,-0.000566220,0.001905893,0.000390874,-0.014637843,-0.070901580,9.795409203
1784151746.715190,-0.006098239,0.002436100,1.325185895,-0.000597773,0.002084655,0.000626928,-0.037691459,-0.048137788,9.786117554
1784151746.717199,-0.006098239,0.002436100,1.325185895,0.000259411,0.001665746,0.000743074,-0.033511709,-0.074126154,9.778780937
1784151746.719219,-0.006098423,0.002436593,1.325185895,0.001462832,0.001390442,0.000810719,-0.038644455,-0.088991888,9.799304008
1784151746.721195,-0.006098423,0.002436593,1.325185895,0.002015167,0.001266155,0.000733545,-0.030664703,-0.060375601,9.793218613
1784151746.723211,-0.006098423,0.002436593,1.325185895,0.001319378,0.001619435,0.000678053,-0.045408119,-0.018039981,9.788993835
1784151746.725202,-0.006096609,0.002438338,1.325185895,0.000291753,0.002276513,0.000945907,-0.020009710,-0.031117279,9.818076134
1784151746.727196,-0.006096609,0.002438338,1.325185895,-0.000045000,0.002408098,0.001248068,-0.020005062,-0.034322590,9.764703751
1784151746.729201,-0.006095743,0.002437994,1.325185895,-0.000181954,0.002520012,0.001594813,-0.024345692,-0.056110024,9.812082291
1784151746.731198,-0.006095743,0.002437994,1.325185895,-0.000185931,0.003016812,0.001470792,-0.019076075,-0.068432577,9.771210670
1784151746.733214,-0.006095743,0.002437994,1.325185895,-0.000461793,0.003132116,0.000981495,-0.013800686,-0.076657079,9.784164429
1784151746.735203,-0.006096085,0.002437544,1.325185895,-0.001624014,0.002991160,0.000838889,-0.036671724,-0.074641988,9.794017792
1784151746.737216,-0.006096085,0.002437544,1.325185895,-0.002489758,0.002851133,0.000987489,-0.051497251,-0.039438765,9.784816742
1784151746.739213,-0.006094262,0.002439495,1.325185895,-0.002146369,0.002592969,0.001367198,-0.033044580,-0.034775525,9.788898468
1784151746.741210,-0.006094262,0.002439495,1.325185895,-0.001646135,0.002079435,0.001443825,-0.032971442,-0.028929774,9.785797119
1784151746.743215,-0.006094262,0.002439495,1.325185895,-0.001694400,0.001910319,0.001084943,-0.025059262,-0.042894617,9.782128334
1784151746.745214,-0.006092476,0.002440349,1.325185895,-0.001648968,0.002542438,0.000791733,-0.021741809,-0.063731238,9.808001518
1784151746.747213,-0.006092476,0.002440349,1.325185895,-0.001543142,0.003020699,0.000488088,-0.038308520,-0.060808502,9.804866791
1784151746.749222,-0.006091798,0.002441466,1.325185895,-0.001542221,0.003010055,0.000246713,-0.029924437,-0.072164454,9.811526299
1784151746.751225,-0.006091798,0.002441466,1.325185895,-0.001435978,0.002783734,0.000304497,-0.023425285,-0.091503486,9.810063362
1784151746.753223,-0.006091798,0.002441466,1.325185895,-0.001059136,0.001807883,-0.000018486,-0.045733053,-0.044920836,9.789268494
1784151746.755226,-0.006090839,0.002442470,1.325185895,-0.000554322,0.000609853,-0.000472746,-0.065051407,-0.044864394,9.816150665
1784151746.757255,-0.006090839,0.002442470,1.325185895,-0.000361300,0.000384521,-0.000403201,-0.049750544,-0.043083604,9.790173531
1784151746.759261,-0.006089254,0.002443228,1.325185895,-0.000216784,0.000475304,-0.000838510,-0.047917649,-0.040374320,9.783916473
1784151746.761241,-0.006089254,0.002443228,1.325185895,-0.000110117,0.000614971,-0.001407941,-0.046854988,-0.064108074,9.780178070
1784151746.763237,-0.006089254,0.002443228,1.325185895,-0.000248175,0.000949601,-0.001262206,-0.038642481,-0.050575957,9.815690994
1784151746.765287,-0.006089307,0.002443665,1.325185895,-0.000226506,0.000883526,-0.000742379,-0.043626428,-0.055351261,9.803102493
1784151746.767254,-0.006089307,0.002443665,1.325185895,0.000186784,0.000883000,-0.000019809,-0.028593471,-0.074732751,9.792233467
1784151746.769247,-0.006089418,0.002443144,1.325185895,0.000364836,0.001260487,0.000743158,-0.017961388,-0.049302582,9.788372040
1784151746.771259,-0.006089418,0.002443144,1.325185895,0.000721712,0.000865402,0.001566377,-0.034430616,-0.037099831,9.803227425
1784151746.773246,-0.006089418,0.002443144,1.325185895,0.001139642,0.000108680,0.002037359,-0.031625334,-0.028947020,9.785798073
1784151746.775239,-0.006087817,0.002443788,1.325185895,0.001091007,0.000247959,0.001932455,-0.032580733,-0.032230232,9.808193207
1784151746.777243,-0.006087817,0.002443788,1.325185895,0.001204093,0.000550240,0.001135317,-0.028836001,-0.058104742,9.785614014
1784151746.779243,-0.006087875,0.002443873,1.325185895,0.001338049,0.000535571,0.000607538,-0.017186431,-0.058791216,9.798174858
1784151746.781246,-0.006087875,0.002443873,1.325185895,0.001291972,0.000686435,0.000548662,-0.067673944,-0.041442975,9.780753136
1784151746.783248,-0.006087875,0.002443873,1.325185895,0.001076358,0.000620079,0.000215670,-0.047512803,-0.081963539,9.771993637
1784151746.785243,-0.006088215,0.002444930,1.325185895,0.000479638,0.000159289,0.000493596,-0.021556653,-0.086891063,9.788126945
1784151746.787247,-0.006088215,0.002444930,1.325185895,-0.000533259,-0.000099267,0.000876090,-0.045677982,-0.040028241,9.794232368
1784151746.789295,-0.006087021,0.002446559,1.325185895,-0.001266263,-0.000117712,-0.000144042,-0.086752079,-0.059653770,9.792721748
1784151746.791258,-0.006087021,0.002446559,1.325185895,-0.001004515,-0.000261628,-0.001554577,-0.046642203,-0.047028311,9.772217751
1784151746.793252,-0.006087021,0.002446559,1.325185895,-0.000541481,-0.000051397,-0.001605152,-0.018643076,-0.068562336,9.788694382
1784151746.795253,-0.006086871,0.002447044,1.325185895,-0.000435950,0.000497580,-0.001206914,-0.043403238,-0.074968725,9.789077759
1784151746.797270,-0.006086871,0.002447044,1.325185895,-0.000524276,0.000665406,-0.000936409,-0.072110973,-0.073717564,9.790852547
1784151746.799260,-0.006087780,0.002449024,1.325185895,-0.000230740,0.000476825,-0.000578047,-0.034534879,-0.044407114,9.822907448
1784151746.801258,-0.006087780,0.002449024,1.325185895,0.000035042,0.000053002,-0.000661481,-0.035062883,-0.054348346,9.772630692
1784151746.803266,-0.006087780,0.002449024,1.325185895,-0.000171490,-0.000415086,-0.000453008,-0.053326979,-0.041312538,9.799596786
1784151746.805263,-0.006086925,0.002450440,1.325185895,-0.000343147,-0.000903832,0.000347870,-0.046746004,-0.055142488,9.779339790
1784151746.807266,-0.006086925,0.002450440,1.325185895,-0.000757835,-0.001310200,0.000840302,-0.068643503,-0.046864253,9.788785934
1784151746.809268,-0.006086096,0.002452332,1.325185895,-0.000783346,-0.001157908,0.000985349,-0.051131807,-0.044559680,9.811233521
1784151746.811267,-0.006086096,0.002452332,1.325185895,-0.000528876,-0.000940142,0.000803215,-0.041224234,-0.080369823,9.788598061
1784151746.813279,-0.006086096,0.002452332,1.325185895,-0.000673365,-0.001226819,0.000487008,-0.011781684,-0.055457752,9.823756218
1784151746.815278,-0.006086434,0.002451705,1.325185895,-0.000974744,-0.001199002,0.000167403,-0.048097052,-0.053543251,9.808938026
1784151746.817278,-0.006086434,0.002451705,1.325185895,-0.001005249,-0.000477148,-0.000331994,-0.043996766,-0.049458414,9.794174194
1784151746.819284,-0.006085898,0.002452455,1.325185895,-0.000939308,-0.000080442,-0.000335343,-0.045183875,-0.035217702,9.809954643
1784151746.821279,-0.006085898,0.002452455,1.325185895,-0.001060071,-0.000312710,-0.000160437,-0.014027622,-0.058284927,9.784281731
1784151746.823279,-0.006085898,0.002452455,1.325185895,-0.001166038,-0.000516501,-0.000231811,-0.037926398,-0.068229273,9.776573181
1784151746.825279,-0.006086350,0.002452730,1.325185895,-0.001420757,-0.000357171,-0.000264321,-0.044086874,-0.057464488,9.786051750
1784151746.827279,-0.006086350,0.002452730,1.325185895,-0.001372693,-0.000369725,-0.000270298,-0.063174732,-0.040188383,9.785246849
1784151746.829297,-0.006085548,0.002454043,1.325185895,-0.000614853,-0.000387549,-0.000129138,-0.038696464,-0.056675710,9.791441917
1784151746.831327,-0.006085548,0.002454043,1.325185895,-0.000132451,-0.000113012,0.000173757,-0.008737389,-0.065581702,9.792757988
1784151746.833298,-0.006085548,0.002454043,1.325185895,0.000305299,-0.000274373,0.000464744,-0.014127683,-0.065153785,9.805309296
1784151746.835298,-0.006085643,0.002453506,1.325185895,0.000998402,-0.000899935,0.000674489,-0.051309556,-0.061362814,9.780192375
1784151746.837298,-0.006085643,0.002453506,1.325185895,0.000963519,-0.001150732,0.000647052,-0.045746569,-0.044622313,9.810341835
1784151746.839301,-0.006085107,0.002454363,1.325185895,0.000599216,-0.000985471,0.000249376,-0.037073921,-0.033437133,9.796972275
1784151746.841305,-0.006085107,0.002454363,1.325185895,0.000583429,-0.001261762,-0.000367072,-0.040211514,-0.069744721,9.804806709
1784151746.843303,-0.006085107,0.002454363,1.325185895,0.000821528,-0.001719709,-0.000492249,-0.033693228,-0.048100874,9.836783409
1784151746.845309,-0.006084786,0.002454351,1.325185895,0.001160700,-0.001574883,0.000358184,-0.051689263,-0.053922962,9.805794716
1784151746.847304,-0.006084786,0.002454351,1.325185895,0.001354259,-0.001344467,0.001249103,-0.052912749,-0.044021957,9.801821709
1784151746.849319,-0.006084235,0.002455745,1.325185895,0.001132903,-0.001419712,0.001083867,-0.040363699,-0.045514099,9.800029755
1784151746.851308,-0.006084235,0.002455745,1.325185895,0.000736816,-0.001629006,0.000149929,-0.043506518,-0.047109894,9.778048515
1784151746.853306,-0.006084235,0.002455745,1.325185895,0.000697546,-0.002091477,-0.000315145,-0.031811539,-0.042980082,9.806331635
1784151746.855304,-0.006083349,0.002456200,1.325185895,0.000797875,-0.002143667,-0.000345274,-0.018871170,-0.051009785,9.778048515
1784151746.857304,-0.006083349,0.002456200,1.325185895,0.000821927,-0.001782851,-0.000744166,-0.025287407,-0.059285127,9.819234848
1784151746.859315,-0.006083407,0.002456479,1.325185895,0.000924951,-0.002058463,-0.001434760,-0.055398330,-0.062925227,9.818285942
1784151746.861315,-0.006083407,0.002456479,1.325185895,0.000778459,-0.002653612,-0.001814036,-0.064951517,-0.038402162,9.789292336
1784151746.863314,-0.006083407,0.002456479,1.325185895,0.000346764,-0.002854991,-0.001223071,-0.036426526,-0.051227540,9.840346336
1784151746.865317,-0.006082886,0.002457076,1.325185895,-0.000129399,-0.002787280,-0.000250067,-0.027579322,-0.067338400,9.758656502
1784151746.867317,-0.006082886,0.002457076,1.325185895,-0.000598326,-0.002445108,-0.000117464,-0.043694858,-0.062375549,9.782882690
1784151746.869327,-0.006082356,0.002457738,1.325185895,-0.000557535,-0.002087982,-0.000669520,-0.021953445,-0.045238264,9.791083336
1784151746.871323,-0.006082356,0.002457738,1.325185895,-0.000257282,-0.001762393,-0.000475184,-0.032064024,-0.028051712,9.786699295
1784151746.873325,-0.006082356,0.002457738,1.325185895,-0.000076748,-0.001635001,0.000026752,-0.066236362,-0.035874836,9.751199722
1784151746.875326,-0.006082004,0.002458549,1.325185895,0.000086859,-0.002042978,-0.000187990,-0.031508069,-0.020321291,9.769714355
1784151746.877332,-0.006082004,0.002458549,1.325185895,-0.000407850,-0.002279015,-0.000435321,-0.003073590,-0.041155923,9.813096046
1784151746.879327,-0.006081591,0.002457871,1.325185895,-0.001617903,-0.002424137,-0.000562544,-0.036906727,-0.093923390,9.796584129
1784151746.881325,-0.006081591,0.002457871,1.325185895,-0.002176783,-0.002732988,-0.000385067,-0.035068303,-0.092386276,9.766110420
1784151746.883325,-0.006081591,0.002457871,1.325185895,-0.001531182,-0.002591240,-0.000270112,-0.004163933,-0.056851678,9.817028999
1784151746.885328,-0.006081868,0.002457456,1.325185895,-0.000680789,-0.002543528,-0.000601266,-0.021833116,-0.034156885,9.807743073
1784151746.887339,-0.006081868,0.002457456,1.325185895,-0.000338108,-0.003045208,-0.000936196,-0.032101944,-0.030377366,9.798790932
1784151746.889354,-0.006081070,0.002457770,1.325185895,-0.000665793,-0.003331348,-0.001361182,-0.027082346,-0.063315660,9.759131432
1784151746.891360,-0.006081070,0.002457770,1.325185895,-0.001095819,-0.002870879,-0.001811772,-0.046627581,-0.045697153,9.774019241
1784151746.893384,-0.006081070,0.002457770,1.325185895,-0.001116442,-0.002179932,-0.001920955,-0.042270761,-0.053672042,9.816564560
1784151746.895356,-0.006080466,0.002458414,1.325185895,-0.000452533,-0.002317086,-0.001479480,-0.009621909,-0.065468468,9.778411865
1784151746.897357,-0.006080466,0.002458414,1.325185895,0.000115729,-0.002870218,-0.000781173,-0.011129639,-0.076453462,9.813758850
1784151746.899350,-0.006081074,0.002457898,1.325185895,-0.000189094,-0.002939220,-0.000632782,-0.024999427,-0.074743763,9.787304878
1784151746.901346,-0.006081074,0.002457898,1.325185895,-0.000373630,-0.002933902,-0.000849243,-0.024532136,-0.072576471,9.796733856
1784151746.903347,-0.006081074,0.002457898,1.325185895,-0.000088924,-0.002628560,-0.001004588,-0.021009384,-0.078823976,9.786833763
1784151746.905357,-0.006081834,0.002457636,1.325185895,0.000178242,-0.001885122,-0.001060601,-0.025211288,-0.055847336,9.776664734
1784151746.907347,-0.006081834,0.002457636,1.325185895,0.000513732,-0.001564697,-0.000506705,-0.053431351,-0.012246550,9.807852745
1784151746.909350,-0.006079908,0.002458530,1.325185895,0.000659721,-0.001980726,0.000308219,-0.027996073,-0.025437944,9.789858818
1784151746.911383,-0.006079908,0.002458530,1.325185895,0.000621246,-0.002405243,0.000413577,0.006043720,-0.067598253,9.797691345
1784151746.913368,-0.006079908,0.002458530,1.325185895,0.000962626,-0.002085965,0.000079226,-0.008165836,-0.056107141,9.782508850
1784151746.915363,-0.006079868,0.002457790,1.325185895,0.001016408,-0.001473622,-0.000108383,-0.011218773,-0.049293425,9.774927139
1784151746.917402,-0.006079868,0.002457790,1.325185895,0.000648269,-0.001922661,-0.000322896,-0.026352488,-0.073160425,9.819145203
1784151746.919384,-0.006080637,0.002457935,1.325185895,0.000609897,-0.002808132,-0.000824897,-0.017664244,-0.060231086,9.812510490
1784151746.921421,-0.006080637,0.002457935,1.325185895,0.000792144,-0.002428947,-0.001274817,-0.031866837,-0.047469232,9.807646751
1784151746.923385,-0.006080637,0.002457935,1.325185895,0.000421111,-0.001791062,-0.000987604,-0.011900330,-0.029746518,9.799710274
1784151746.925395,-0.006079610,0.002457305,1.325185895,-0.000076187,-0.002154652,-0.000332052,-0.002043564,-0.033230938,9.767865181
1784151746.927405,-0.006079610,0.002457305,1.325185895,0.000135616,-0.002962148,-0.000434258,-0.010246960,-0.041422859,9.800533295
1784151746.929393,-0.006078921,0.002456876,1.325185895,-0.000339373,-0.003342192,-0.001068160,-0.003600726,-0.049064022,9.791973114
1784151746.931385,-0.006078921,0.002456876,1.325185895,-0.000865606,-0.003563110,-0.001529926,-0.035010453,-0.046234548,9.828723907
1784151746.933458,-0.006078921,0.002456876,1.325185895,-0.000038991,-0.003775527,-0.001467542,0.001160595,-0.061851427,9.817449570
1784151746.935436,-0.006079245,0.002456647,1.325185895,0.000464350,-0.002977018,-0.001128113,0.019131234,-0.061903328,9.792360306
1784151746.937412,-0.006079245,0.002456647,1.325185895,0.000040585,-0.001936366,-0.000951749,-0.015227797,-0.044552587,9.808578491
1784151746.939403,-0.006079113,0.002456483,1.325185895,-0.000241384,-0.002130185,-0.001207618,-0.007761212,-0.059702937,9.783382416
1784151746.941393,-0.006079113,0.002456483,1.325185895,-0.000074451,-0.002959142,-0.001433361,-0.008239026,-0.061142821,9.797719955
1784151746.943421,-0.006079113,0.002456483,1.325185895,0.000101544,-0.003405718,-0.000928931,-0.016877608,-0.069627516,9.809312820
1784151746.945397,-0.006079638,0.002456522,1.325185895,0.000268922,-0.003391252,-0.000270676,0.000836634,-0.053566158,9.787016869
1784151746.947393,-0.006079638,0.002456522,1.325185895,0.000264928,-0.003325248,0.000190914,0.001331787,-0.046315867,9.837725639
1784151746.949396,-0.006078852,0.002456008,1.325185895,-0.000227272,-0.003327325,0.000760793,-0.001779452,-0.047257029,9.786605835
1784151746.951393,-0.006078852,0.002456008,1.325185895,-0.000855550,-0.003252163,0.000887114,0.013449154,-0.049288858,9.792883873
1784151746.953393,-0.006078852,0.002456008,1.325185895,-0.001095097,-0.003214218,0.000401733,0.002743769,-0.043381434,9.800533295
1784151746.955393,-0.006078531,0.002454682,1.325185895,-0.001031888,-0.002937261,0.000067956,0.012448227,-0.058605049,9.781615257
1784151746.957391,-0.006078531,0.002454682,1.325185895,-0.000547281,-0.002255801,0.000080898,0.030949749,-0.049503542,9.791555405
1784151746.959401,-0.006077630,0.002452493,1.325185895,-0.000413194,-0.001937107,0.000107040,0.025948206,-0.018448919,9.780989647
1784151746.961395,-0.006077630,0.002452493,1.325185895,-0.001039853,-0.001910135,-0.000363609,-0.006935952,-0.027557239,9.797935486
1784151746.963396,-0.006077630,0.002452493,1.325185895,-0.001043929,-0.001841698,-0.000651326,-0.031647600,-0.030338595,9.792514801
1784151746.965402,-0.006076526,0.002452613,1.325185895,-0.000109418,-0.001948712,-0.000409014,-0.059737545,-0.053190276,9.780235291
1784151746.967402,-0.006076526,0.002452613,1.325185895,0.000697248,-0.002117249,-0.000359159,0.002970303,-0.061756771,9.800865173
1784151746.969414,-0.006076599,0.002451378,1.325185895,0.000943207,-0.002056682,-0.000268207,0.033031907,-0.064584896,9.766353607
1784151746.971447,-0.006076599,0.002451378,1.325185895,0.000998797,-0.001671125,0.000106638,0.015757103,-0.080725148,9.798961639
1784151746.973419,-0.006076599,0.002451378,1.325185895,0.000208555,-0.001343967,0.000162025,-0.028059434,-0.067580655,9.793622971
1784151746.975432,-0.006077553,0.002450864,1.325185895,-0.001035868,-0.001115429,0.000038790,-0.007147878,-0.045440700,9.792889595
1784151746.977412,-0.006077553,0.002450864,1.325185895,-0.001470777,-0.000687469,0.000510827,-0.011990489,0.000647449,9.810216904
1784151746.979413,-0.006074677,0.002450824,1.325185895,-0.001415303,-0.000958572,0.001321392,-0.024189118,-0.007152509,9.794911385
1784151746.981416,-0.006074677,0.002450824,1.325185895,-0.000834306,-0.001394004,0.001604533,-0.006767176,-0.012040757,9.820900917
1784151746.983416,-0.006074677,0.002450824,1.325185895,0.000193385,-0.001120214,0.001237393,-0.006310898,-0.051602833,9.775815010
1784151746.985415,-0.006074074,0.002449898,1.325185895,0.000941399,-0.001027421,0.000752718,-0.020758038,-0.056981988,9.802216530
1784151746.987417,-0.006074074,0.002449898,1.325185895,0.000964380,-0.000755650,0.000309687,0.012727762,-0.071293607,9.801260948
1784151746.989425,-0.006074122,0.002448411,1.325185895,0.000677217,-0.000248073,-0.000065970,0.014919600,-0.075782895,9.798544884
1784151746.991431,-0.006074122,0.002448411,1.325185895,0.000519250,-0.000184073,-0.000467617,0.003563784,-0.048867028,9.814398766
1784151746.993428,-0.006074122,0.002448411,1.325185895,-0.000265085,-0.000218570,-0.001032505,0.002806435,-0.037618350,9.809088707
1784151746.995467,-0.006072674,0.002447170,1.325185895,-0.001073360,-0.000350912,-0.001156164,-0.017891768,-0.079858713,9.800727844
1784151746.997442,-0.006072674,0.002447170,1.325185895,-0.001031160,-0.000546115,-0.000920865,-0.010194427,-0.037766043,9.790246010
1784151746.999438,-0.006071004,0.002446264,1.325185895,-0.000476963,-0.000713622,-0.000477983,0.006142409,-0.058308717,9.814339638
1784151747.001436,-0.006071004,0.002446264,1.325185895,0.000484450,-0.001058760,0.000024812,0.016290508,-0.073172800,9.807081223
1784151747.003426,-0.006071004,0.002446264,1.325185895,0.001586173,-0.001095317,-0.000130574,-0.004887578,-0.081305735,9.791766167
1784151747.005429,-0.006073097,0.002445365,1.325185895,0.002083951,-0.000884672,-0.000242934,0.007413999,-0.064587876,9.812954903
1784151747.007546,-0.006073097,0.002445365,1.325185895,0.001922361,-0.000620339,0.000126294,-0.000004559,-0.085432425,9.796226501
1784151747.009497,-0.006074362,0.002444350,1.325185895,0.001647107,0.000024677,0.000271180,-0.009526910,-0.058234312,9.769043922
1784151747.011464,-0.006074362,0.002444350,1.325185895,0.001539391,0.000587212,-0.000218318,0.013686101,-0.066771455,9.793669701
1784151747.013454,-0.006074362,0.002444350,1.325185895,0.000932049,0.000623515,-0.000379264,-0.001923414,-0.057309311,9.814337730
1784151747.015453,-0.006075433,0.002443088,1.325185895,-0.000292857,0.000382986,0.000385297,0.009670583,-0.026518282,9.810959816
1784151747.017448,-0.006075433,0.002443088,1.325185895,-0.000655512,0.000565799,0.000331346,0.006971120,-0.026541023,9.819027901
1784151747.019449,-0.006073812,0.002442095,1.325185895,-0.000103424,0.000924606,0.000222391,-0.006979801,-0.031550732,9.792531013
1784151747.021445,-0.006073812,0.002442095,1.325185895,0.000796515,0.000546449,0.000826214,0.017239466,-0.069940448,9.791859627
1784151747.023447,-0.006073812,0.002442095,1.325185895,0.001251184,-0.000029646,0.000740596,0.007517050,-0.057290137,9.794620514
1784151747.025449,-0.006074136,0.002440519,1.325185895,0.000685677,0.000103862,0.000102224,0.012660221,-0.038694810,9.816713333
1784151747.027447,-0.006074136,0.002440519,1.325185895,0.000439934,0.000488311,-0.000523425,0.002665858,-0.050075416,9.796903610
1784151747.029449,-0.006073754,0.002439046,1.325185895,0.000707481,0.000294699,-0.000836719,-0.029894631,-0.069092318,9.820512772
1784151747.031450,-0.006073754,0.002439046,1.325185895,0.000432885,0.000265161,-0.000812350,0.002744856,-0.079341717,9.816890717
1784151747.033471,-0.006073754,0.002439046,1.325185895,-0.000180338,0.000534868,-0.000595062,-0.011299963,-0.055202771,9.786993980
1784151747.035484,-0.006074476,0.002438582,1.325185895,-0.000702851,0.000513296,0.000031242,-0.008964784,-0.046402663,9.805435181
1784151747.037464,-0.006074476,0.002438582,1.325185895,-0.001332339,0.000913692,0.000579680,0.005293739,-0.055075638,9.802255630
1784151747.039462,-0.006074795,0.002436637,1.325185895,-0.001709432,0.001875448,0.000170743,0.002132452,-0.057627771,9.788784027
1784151747.041458,-0.006074795,0.002436637,1.325185895,-0.001880320,0.002125530,-0.000219768,0.013288549,-0.063525051,9.778894424
1784151747.043462,-0.006074795,0.002436637,1.325185895,-0.001707647,0.001543450,0.000322347,-0.004073603,-0.052085903,9.776710510
1784151747.045489,-0.006075319,0.002434976,1.325185895,-0.000965796,0.001308766,0.001044238,-0.009406746,-0.044722710,9.822031975
1784151747.047477,-0.006075319,0.002434976,1.325185895,-0.000325759,0.001807789,0.000743635,-0.010176810,-0.033169154,9.836902618
1784151747.049480,-0.006074313,0.002434565,1.325185895,-0.000164439,0.002268258,-0.000071004,-0.006405376,-0.057617102,9.802675247
1784151747.051475,-0.006074313,0.002434565,1.325185895,-0.000107356,0.002203505,0.000127493,0.007789794,-0.070842832,9.809777260
1784151747.053469,-0.006074313,0.002434565,1.325185895,0.000093711,0.001988856,0.000885178,0.000887894,-0.086698771,9.783665657
1784151747.055473,-0.006075411,0.002433261,1.325185895,0.000188137,0.001961145,0.001094794,0.012159552,-0.044772919,9.790222168
1784151747.057475,-0.006075411,0.002433261,1.325185895,0.000309954,0.001692271,0.000614382,0.030321183,-0.027106699,9.793490410
1784151747.059475,-0.006073289,0.002430933,1.325185895,0.000795749,0.001455344,0.000391171,-0.016061969,-0.041205041,9.780353546
1784151747.061481,-0.006073289,0.002430933,1.325185895,0.000792563,0.001788137,0.000627953,-0.024282521,-0.051963903,9.795969963
1784151747.063478,-0.006073289,0.002430933,1.325185895,-0.000150422,0.001916825,0.000455333,-0.034939919,-0.043651335,9.780321121
1784151747.065480,-0.006073139,0.002431676,1.325185895,-0.001094190,0.001601352,0.000001961,-0.046071392,-0.070286475,9.828558922
1784151747.067483,-0.006073139,0.002431676,1.325185895,-0.001400273,0.001511968,-0.000417186,-0.001927439,-0.057341099,9.818820953
1784151747.069480,-0.006073341,0.002429859,1.325185895,-0.001042092,0.001709799,-0.000593780,-0.005844480,-0.086221799,9.791732788
1784151747.071483,-0.006073341,0.002429859,1.325185895,-0.001310441,0.001321861,-0.001087268,-0.007707698,-0.055633131,9.778028488
1784151747.073495,-0.006073341,0.002429859,1.325185895,-0.002050672,0.000846580,-0.001358448,0.001410375,-0.043669060,9.780355453
1784151747.075492,-0.006072972,0.002428983,1.325185895,-0.002005995,0.001190371,-0.000630586,0.002927152,-0.029370634,9.783138275
1784151747.077493,-0.006072972,0.002428983,1.325185895,-0.001248975,0.001506332,-0.000315452,0.019005688,-0.035436079,9.788047791
1784151747.079499,-0.006072261,0.002426916,1.325185776,-0.000586480,0.001829289,-0.000735051,0.000132343,-0.037440773,9.788913727
1784151747.081501,-0.006072261,0.002426916,1.325185776,-0.000826621,0.002160910,-0.000806663,-0.008523097,-0.046869088,9.807225227
1784151747.083498,-0.006072261,0.002426916,1.325185776,-0.001568326,0.001884966,-0.000591839,-0.014803734,-0.084369034,9.799358368
1784151747.085495,-0.006073239,0.002426727,1.325185776,-0.001875241,0.001449762,-0.000815363,-0.028151952,-0.072768964,9.830353737
1784151747.087515,-0.006073239,0.002426727,1.325185776,-0.001683284,0.001145021,-0.000778900,-0.020191785,-0.084328659,9.803387642
1784151747.089504,-0.006074103,0.002426744,1.325185895,-0.001471587,0.001008589,-0.000156036,-0.007858386,-0.029769644,9.795679092
1784151747.091497,-0.006074103,0.002426744,1.325185895,-0.001167208,0.001359221,0.000029683,0.010355763,-0.046036579,9.782142639
1784151747.093496,-0.006074103,0.002426744,1.325185895,-0.000759676,0.002097963,0.000276275,0.012076631,-0.086664803,9.821784019
1784151747.095501,-0.006075103,0.002425366,1.325185895,-0.000500707,0.002509546,0.000617617,-0.001991261,-0.063923799,9.799501419
1784151747.097571,-0.006075103,0.002425366,1.325185895,-0.000459717,0.002488205,0.000665686,-0.001747814,-0.082165584,9.781002045
1784151747.099504,-0.006076439,0.002424884,1.325185895,-0.000323527,0.002343524,0.001025086,-0.013410436,-0.044397514,9.783475876
1784151747.101505,-0.006076439,0.002424884,1.325185895,0.000280066,0.002035471,0.001160215,-0.019973697,-0.030427665,9.784007072
1784151747.103511,-0.006076439,0.002424884,1.325185895,0.000579131,0.002067773,0.000736359,-0.053694550,-0.034587376,9.799639702
1784151747.105512,-0.006075379,0.002425977,1.325185895,0.000186329,0.002493208,0.000537165,-0.024143200,-0.038706314,9.821609497
1784151747.107513,-0.006075379,0.002425977,1.325185895,-0.000154757,0.002836956,0.000843450,-0.012097361,-0.047512338,9.778077126
1784151747.109519,-0.006074923,0.002425321,1.325185776,-0.000277870,0.002960470,0.000993860,-0.006912717,-0.063342638,9.789636612
1784151747.111517,-0.006074923,0.002425321,1.325185776,-0.000458988,0.002768759,0.000235231,-0.026181197,-0.062081855,9.773037910
1784151747.113520,-0.006074923,0.002425321,1.325185776,-0.000643132,0.002809876,-0.000352602,-0.026043775,-0.047623459,9.818861008
1784151747.115529,-0.006074131,0.002425282,1.325185776,-0.000105033,0.003278577,-0.000127454,-0.006799706,-0.054345261,9.784315109
1784151747.117526,-0.006074131,0.002425282,1.325185776,0.000958200,0.003723655,-0.000431139,-0.034225386,-0.059290599,9.773048401
1784151747.119541,-0.006074145,0.002425684,1.325185776,0.000844336,0.003718473,-0.001143017,-0.021401117,-0.072289594,9.813776016
1784151747.121534,-0.006074145,0.002425684,1.325185776,0.000197483,0.003414461,-0.001610025,0.003427046,-0.099288888,9.785381317
1784151747.123529,-0.006074145,0.002425684,1.325185776,0.000247282,0.003091510,-0.000993228,0.007375788,-0.068536855,9.801274300
1784151747.125534,-0.006075457,0.002424358,1.325185776,0.000603589,0.002541493,0.000321345,-0.026466692,-0.009824251,9.796685219
1784151747.127528,-0.006075457,0.002424358,1.325185776,0.000735757,0.001982517,0.000898824,-0.035752095,-0.034861859,9.805932045
1784151747.129531,-0.006074286,0.002424885,1.325185776,0.000294604,0.001873740,0.000562145,-0.008878011,-0.039638728,9.799201012
1784151747.131574,-0.006074286,0.002424885,1.325185776,-0.000134251,0.001868206,0.000226859,-0.013974054,-0.055025190,9.766818047
1784151747.133538,-0.006074286,0.002424885,1.325185776,-0.000232730,0.001766670,0.000830838,-0.025181307,-0.052368578,9.791482925
1784151747.135532,-0.006074274,0.002424420,1.325185776,-0.000030274,0.002099963,0.001887296,-0.029599097,-0.045280427,9.810802460
1784151747.137533,-0.006074274,0.002424420,1.325185776,0.000427659,0.002609847,0.002586690,-0.028023118,-0.027677754,9.789845467
1784151747.139541,-0.006073046,0.002425017,1.325185776,0.000290117,0.002773592,0.002570782,-0.028869374,-0.059178721,9.810714722
1784151747.141542,-0.006073046,0.002425017,1.325185776,-0.000111968,0.003295105,0.002073556,-0.009799141,-0.081051715,9.764861107
1784151747.143545,-0.006073046,0.002425017,1.325185776,0.000121888,0.003815659,0.001333864,-0.000906165,-0.085859343,9.794878006
1784151747.145539,-0.006074435,0.002424381,1.325185776,0.000338149,0.003385525,0.000610052,-0.031539775,-0.056945756,9.816554070
1784151747.147538,-0.006074435,0.002424381,1.325185776,0.000054943,0.002499406,0.000331597,-0.066810206,-0.078904904,9.817724228
1784151747.149544,-0.006075149,0.002426675,1.325185895,-0.000478032,0.001766740,0.000236051,-0.015437930,-0.024426736,9.814087868
1784151747.151552,-0.006075149,0.002426675,1.325185895,-0.000893231,0.002061919,0.000062712,-0.026513545,-0.051836591,9.782070160
1784151747.153545,-0.006075149,0.002426675,1.325185895,-0.001027465,0.002901792,0.000481739,-0.056891065,-0.078249574,9.770663261
1784151747.155547,-0.006075645,0.002428721,1.325185895,-0.001074029,0.003347877,0.001309656,-0.059157934,-0.078405246,9.796663284
1784151747.157548,-0.006075645,0.002428721,1.325185895,-0.001071875,0.003532226,0.001298297,-0.042650666,-0.087065637,9.787655830
1784151747.159553,-0.006077169,0.002429223,1.325185895,-0.000635837,0.003628274,0.000893360,-0.038653713,-0.089065038,9.809615135
1784151747.161552,-0.006077169,0.002429223,1.325185895,0.000042010,0.003655816,0.001013895,-0.030790372,-0.069878168,9.806608200
1784151747.163553,-0.006077169,0.002429223,1.325185895,-0.000027287,0.003430185,0.001063336,-0.016095687,-0.043092277,9.793792725
1784151747.165565,-0.006076164,0.002429345,1.325185895,-0.000709504,0.003275283,0.000665159,-0.034691505,-0.057801433,9.816544533
1784151747.167576,-0.006076164,0.002429345,1.325185895,-0.000955461,0.003014410,0.000591287,-0.040239587,-0.071587436,9.811967850
1784151747.169576,-0.006076584,0.002430098,1.325185895,-0.000666311,0.002744885,0.000934913,-0.035921611,-0.048357926,9.813915253
1784151747.171623,-0.006076584,0.002430098,1.325185895,-0.000088473,0.003101449,0.001369423,-0.039243102,-0.065143056,9.786006927
1784151747.173594,-0.006076584,0.002430098,1.325185895,0.000171062,0.003471269,0.001632161,-0.040246379,-0.072451562,9.807478905
1784151747.175577,-0.006077329,0.002430439,1.325185895,0.000251008,0.003530183,0.001118196,-0.027067248,-0.022364587,9.797053337
1784151747.177571,-0.006077329,0.002430439,1.325185895,0.000616705,0.003552561,0.000617789,-0.019065242,-0.029946687,9.777732849
1784151747.179581,-0.006076287,0.002429970,1.325185895,0.001278341,0.003488177,0.000975498,-0.050763492,-0.053305265,9.780244827
1784151747.181573,-0.006076287,0.002429970,1.325185895,0.001523075,0.003210618,0.001108061,-0.046070542,-0.073927015,9.773390770
1784151747.183584,-0.006076287,0.002429970,1.325185895,0.000941188,0.002751941,0.000335508,-0.055622693,-0.081717335,9.815026283
1784151747.185575,-0.006077269,0.002431492,1.325185895,0.000357006,0.002495731,-0.000913078,-0.068757206,-0.054651290,9.812945366
1784151747.187577,-0.006077269,0.002431492,1.325185895,-0.000213373,0.002310204,-0.001750676,-0.075185187,-0.030292477,9.801439285
1784151747.189597,-0.006076369,0.002433145,1.325185895,-0.000449075,0.002293128,-0.001385116,-0.074853569,-0.038517334,9.823355675
1784151747.191588,-0.006076369,0.002433145,1.325185895,-0.000241813,0.002379839,-0.000341427,-0.040432520,-0.052541569,9.780258179
1784151747.193582,-0.006076369,0.002433145,1.325185895,-0.000291924,0.002106954,-0.000197064,-0.024520230,-0.072887719,9.777454376
1784151747.195587,-0.006076130,0.002433273,1.325185895,-0.000525370,0.001897708,-0.000976807,-0.032245699,-0.081259906,9.771563530
1784151747.197588,-0.006076130,0.002433273,1.325185895,-0.000492923,0.002137413,-0.001271558,-0.046834096,-0.063132659,9.768976212
1784151747.199605,-0.006076227,0.002433965,1.325185895,-0.000578435,0.002328998,-0.001125324,-0.026337884,-0.074666098,9.778785706
1784151747.201596,-0.006076227,0.002433965,1.325185895,-0.000735459,0.002108497,-0.000840432,-0.045043726,-0.063190624,9.773909569
1784151747.203611,-0.006076227,0.002433965,1.325185895,-0.000487005,0.002017166,-0.000830499,-0.029610788,-0.048209481,9.781641960
1784151747.205611,-0.006075927,0.002434137,1.325185895,-0.000174407,0.002399636,-0.000892759,-0.046994574,-0.038562175,9.779445648
1784151747.207596,-0.006075927,0.002434137,1.325185895,-0.000219585,0.002589327,-0.000632163,-0.079978161,-0.054939620,9.810691833
1784151747.209599,-0.006075650,0.002436317,1.325185895,-0.000546166,0.002421928,0.000006804,-0.065282106,-0.065327525,9.795844078
1784151747.211598,-0.006075650,0.002436317,1.325185895,-0.000806705,0.001938581,0.000741013,-0.055979319,-0.038126420,9.797372818
1784151747.213596,-0.006075650,0.002436317,1.325185895,-0.000707928,0.001476579,0.001077152,-0.045321234,-0.047649324,9.794183731
1784151747.215596,-0.006074957,0.002437205,1.325185895,-0.000575752,0.001609669,0.000945651,-0.054569632,-0.033994369,9.780812263
1784151747.217601,-0.006074957,0.002437205,1.325185895,-0.000479850,0.001565623,0.000361668,-0.006827663,-0.054971285,9.809416771
1784151747.219604,-0.006074799,0.002436718,1.325185895,-0.000126672,0.000902723,-0.000427857,-0.050085939,-0.032457151,9.808622360
1784151747.221607,-0.006074799,0.002436718,1.325185895,0.000073385,0.000272778,-0.000408219,-0.039255690,-0.028868360,9.788481712
1784151747.223603,-0.006074799,0.002436718,1.325185895,-0.000267594,0.000172793,0.000636267,-0.052464794,-0.044844132,9.790607452
1784151747.225608,-0.006073954,0.002437790,1.325185895,-0.000459955,0.000191451,0.001054779,-0.039337240,-0.073180929,9.782368660
1784151747.227609,-0.006073954,0.002437790,1.325185895,-0.000402446,-0.000097762,0.000491800,-0.053141072,-0.098409064,9.826579094
1784151747.229610,-0.006075310,0.002438708,1.325185895,-0.000814894,-0.000572101,-0.000155189,-0.032083195,-0.065387674,9.807532310
1784151747.231610,-0.006075310,0.002438708,1.325185895,-0.001529345,-0.000645966,-0.000174362,-0.035219338,-0.067336053,9.772098541
1784151747.233612,-0.006075310,0.002438708,1.325185895,-0.001772691,-0.000092562,0.000104323,-0.059810381,-0.057412703,9.807109833
1784151747.235614,-0.006075081,0.002440093,1.325185895,-0.000957964,0.000031342,0.000072689,-0.041672748,-0.042367481,9.800946236
1784151747.237614,-0.006075081,0.002440093,1.325185895,-0.000102523,-0.000744960,0.000009129,-0.052541312,-0.048285112,9.833625793
1784151747.239619,-0.006074896,0.002440685,1.325185895,-0.000385390,-0.001481042,0.000014591,-0.038472574,-0.039913557,9.765098572
1784151747.241619,-0.006074896,0.002440685,1.325185895,-0.001035814,-0.001327955,-0.000068554,-0.050635118,-0.042160284,9.787936211
1784151747.243621,-0.006074896,0.002440685,1.325185895,-0.001523651,-0.000715846,0.000451300,-0.029855508,-0.066757128,9.807077408
1784151747.245622,-0.006074713,0.002440749,1.325185895,-0.001732797,-0.000127404,0.000812983,-0.051606875,-0.085594051,9.785863876
1784151747.247625,-0.006074713,0.002440749,1.325185895,-0.001322270,0.000406406,0.000554443,-0.033158012,-0.081366047,9.788150787
1784151747.249645,-0.006075373,0.002440625,1.325185895,-0.000788045,0.000793077,0.000312305,-0.032962937,-0.064426191,9.799915314
1784151747.251636,-0.006075373,0.002440625,1.325185895,-0.000132096,0.000675572,0.000188265,-0.055254757,-0.050039280,9.833164215
1784151747.253631,-0.006075373,0.002440625,1.325185895,0.000574310,-0.000006577,0.000112995,-0.081959896,-0.032176148,9.826527596
1784151747.255640,-0.006074482,0.002442673,1.325185895,0.000892433,-0.000355299,-0.000284310,-0.033556402,-0.039725963,9.792901039
1784151747.257640,-0.006074482,0.002442673,1.325185895,0.001291140,-0.000180266,-0.000390568,-0.022246731,-0.069437705,9.792273521
1784151747.259680,-0.006074886,0.002443017,1.325185895,0.001304399,-0.000432621,0.000323747,-0.051152576,-0.047155242,9.798216820
1784151747.261645,-0.006074886,0.002443017,1.325185895,0.000712436,-0.001025281,0.001057506,-0.067484587,-0.061327539,9.804386139
1784151747.263646,-0.006074886,0.002443017,1.325185895,0.000503241,-0.001078892,0.001179310,-0.065809153,-0.033618893,9.811290741
1784151747.265642,-0.006073861,0.002444006,1.325185895,0.000370831,-0.000938282,0.001287127,-0.043999881,-0.051104002,9.773539543
1784151747.267655,-0.006073861,0.002444006,1.325185895,-0.000089618,-0.001100583,0.001146996,-0.021221070,-0.059520926,9.782026291
1784151747.269646,-0.006073647,0.002444288,1.325185895,-0.000589427,-0.001553828,0.000194349,-0.055886347,-0.068498135,9.783727646
1784151747.271646,-0.006073647,0.002444288,1.325185895,-0.000825049,-0.001722962,-0.000570750,-0.075312018,-0.078204639,9.797544479
1784151747.273657,-0.006073647,0.002444288,1.325185895,-0.000958680,-0.001526804,-0.000440308,-0.075650238,-0.067600429,9.819132805
1784151747.275652,-0.006073374,0.002446373,1.325185895,-0.000803136,-0.001352182,-0.000091979,-0.050752509,-0.089592680,9.779561043
1784151747.277651,-0.006073374,0.002446373,1.325185895,-0.000126893,-0.001084724,-0.000215637,-0.043328602,-0.067490116,9.808404922
1784151747.279654,-0.006073894,0.002447208,1.325185895,0.000131384,-0.000868139,-0.000504541,-0.016386615,-0.066462569,9.804402351
1784151747.281655,-0.006073894,0.002447208,1.325185895,-0.000463228,-0.001118114,-0.000357485,-0.044588231,-0.062332258,9.778399467
1784151747.283658,-0.006073894,0.002447208,1.325185895,-0.000467668,-0.001790597,-0.000288510,-0.061431877,-0.043458398,9.800919533
1784151747.285658,-0.006073141,0.002449367,1.325185895,0.000432046,-0.002415338,-0.000381994,-0.040116224,-0.063724093,9.777049065
1784151747.287663,-0.006073141,0.002449367,1.325185895,0.000513595,-0.002344836,-0.000032887,-0.055512957,-0.037182190,9.789757729
1784151747.289665,-0.006072157,0.002450904,1.325185895,-0.000216056,-0.001655992,0.000386197,-0.052493859,-0.047099844,9.792835236
1784151747.291674,-0.006072157,0.002450904,1.325185895,-0.000262508,-0.001534733,0.000256903,-0.059124488,-0.037714530,9.808132172
1784151747.293666,-0.006072157,0.002450904,1.325185895,0.000006302,-0.001934199,-0.000074197,-0.043525092,-0.046446085,9.810781479
1784151747.295668,-0.006070978,0.002452549,1.325185895,0.000022111,-0.002046261,0.000172710,-0.020726804,-0.057140604,9.761418343
1784151747.297666,-0.006070978,0.002452549,1.325185895,0.000021678,-0.001534569,0.000482229,-0.032720342,-0.044274315,9.800942421
1784151747.299671,-0.006070304,0.002452315,1.325185895,-0.000192012,-0.000957862,0.000112798,-0.012826099,0.004388906,9.789616585
1784151747.301677,-0.006070304,0.002452315,1.325185895,-0.000350842,-0.000930808,-0.000627871,-0.015415310,-0.022221908,9.819033623
1784151747.303671,-0.006070304,0.002452315,1.325185895,-0.000362750,-0.001344199,-0.001169689,-0.056421630,-0.037259720,9.802309036
1784151747.305673,-0.006069087,0.002453288,1.325185895,-0.000465897,-0.001899751,-0.001006359,-0.043678578,-0.061841734,9.770780563
1784151747.307675,-0.006069087,0.002453288,1.325185895,-0.000808397,-0.001854258,-0.000452048,-0.037221294,-0.046758316,9.780298233
1784151747.309678,-0.006068718,0.002454096,1.325185895,-0.001123917,-0.001296768,-0.000316198,-0.014204964,-0.072248027,9.794953346
1784151747.311679,-0.006068718,0.002454096,1.325185895,-0.000743335,-0.001450661,-0.000959508,-0.034513015,-0.043018714,9.816640854
1784151747.313694,-0.006068718,0.002454096,1.325185895,0.000286554,-0.002235528,-0.001647327,-0.053519163,-0.056203358,9.814743042
1784151747.315683,-0.006068388,0.002455569,1.325185895,0.001072324,-0.002739333,-0.001552250,-0.036433049,-0.056142032,9.775307655
1784151747.317690,-0.006068388,0.002455569,1.325185895,0.001160158,-0.002742026,-0.001337314,-0.027527574,-0.058014251,9.833586693
1784151747.319692,-0.006068598,0.002455203,1.325185895,0.001101856,-0.002364243,-0.001251021,-0.051250111,-0.055625170,9.792334557
1784151747.321697,-0.006068598,0.002455203,1.325185895,0.000983794,-0.002289087,-0.000720045,-0.017367104,-0.036406491,9.801007271
1784151747.323696,-0.006068598,0.002455203,1.325185895,0.000590483,-0.002300916,-0.000677078,-0.043740366,-0.065571696,9.791379929
1784151747.325714,-0.006068550,0.002454896,1.325185895,0.000469950,-0.002215462,-0.001601735,-0.051800501,-0.065337837,9.772992134
1784151747.327716,-0.006068550,0.002454896,1.325185895,0.000775795,-0.002535437,-0.002276842,-0.047484834,-0.078500666,9.789052010
1784151747.329726,-0.006069708,0.002455801,1.325185895,0.001068986,-0.002861725,-0.002371918,-0.029571554,-0.047494423,9.743986130
1784151747.331713,-0.006069708,0.002455801,1.325185895,0.001088464,-0.002595123,-0.002149850,-0.008185742,-0.056669567,9.798645020
1784151747.333715,-0.006069708,0.002455801,1.325185895,0.000760944,-0.002235118,-0.002005747,-0.008095399,-0.049066950,9.800487518
1784151747.335713,-0.006069103,0.002454509,1.325185895,0.000301238,-0.002331123,-0.001794805,-0.063118041,-0.035283066,9.788417816
1784151747.337708,-0.006069103,0.002454509,1.325185895,0.000328777,-0.002280303,-0.001423266,-0.027769824,-0.042599760,9.808578491
1784151747.339711,-0.006068710,0.002454441,1.325185895,0.000908586,-0.002408653,-0.001585880,-0.017972609,-0.050201677,9.788812637
1784151747.341710,-0.006068710,0.002454441,1.325185895,0.001052223,-0.003236010,-0.001889391,-0.051196259,-0.050742112,9.798642159
1784151747.343729,-0.006068710,0.002454441,1.325185895,0.000594709,-0.003871988,-0.001570021,-0.059517559,-0.069996342,9.811960220
1784151747.345718,-0.006068933,0.002455564,1.325185895,0.000735330,-0.003910522,-0.000991258,-0.067087948,-0.065796994,9.802115440
1784151747.347728,-0.006068933,0.002455564,1.325185895,0.000894523,-0.003722773,-0.000640551,-0.017354500,-0.035091218,9.805051804
1784151747.349725,-0.006067920,0.002454913,1.325185895,0.000017452,-0.003484411,-0.000530490,-0.018790716,-0.043080039,9.796928406
1784151747.351725,-0.006067920,0.002454913,1.325185895,-0.000638479,-0.003237813,-0.000576296,-0.017151618,-0.055274293,9.807612419
1784151747.353725,-0.006067920,0.002454913,1.325185895,-0.000627896,-0.003010212,-0.000482258,-0.023644917,-0.073884159,9.789999962
1784151747.355722,-0.006068243,0.002454780,1.325185895,-0.000870827,-0.002660384,-0.000629748,-0.025907878,-0.075224742,9.793576241
1784151747.357729,-0.006068243,0.002454780,1.325185895,-0.001011119,-0.002404606,-0.000953751,-0.029076803,-0.040247325,9.795144081
1784151747.359730,-0.006068020,0.002454947,1.325185895,-0.000668792,-0.002802140,-0.000686880,-0.024361810,-0.059074048,9.787853241
1784151747.361728,-0.006068020,0.002454947,1.325185895,0.000319523,-0.003228137,-0.000094913,-0.036896355,-0.054630600,9.815667152
1784151747.363731,-0.006068020,0.002454947,1.325185895,0.001424972,-0.003037764,0.000195317,-0.040423602,-0.050444845,9.800447464
1784151747.365731,-0.006067720,0.002455804,1.325185895,0.001744544,-0.002730189,0.000136138,0.009858610,-0.050465923,9.775835991
1784151747.367731,-0.006067720,0.002455804,1.325185895,0.001381811,-0.002321924,0.000454143,-0.027081877,-0.061285712,9.788733482
1784151747.369765,-0.006068075,0.002456588,1.325185895,0.000916914,-0.002131887,0.000937614,-0.048797663,-0.038199324,9.794689178
1784151747.371750,-0.006068075,0.002456588,1.325185895,0.001028345,-0.002335637,0.000530451,-0.013867758,-0.042028330,9.829219818
1784151747.373771,-0.006068075,0.002456588,1.325185895,0.001163414,-0.002590540,-0.000109655,-0.018347478,-0.042723678,9.809037209
1784151747.375747,-0.006067439,0.002456574,1.325185895,0.000716071,-0.002971440,-0.000072470,-0.004319757,-0.070239641,9.809770584
1784151747.377745,-0.006067439,0.002456574,1.325185895,0.000350972,-0.003448815,0.000332531,-0.022396227,-0.081154644,9.802061081
1784151747.379745,-0.006068379,0.002456805,1.325185895,0.000829373,-0.003586620,0.000304990,-0.007401750,-0.065681629,9.804415703
1784151747.381757,-0.006068379,0.002456805,1.325185895,0.001311697,-0.003092377,-0.000054532,-0.019095058,-0.067771941,9.804391861
1784151747.383749,-0.006068379,0.002456805,1.325185895,0.001029679,-0.002692042,0.000097970,-0.031499844,-0.054604203,9.802223206
1784151747.385749,-0.006069311,0.002457820,1.325185895,0.000333012,-0.002612978,0.000513981,-0.013268019,-0.032331195,9.787587166
1784151747.387756,-0.006069311,0.002457820,1.325185895,-0.000531235,-0.002189115,0.000421376,-0.022755623,-0.038396057,9.775435448
1784151747.389752,-0.006068597,0.002458038,1.325185895,-0.001196469,-0.001808619,0.000462567,0.013317150,-0.060462445,9.789225578
1784151747.391750,-0.006068597,0.002458038,1.325185895,-0.001473321,-0.002187176,0.001391842,-0.005332923,-0.042467877,9.812636375
1784151747.393852,-0.006068597,0.002458038,1.325185895,-0.001135507,-0.002738647,0.002050078,0.024893243,-0.067807920,9.793224335
1784151747.395786,-0.006068447,0.002456280,1.325185895,-0.000597346,-0.002978888,0.002097717,0.028730799,-0.084033966,9.799850464
1784151747.397780,-0.006068447,0.002456280,1.325185895,-0.000580765,-0.002789094,0.002007494,-0.021083312,-0.047086120,9.797348976
1784151747.399777,-0.006067596,0.002457133,1.325185895,-0.000637384,-0.002343328,0.001817009,-0.032779153,-0.050412219,9.782073021
1784151747.401777,-0.006067596,0.002457133,1.325185895,-0.000592718,-0.002433501,0.001676068,-0.030402588,-0.036827613,9.820717812
1784151747.403768,-0.006067596,0.002457133,1.325185895,-0.000580012,-0.002660970,0.001572461,-0.006413939,-0.021310607,9.800665855
1784151747.405766,-0.006066314,0.002455865,1.325185895,-0.000113095,-0.002397087,0.001084913,0.000331329,-0.018848985,9.820416451
1784151747.407774,-0.006066314,0.002455865,1.325185895,0.000126003,-0.001537238,0.000643040,-0.000912139,-0.049127143,9.796010971
1784151747.409775,-0.006066400,0.002455055,1.325185895,-0.000045492,-0.001017661,0.000735187,0.034014136,-0.055821598,9.792414665
1784151747.411769,-0.006066400,0.002455055,1.325185895,0.000398583,-0.001509695,0.000870576,0.005818570,-0.048806753,9.801847458
1784151747.413771,-0.006066400,0.002455055,1.325185895,0.000683417,-0.002154157,0.000714826,0.013838640,-0.055435695,9.774463654
1784151747.415775,-0.006066716,0.002453199,1.325185895,0.000528854,-0.002725963,0.000311389,0.007290291,-0.038511351,9.800569534
1784151747.417778,-0.006066716,0.002453199,1.325185895,0.000705788,-0.003179977,-0.000253037,-0.019827427,-0.053489294,9.813448906
1784151747.419782,-0.006066437,0.002453452,1.325185895,0.000490222,-0.003614449,-0.000755599,-0.008304794,-0.065714642,9.810691833
1784151747.421775,-0.006066437,0.002453452,1.325185895,0.000097220,-0.003948294,-0.000815301,0.023365069,-0.083412081,9.785052299
1784151747.423774,-0.006066437,0.002453452,1.325185895,-0.000072758,-0.003507675,-0.001035317,-0.002960294,-0.033372059,9.789384842
1784151747.425782,-0.006064971,0.002452000,1.325185895,-0.000498236,-0.002731354,-0.001536523,-0.015337063,-0.052304648,9.827807426
1784151747.427781,-0.006064971,0.002452000,1.325185895,-0.000829977,-0.002402554,-0.001415601,-0.019115016,-0.032771181,9.796994209
1784151747.429783,-0.006063868,0.002451782,1.325185895,-0.000909584,-0.002201438,-0.001219156,-0.022279186,-0.072125465,9.792256355
1784151747.431833,-0.006063868,0.002451782,1.325185895,-0.000604556,-0.002055189,-0.001671183,-0.028802220,-0.054190733,9.802227020
1784151747.433793,-0.006063868,0.002451782,1.325185895,0.000084205,-0.002207659,-0.001676248,-0.013614475,-0.059787184,9.805792809
1784151747.435788,-0.006064192,0.002451399,1.325185895,0.000403540,-0.002373420,-0.001247290,-0.001509285,-0.023645449,9.805139542
1784151747.437787,-0.006064192,0.002451399,1.325185895,0.000008897,-0.001983323,-0.000951000,-0.006186774,-0.040086213,9.794269562
1784151747.439794,-0.006064188,0.002450689,1.325185895,-0.000438816,-0.001568542,-0.001204030,0.010916953,-0.073017947,9.794971466
1784151747.441792,-0.006064188,0.002450689,1.325185895,-0.000403620,-0.001393391,-0.001857841,0.006835603,-0.039363377,9.795184135
1784151747.443792,-0.006064188,0.002450689,1.325185895,0.000294788,-0.000860729,-0.002060032,-0.008761548,-0.031019360,9.784012794
1784151747.445798,-0.006062475,0.002449365,1.325185895,0.000783043,-0.000601231,-0.001756780,-0.010697045,-0.041833282,9.796047211
1784151747.447804,-0.006062475,0.002449365,1.325185895,0.000189484,-0.001107797,-0.000909434,0.008813218,-0.025785374,9.772406578
1784151747.449805,-0.006060638,0.002446447,1.325185895,-0.000333594,-0.001564073,-0.000581610,0.020709915,-0.080248214,9.785967827
1784151747.451807,-0.006060638,0.002446447,1.325185895,-0.000042762,-0.001861183,-0.001406587,-0.008688651,-0.097113252,9.816317558
1784151747.453804,-0.006060638,0.002446447,1.325185895,0.000025855,-0.001897527,-0.001772125,0.008094980,-0.084544592,9.782790184
1784151747.455801,-0.006062950,0.002445767,1.325185895,-0.000551763,-0.001291470,-0.001349920,0.025683794,-0.075552404,9.809763908
1784151747.457803,-0.006062950,0.002445767,1.325185895,-0.001078535,-0.000684947,-0.001348477,0.008770239,-0.027745742,9.796156883
1784151747.459819,-0.006060366,0.002444315,1.325185895,-0.001102599,-0.000496866,-0.001691253,-0.004116806,-0.053642821,9.806738853
1784151747.461886,-0.006060366,0.002444315,1.325185895,-0.001118766,-0.000163867,-0.001614935,-0.000756837,-0.071712181,9.821419716
1784151747.463882,-0.006060366,0.002444315,1.325185895,-0.001344464,0.000403794,-0.001359297,-0.010959320,-0.062951043,9.804879189
1784151747.465922,-0.006059901,0.002443798,1.325185776,-0.001312389,0.000494102,-0.001643903,-0.008380184,-0.074009687,9.780151367
1784151747.467854,-0.006059901,0.002443798,1.325185776,-0.001003999,0.000160945,-0.001871057,0.013822064,-0.092345953,9.798437119
1784151747.469842,-0.006062551,0.002441698,1.325185895,-0.000472665,-0.000139282,-0.002000267,-0.028016340,-0.064403594,9.787817001
1784151747.471838,-0.006062551,0.002441698,1.325185895,0.000116766,-0.000053749,-0.002164585,-0.019136127,-0.033343147,9.814476013
1784151747.473837,-0.006062551,0.002441698,1.325185895,0.000108441,-0.000171470,-0.001509759,0.004719546,-0.029412709,9.785829544
1784151747.475842,-0.006060295,0.002440976,1.325185776,-0.000248346,-0.000814411,-0.000548989,0.032234810,-0.052434318,9.823368073
1784151747.477833,-0.006060295,0.002440976,1.325185776,-0.000268182,-0.000834953,0.000081592,0.009109261,-0.038343571,9.773671150
1784151747.479848,-0.006059694,0.002440103,1.325185776,-0.000743206,-0.000050663,0.000165597,0.015596968,-0.058178257,9.778931618
1784151747.481836,-0.006059694,0.002440103,1.325185776,-0.000767530,0.000105226,-0.000099943,-0.011358643,-0.022534015,9.792584419
1784151747.483840,-0.006059694,0.002440103,1.325185776,0.000223207,-0.000152289,-0.000257747,-0.040267371,-0.037053704,9.807257652
1784151747.485836,-0.006058471,0.002440915,1.325185776,0.000897427,0.000237818,-0.000568133,-0.017579660,-0.053889681,9.802688599
1784151747.487862,-0.006058471,0.002440915,1.325185776,0.001069466,0.001049085,-0.001062593,-0.004434339,-0.082896650,9.762614250
1784151747.489857,-0.006060067,0.002439611,1.325185776,0.000903552,0.001550683,-0.001008571,0.010071801,-0.068136103,9.803071976
1784151747.491886,-0.006060067,0.002439611,1.325185776,0.000741434,0.001501004,-0.000718870,-0.007420865,-0.069074534,9.777494431
1784151747.493853,-0.006060067,0.002439611,1.325185776,0.000908813,0.001049525,-0.000798515,0.005834623,-0.047869496,9.796024323
1784151747.495854,-0.006059401,0.002438215,1.325185776,0.001172806,0.000414990,-0.001164893,0.016878057,-0.061950896,9.803118706
1784151747.497863,-0.006059401,0.002438215,1.325185776,0.001385650,0.000186284,-0.001394358,-0.004610456,-0.059260242,9.778456688
1784151747.499860,-0.006059267,0.002437582,1.325185776,0.001670050,0.000392943,-0.001017682,-0.020988245,-0.037825197,9.818032265
1784151747.501850,-0.006059267,0.002437582,1.325185776,0.001642155,0.000650921,-0.000237602,-0.045804635,-0.049943797,9.802686691
1784151747.503857,-0.006059267,0.002437582,1.325185776,0.001366557,0.000696066,0.000582203,-0.024801189,-0.056968398,9.807593346
1784151747.505850,-0.006059114,0.002437794,1.325185776,0.001366933,0.000925108,0.001126679,-0.011187472,-0.082178392,9.799823761
1784151747.507854,-0.006059114,0.002437794,1.325185776,0.001298464,0.001399354,0.001416617,0.020368008,-0.071699403,9.781538963
1784151747.509862,-0.006059229,0.002436493,1.325185776,0.001247221,0.001618857,0.001627129,-0.003078956,-0.080003932,9.794465065
1784151747.511855,-0.006059229,0.002436493,1.325185776,0.000933220,0.001330216,0.002030272,-0.022430629,-0.047078412,9.798691750
1784151747.513866,-0.006059229,0.002436493,1.325185776,0.000344709,0.001198476,0.001890580,-0.020095043,-0.038275123,9.816684723
1784151747.515859,-0.006058223,0.002436623,1.325185776,0.000212620,0.001713161,0.001485809,-0.006961154,-0.030187771,9.789849281
1784151747.517857,-0.006058223,0.002436623,1.325185776,0.000385439,0.001957216,0.001515568,0.022122715,-0.074470587,9.790040970
1784151747.519866,-0.006059068,0.002434284,1.325185776,0.000582572,0.001956461,0.001175329,-0.000405385,-0.081401385,9.797147751
1784151747.521871,-0.006059068,0.002434284,1.325185776,0.000531597,0.002353989,0.000929377,-0.029169790,-0.047465574,9.802270889
1784151747.523866,-0.006059068,0.002434284,1.325185776,0.000332201,0.002734003,0.000967072,-0.039887674,-0.079246692,9.817298889
1784151747.525873,-0.006059972,0.002435507,1.325185776,-0.000200563,0.002259936,0.000845318,-0.008767480,-0.067440331,9.802162170
1784151747.527869,-0.006059972,0.002435507,1.325185776,-0.000847333,0.001483179,0.001114844,0.021249250,-0.071028024,9.811583519
1784151747.529882,-0.006060878,0.002433270,1.325185776,-0.001025895,0.001237706,0.001385647,0.002065138,-0.060185537,9.833600998
1784151747.531868,-0.006060878,0.002433270,1.325185776,-0.000885087,0.000985180,0.001384374,-0.048077539,-0.015394041,9.799768448
1784151747.533873,-0.006060878,0.002433270,1.325185776,-0.000512492,0.000760316,0.001708581,-0.019986346,-0.030932862,9.792074203
1784151747.535874,-0.006059458,0.002434357,1.325185776,0.000215122,0.001127357,0.002634414,-0.004754126,-0.032936078,9.794317245
1784151747.537878,-0.006059458,0.002434357,1.325185776,0.001036334,0.001588930,0.003418728,-0.020396965,-0.028194826,9.785814285
1784151747.539885,-0.006058026,0.002433867,1.325185776,0.001309006,0.001700789,0.002995476,0.012089007,-0.050192978,9.796464920
1784151747.541881,-0.006058026,0.002433867,1.325185776,0.000859262,0.001830580,0.001819893,-0.009219295,-0.069080152,9.781527519
1784151747.543880,-0.006058026,0.002433867,1.325185776,0.000387556,0.002033130,0.001216592,-0.008802698,-0.070960417,9.793171883
1784151747.545887,-0.006059251,0.002433270,1.325185776,0.000006916,0.002231429,0.001373027,-0.024719194,-0.051052701,9.794629097
1784151747.547885,-0.006059251,0.002433270,1.325185776,-0.000360989,0.002306307,0.001251782,-0.032236766,-0.041573215,9.798270226
1784151747.549893,-0.006057746,0.002433649,1.325185776,-0.000723708,0.001913336,0.000926140,-0.047443036,-0.036123034,9.815327644
1784151747.551893,-0.006057746,0.002433649,1.325185776,-0.001044176,0.001447564,0.000705875,-0.063175648,-0.041411445,9.768202782
1784151747.553893,-0.006057746,0.002433649,1.325185776,-0.000839528,0.001499290,0.000584393,-0.000029808,-0.049662910,9.806766510
1784151747.555892,-0.006057596,0.002432681,1.325185776,-0.000179327,0.001998998,0.000571488,0.001736052,-0.053561755,9.784775734
1784151747.557890,-0.006057596,0.002432681,1.325185776,0.000556358,0.002451939,0.000292210,0.021115748,-0.083834469,9.785497665
1784151747.559909,-0.006058430,0.002430404,1.325185776,0.000854861,0.002585805,0.000195600,-0.009389672,-0.081772514,9.802517891
1784151747.561898,-0.006058430,0.002430404,1.325185776,0.000866880,0.002126236,0.000338412,-0.009486740,-0.053459361,9.790594101
1784151747.563902,-0.006058430,0.002430404,1.325185776,0.001089729,0.001536817,0.000495526,-0.044642132,-0.028815277,9.790718079
1784151747.565898,-0.006058138,0.002431770,1.325185776,0.000913436,0.001631067,0.000937294,-0.027961085,-0.021514399,9.805128098
1784151747.567904,-0.006058138,0.002431770,1.325185776,0.000224267,0.001722555,0.001456923,-0.016009547,-0.035928078,9.794286728
1784151747.569905,-0.006057273,0.002431507,1.325185776,0.000213088,0.001930893,0.001349638,-0.036725920,-0.077501446,9.818209648
1784151747.571903,-0.006057273,0.002431507,1.325185776,0.001187881,0.002596588,0.000860716,-0.019656595,-0.041603826,9.779899597
1784151747.573903,-0.006057273,0.002431507,1.325185776,0.001824518,0.003079344,0.000991811,-0.025997577,-0.045637656,9.791524887
1784151747.575914,-0.006056330,0.002432038,1.325185776,0.001328884,0.003333267,0.001103295,0.009910000,-0.044791866,9.796944618
1784151747.577912,-0.006056330,0.002432038,1.325185776,0.000406717,0.003242618,0.000153129,-0.032574296,-0.032179363,9.801020622
1784151747.579916,-0.006054404,0.002433392,1.325185776,-0.000019263,0.002612747,-0.000018304,-0.060737353,-0.023286816,9.798359871
1784151747.581912,-0.006054404,0.002433392,1.325185776,0.000356106,0.002125623,0.000327087,-0.035730362,-0.072280124,9.775203705
1784151747.583918,-0.006054404,0.002433392,1.325185776,0.000747245,0.002405548,-0.000410425,-0.041681096,-0.078807525,9.821784019
1784151747.585920,-0.006055420,0.002433685,1.325185776,0.000688743,0.002630842,-0.000893966,-0.034273595,-0.061292302,9.802625656
1784151747.587918,-0.006055420,0.002433685,1.325185776,0.000132016,0.002185326,-0.000726931,-0.001995864,-0.064365402,9.798601151
1784151747.589920,-0.006055145,0.002431435,1.325185776,-0.000562822,0.001863891,-0.000605691,-0.016795320,-0.062088486,9.820120811
1784151747.591923,-0.006055145,0.002431435,1.325185776,-0.000884525,0.001812158,-0.001238131,-0.037432186,-0.065038882,9.768077850
1784151747.593921,-0.006055145,0.002431435,1.325185776,-0.000938910,0.001630419,-0.002006255,-0.039419521,-0.043129988,9.778079033
1784151747.595923,-0.006053879,0.002432166,1.325185776,-0.000529214,0.001433869,-0.001698981,-0.025016969,-0.039723910,9.777216911
1784151747.598005,-0.006053879,0.002432166,1.325185776,-0.000285863,0.001359070,-0.000788873,-0.023530243,-0.065684140,9.770775795
1784151747.599929,-0.006053901,0.002432626,1.325185776,-0.000594581,0.001472809,-0.000288171,-0.026352942,-0.037600406,9.796059608
1784151747.601930,-0.006053901,0.002432626,1.325185776,-0.000780806,0.001701678,-0.000319679,-0.006481569,-0.065918505,9.773032188
1784151747.603935,-0.006053901,0.002432626,1.325185776,-0.000498824,0.002043564,-0.000286837,0.003072724,-0.054058764,9.789258003
1784151747.605932,-0.006053662,0.002432007,1.325185776,-0.000022735,0.002288377,-0.000045885,0.003659990,-0.041623347,9.803685188
1784151747.607937,-0.006053662,0.002432007,1.325185776,-0.000201897,0.002258062,-0.000143128,-0.014193960,-0.033355512,9.807307243
1784151747.609945,-0.006052183,0.002431892,1.325185776,-0.000533082,0.001971031,-0.000685112,-0.033951633,-0.032003500,9.841816902
1784151747.611937,-0.006052183,0.002431892,1.325185776,0.000004389,0.001739410,-0.001710642,-0.020308405,-0.021011556,9.783618927
1784151747.613937,-0.006052183,0.002431892,1.325185776,0.000795950,0.001799689,-0.002347508,-0.050331194,-0.089814641,9.810048103
1784151747.615943,-0.006052918,0.002432978,1.325185776,0.001009571,0.001983873,-0.001565679,-0.041181013,-0.075976066,9.800730705
1784151747.617946,-0.006052918,0.002432978,1.325185776,0.000806312,0.002391353,-0.000904912,-0.037039936,-0.105106518,9.794271469
1784151747.619947,-0.006054574,0.002432829,1.325185776,0.000474524,0.002315185,-0.000913320,-0.023792690,-0.087208532,9.773776054
1784151747.621947,-0.006054574,0.002432829,1.325185776,0.000297468,0.001609368,-0.000652189,-0.020080049,-0.077367581,9.769358635
1784151747.623948,-0.006054574,0.002432829,1.325185776,0.000590699,0.001684498,-0.000439951,-0.019497080,-0.026160482,9.813177109
1784151747.625945,-0.006053384,0.002432845,1.325185776,0.000737325,0.002278600,-0.000065818,-0.029967824,-0.039374873,9.800079346
1784151747.627950,-0.006053384,0.002432845,1.325185776,0.000567816,0.002263732,0.000312112,0.004215881,-0.070672825,9.792289734
1784151747.629956,-0.006053979,0.002431654,1.325185776,0.001037592,0.001905405,0.000442022,-0.001986481,-0.063075557,9.806230545
1784151747.631953,-0.006053979,0.002431654,1.325185776,0.001383047,0.001915094,0.000411811,-0.051268809,-0.056178056,9.807125092
1784151747.633950,-0.006053979,0.002431654,1.325185776,0.000824173,0.002113652,-0.000061714,-0.049715661,-0.037539922,9.829664230
1784151747.635954,-0.006053047,0.002432679,1.325185776,0.000374358,0.001769572,0.000114040,-0.030164558,-0.055517372,9.802216530
1784151747.637959,-0.006053047,0.002432679,1.325185776,0.000204248,0.001206579,0.000998761,-0.008466605,-0.079960376,9.798047066
1784151747.639957,-0.006053540,0.002431643,1.325185776,-0.000078985,0.000999363,0.001120646,-0.012310497,-0.065405339,9.774374962
1784151747.641964,-0.006053540,0.002431643,1.325185776,-0.000391343,0.000978312,0.000758698,-0.032225668,-0.041890807,9.779886246
1784151747.643983,-0.006053540,0.002431643,1.325185776,-0.000601031,0.000962231,0.000585306,-0.032225668,-0.041890807,9.779886246
1784151747.645970,-0.006053272,0.002432848,1.325185776,-0.000300504,0.001088959,0.000568794,-0.043115079,-0.052430760,9.769496918
1784151747.647965,-0.006051223,0.002435107,1.325185776,-0.000571534,0.001041905,0.000663522,-0.083820134,-0.038748555,9.808999062
1784151747.649975,-0.006051223,0.002435107,1.325185776,-0.001185104,0.000976338,0.000695590,-0.071532622,-0.063378870,9.785091400
1784151747.651971,-0.006051223,0.002435107,1.325185776,-0.000436531,0.001149118,0.000812339,-0.019711323,-0.083273143,9.780080795
1784151747.653972,-0.006052492,0.002434610,1.325185776,-0.000038481,0.001059809,0.001022320,-0.028141549,-0.039959934,9.753004074
1784151747.655973,-0.006052492,0.002434610,1.325185776,-0.000527714,0.000771042,0.000865923,-0.028915973,-0.026414577,9.802853584
1784151747.657972,-0.006051122,0.002434670,1.325185776,-0.000589275,0.000974248,0.000303467,-0.039970577,-0.014042351,9.784092903
1784151747.659981,-0.006051122,0.002434670,1.325185776,-0.000395017,0.001445128,-0.000338772,-0.043418251,-0.038713094,9.794242859
1784151747.661979,-0.006051122,0.002434670,1.325185776,-0.000688490,0.001755080,-0.000518682,-0.039700083,-0.064797461,9.801253319
1784151747.663980,-0.006050375,0.002434911,1.325185776,-0.000994763,0.001976561,0.000216571,-0.051031757,-0.075280786,9.783690453
1784151747.665982,-0.006050375,0.002434911,1.325185776,-0.000190761,0.001925632,0.001276147,-0.045349307,-0.049492043,9.801344872
1784151747.667980,-0.006049716,0.002435947,1.325185776,0.000830457,0.001852929,0.001218148,-0.064025931,-0.072944216,9.793555260
1784151747.669981,-0.006049716,0.002435947,1.325185776,0.000779285,0.001721974,0.000614592,-0.049260247,-0.076298282,9.797582626
1784151747.672042,-0.006049716,0.002435947,1.325185776,0.000614520,0.001573066,0.000318821,-0.024000848,-0.028666753,9.795670509
1784151747.674009,-0.006047947,0.002436345,1.325185776,0.000710986,0.001513596,0.000537216,-0.025514122,-0.044153266,9.770912170
1784151747.676007,-0.006047947,0.002436345,1.325185776,0.000435782,0.001311451,0.000785139,-0.035471190,-0.049971100,9.787902832
1784151747.678005,-0.006047542,0.002436933,1.325185776,0.000271089,0.001110361,0.000875247,-0.012360832,-0.031049680,9.794769287
1784151747.679998,-0.006047542,0.002436933,1.325185776,0.000024575,0.001122799,0.001663646,-0.038708892,-0.057584353,9.793229103
1784151747.681998,-0.006047542,0.002436933,1.325185776,-0.000405452,0.001298878,0.001859431,-0.049643110,-0.034940813,9.779017448
1784151747.684021,-0.006046539,0.002438415,1.325185776,-0.000156027,0.001444285,0.001154613,-0.028365543,-0.055101942,9.803566933
1784151747.686008,-0.006046539,0.002438415,1.325185776,0.000441090,0.001492178,0.000569290,-0.053900544,-0.050803002,9.812088013
1784151747.688022,-0.006045846,0.002440447,1.325185776,0.000599257,0.001200644,0.001025169,-0.040920351,-0.054871015,9.793692589
1784151747.690013,-0.006045846,0.002440447,1.325185776,0.000439390,0.000701252,0.001680168,-0.035823103,-0.042311858,9.782569885
1784151747.692022,-0.006045846,0.002440447,1.325185776,-0.000071215,0.000455894,0.001146460,-0.025657346,-0.056225955,9.767695427
1784151747.694035,-0.006044995,0.002440342,1.325185776,-0.000876265,0.000318928,0.000576686,-0.042960856,-0.039055523,9.778549194
1784151747.696030,-0.006044995,0.002440342,1.325185776,-0.000867159,0.000175069,0.000433090,-0.030472852,-0.043461185,9.808570862
1784151747.698014,-0.006043253,0.002440741,1.325185895,-0.000734790,-0.000073198,0.000021001,-0.045097858,-0.029270200,9.792509079
1784151747.700035,-0.006043253,0.002440741,1.325185895,-0.001144907,-0.000266927,-0.000225923,-0.049075183,-0.060247991,9.808445930
1784151747.702018,-0.006043253,0.002440741,1.325185895,-0.001188248,-0.000072368,0.000174130,-0.047014702,-0.073474281,9.837504387
1784151747.704010,-0.006044429,0.002441016,1.325185895,-0.001166755,-0.000004199,0.000627705,-0.077344574,-0.060705401,9.797655106
1784151747.706014,-0.006044429,0.002441016,1.325185895,-0.001135092,-0.000345048,0.000035337,-0.047412243,-0.032637913,9.829247475
1784151747.708019,-0.006043113,0.002442150,1.325185895,-0.001326310,-0.000461728,-0.000937358,-0.032047745,-0.027517900,9.774599075
1784151747.710015,-0.006043113,0.002442150,1.325185895,-0.001574609,-0.000476875,-0.001104186,-0.028039180,-0.066204980,9.789149284
1784151747.712017,-0.006043113,0.002442150,1.325185895,-0.001236542,-0.000979705,-0.001191530,-0.031727370,-0.074231818,9.790438652
1784151747.714026,-0.006043850,0.002442515,1.325185895,-0.000685513,-0.001670959,-0.001635574,-0.010910127,-0.060536362,9.780235291
1784151747.716018,-0.006043850,0.002442515,1.325185895,-0.000389366,-0.001815182,-0.001668391,-0.025550144,-0.082432851,9.798462868
1784151747.718018,-0.006044853,0.002442888,1.325185895,-0.000222474,-0.001293400,-0.001093174,-0.060759347,-0.063481882,9.780168533
1784151747.720029,-0.006044853,0.002442888,1.325185895,0.000478961,-0.000688650,-0.000166510,-0.041775744,-0.050475296,9.807169914
1784151747.722029,-0.006044853,0.002442888,1.325185895,0.000985833,-0.000573586,0.000759460,-0.049236353,-0.037304018,9.795591354
1784151747.724025,-0.006043803,0.002444091,1.325185895,0.000685718,-0.000588658,0.001125524,-0.053115748,-0.025055574,9.781319618
1784151747.726030,-0.006043803,0.002444091,1.325185895,0.000236543,-0.000323180,0.000743506,-0.029858835,-0.030409290,9.799242020
1784151747.728033,-0.006042568,0.002444522,1.325185895,0.000072127,-0.000201320,0.000104035,-0.008550262,-0.050325591,9.789269447
1784151747.730032,-0.006042568,0.002444522,1.325185895,0.000437481,-0.000317982,-0.000001151,-0.023887102,-0.056442905,9.795043945
1784151747.732080,-0.006042568,0.002444522,1.325185895,0.000683978,-0.000529305,0.000011746,-0.025248213,-0.020170035,9.800207138
1784151747.734044,-0.006040864,0.002444151,1.325185895,0.000228650,-0.000926845,-0.000233950,-0.050902963,-0.026542669,9.797451019
1784151747.736040,-0.006040864,0.002444151,1.325185895,-0.000668211,-0.001589888,-0.000163190,-0.050560884,-0.034684852,9.807712555
1784151747.738051,-0.006039592,0.002445013,1.325185895,-0.001138278,-0.001946011,-0.000579992,-0.041745476,-0.048210051,9.803598404
1784151747.740044,-0.006039592,0.002445013,1.325185895,-0.000750218,-0.001704582,-0.001655903,-0.057016950,-0.049758732,9.796849251
1784151747.742045,-0.006039592,0.002445013,1.325185895,-0.000557292,-0.001333619,-0.001806936,-0.011290406,-0.053506311,9.800455093
1784151747.744044,-0.006039255,0.002444095,1.325185895,-0.000855551,-0.001351171,-0.001179138,-0.027213303,-0.072049513,9.790457726
1784151747.746052,-0.006039255,0.002444095,1.325185895,-0.000534064,-0.001816536,-0.001246962,-0.018495426,-0.056454673,9.786979675
1784151747.748052,-0.006039095,0.002443711,1.325185895,-0.000025705,-0.001923410,-0.001475161,-0.029355893,-0.065955617,9.756421089
1784151747.750051,-0.006039095,0.002443711,1.325185895,-0.000468663,-0.001834268,-0.001028001,-0.018443186,-0.089174300,9.788562775
1784151747.752050,-0.006039095,0.002443711,1.325185895,-0.001011186,-0.002001833,-0.000559480,-0.030712409,-0.063994274,9.798129082
1784151747.754060,-0.006038560,0.002443947,1.325185895,-0.000862402,-0.002038112,-0.000487602,-0.047069620,-0.080797091,9.796210289
1784151747.756057,-0.006038560,0.002443947,1.325185895,-0.000788549,-0.001937510,-0.000542898,-0.025558887,-0.046532970,9.790624619
1784151747.758053,-0.006037213,0.002443704,1.325185895,-0.001137933,-0.002171285,0.000299007,-0.048341144,-0.037738036,9.792001724
1784151747.760057,-0.006037213,0.002443704,1.325185895,-0.001031867,-0.002383024,0.001165394,-0.052715659,-0.027066205,9.811345100
1784151747.762058,-0.006037213,0.002443704,1.325185895,0.000082620,-0.002058826,0.001205151,-0.013454731,-0.009994152,9.797145844
1784151747.764073,-0.006034498,0.002443274,1.325185895,0.001293515,-0.001718737,0.001199223,-0.020377288,-0.027228955,9.775956154
1784151747.766064,-0.006034498,0.002443274,1.325185895,0.001181947,-0.001371051,0.001320245,-0.033514570,-0.035748370,9.800548553
1784151747.768061,-0.006033222,0.002443801,1.325185895,0.000087688,-0.001160729,0.001388508,-0.047020413,-0.040792443,9.778085709
1784151747.770067,-0.006033222,0.002443801,1.325185895,-0.000620714,-0.001292692,0.000823027,-0.055940703,-0.034174256,9.808606148
1784151747.772062,-0.006033222,0.002443801,1.325185895,-0.000468835,-0.001608587,-0.000148689,-0.014881409,-0.053876489,9.795966148
1784151747.774063,-0.006032547,0.002443020,1.325185895,-0.000193810,-0.001713717,-0.000981979,-0.000283865,-0.073147289,9.770302773
1784151747.776067,-0.006032547,0.002443020,1.325185895,-0.000659168,-0.001372354,-0.001064249,-0.029887853,-0.071065038,9.782839775
1784151747.778068,-0.006033410,0.002444243,1.325185895,-0.000856492,-0.001237734,-0.000384467,-0.036037285,-0.059807777,9.786045074
1784151747.780084,-0.006033410,0.002444243,1.325185895,-0.000515218,-0.001467885,-0.000052778,-0.012294490,-0.060821176,9.822823524
1784151747.782077,-0.006033410,0.002444243,1.325185895,-0.000592527,-0.001720811,-0.000010709,-0.009828753,-0.043290406,9.810386658
1784151747.784072,-0.006033076,0.002443820,1.325185895,-0.000869072,-0.002103559,0.000487829,-0.029526085,-0.040651374,9.789760590
1784151747.786078,-0.006033076,0.002443820,1.325185895,-0.000798798,-0.002401435,0.000544454,-0.024289081,-0.053231481,9.785202026
1784151747.788078,-0.006033217,0.002443752,1.325185895,-0.000236182,-0.002260644,0.000046956,-0.033530988,-0.075088844,9.788190842
1784151747.790084,-0.006033217,0.002443752,1.325185895,-0.000024092,-0.001995615,-0.000044097,-0.015866052,-0.097411998,9.808238983
1784151747.792078,-0.006033217,0.002443752,1.325185895,-0.000376458,-0.001833741,-0.000003098,-0.011761494,-0.056108840,9.789228439
1784151747.794086,-0.006034127,0.002443236,1.325185895,-0.000487783,-0.001645499,0.000045445,-0.046648737,-0.007869081,9.810129166
1784151747.796078,-0.006034127,0.002443236,1.325185895,-0.000550437,-0.001350115,0.000659377,-0.040051755,0.017638268,9.802677155
1784151747.798082,-0.006030626,0.002443819,1.325185895,-0.001142813,-0.001507683,0.001211985,-0.037324786,0.019093923,9.782065392
1784151747.800087,-0.006030626,0.002443819,1.325185895,-0.001179571,-0.002001831,0.001143721,-0.037078686,-0.031448517,9.832403183
1784151747.802085,-0.006030626,0.002443819,1.325185895,-0.000551203,-0.002007897,0.000934538,-0.004146441,-0.056308325,9.803583145
1784151747.804091,-0.006030476,0.002442919,1.325185895,-0.000325503,-0.001879725,0.000114603,-0.025834570,-0.068972357,9.796308517
1784151747.806092,-0.006030476,0.002442919,1.325185895,-0.000016424,-0.001910365,-0.001060830,-0.018732669,-0.075348526,9.798067093
1784151747.808094,-0.006030945,0.002442710,1.325185895,0.000676477,-0.001996154,-0.001194658,-0.045018975,-0.059753202,9.794554710
1784151747.810091,-0.006030945,0.002442710,1.325185895,0.000472122,-0.002271312,-0.000590442,-0.057356551,-0.039570704,9.813951492
1784151747.812095,-0.006030945,0.002442710,1.325185895,-0.000507141,-0.002354590,-0.000187047,-0.045743752,-0.044600058,9.807204247
1784151747.814091,-0.006030293,0.002443737,1.325185895,-0.000911180,-0.002308495,-0.000235076,-0.024699800,-0.048873302,9.803162575
1784151747.816097,-0.006030293,0.002443737,1.325185895,-0.001095308,-0.002166669,-0.000503960,-0.014794406,-0.047516003,9.783453941
1784151747.818096,-0.006029676,0.002443219,1.325185895,-0.001409286,-0.001883965,-0.000283934,-0.002692961,-0.047372714,9.804537773
1784151747.820100,-0.006029676,0.002443219,1.325185895,-0.001822360,-0.002035130,-0.000270344,0.009356984,-0.016530206,9.793089867
1784151747.822108,-0.006029676,0.002443219,1.325185895,-0.001745345,-0.002363767,-0.000513786,-0.012883246,-0.037299480,9.792489052
1784151747.824101,-0.006028289,0.002442139,1.325185895,-0.001071598,-0.002287290,-0.000453717,-0.029436843,-0.069431558,9.804370880
1784151747.826105,-0.006028289,0.002442139,1.325185895,-0.000560038,-0.001962477,-0.000300113,-0.014215382,-0.073140778,9.794498444
1784151747.828102,-0.006028998,0.002441959,1.325185895,-0.000585463,-0.001792451,-0.000369737,-0.000535482,-0.056185801,9.779825211
1784151747.830132,-0.006028998,0.002441959,1.325185895,-0.000822407,-0.001880012,-0.000783018,-0.007923819,-0.071118183,9.813796043
1784151747.832108,-0.006028998,0.002441959,1.325185895,-0.000744441,-0.002285497,-0.001572993,-0.005161475,-0.103325777,9.801486015
1784151747.834107,-0.006031094,0.002440691,1.325185895,-0.000597075,-0.002546421,-0.002057887,-0.000997594,-0.092254810,9.812320709
1784151747.836109,-0.006031094,0.002440691,1.325185895,-0.000616909,-0.002544222,-0.001254942,-0.002483113,-0.031531911,9.781775475
1784151747.838111,-0.006029259,0.002440173,1.325185895,-0.000411376,-0.002187222,-0.000306639,0.011417342,-0.030973198,9.804207802
1784151747.840117,-0.006029259,0.002440173,1.325185895,-0.000254950,-0.001437593,-0.000208782,-0.013300943,-0.071802028,9.793611526
1784151747.842117,-0.006029259,0.002440173,1.325185895,0.000237133,-0.001057013,-0.000228075,-0.032317221,-0.049502969,9.779389381
1784151747.844114,-0.006029208,0.002440335,1.325185895,0.001166589,-0.001452776,-0.000100557,-0.048232049,-0.065145731,9.802587509
1784151747.846117,-0.006029208,0.002440335,1.325185895,0.001386398,-0.002222244,0.000006983,-0.020338740,-0.060056694,9.792782784
1784151747.848119,-0.006029606,0.002439998,1.325185895,0.001116739,-0.002452624,-0.000166244,-0.010280276,-0.043306917,9.813524246
1784151747.850124,-0.006029606,0.002439998,1.325185895,0.000838174,-0.001898383,-0.000487116,0.005544389,-0.034860156,9.794315338
1784151747.852120,-0.006029606,0.002439998,1.325185895,0.000471034,-0.001654183,-0.000830328,0.019396139,-0.078759901,9.768042564
1784151747.854125,-0.006030485,0.002437383,1.325185895,0.000106381,-0.002192662,-0.001499692,-0.014499330,-0.057650343,9.821946144
1784151747.856125,-0.006030485,0.002437383,1.325185895,-0.000046414,-0.002189950,-0.002021041,-0.031695310,-0.033957265,9.797422409
1784151747.858128,-0.006030016,0.002437205,1.325185895,0.000013653,-0.001327633,-0.002106942,-0.022400711,-0.080379553,9.819102287
1784151747.860134,-0.006030016,0.002437205,1.325185895,-0.000273584,-0.001182628,-0.002046377,-0.004210086,-0.062484395,9.790093422
1784151747.862129,-0.006030016,0.002437205,1.325185895,-0.000907234,-0.001899385,-0.002169977,0.025869355,-0.063955925,9.753796577
1784151747.864136,-0.006031071,0.002435373,1.325185895,-0.001022627,-0.002190836,-0.002330391,-0.026056496,-0.050155420,9.796875954
1784151747.866129,-0.006031071,0.002435373,1.325185895,-0.000774852,-0.001760312,-0.002190417,-0.015091900,-0.072153859,9.783294678
1784151747.868139,-0.006031877,0.002434816,1.325185895,-0.000664958,-0.001214032,-0.001744279,-0.022115825,-0.057056952,9.815217018
1784151747.870136,-0.006031877,0.002434816,1.325185895,-0.000549784,-0.000889112,-0.001311312,-0.012175155,-0.052989621,9.792387962
1784151747.872139,-0.006031877,0.002434816,1.325185895,-0.000812507,-0.000936662,-0.000998034,-0.014892867,-0.057208989,9.760526657
1784151747.874138,-0.006032259,0.002434711,1.325185895,-0.001152195,-0.001241571,-0.000464676,0.004076643,-0.044313688,9.803219795
1784151747.876144,-0.006032259,0.002434711,1.325185895,-0.000398229,-0.000861413,-0.000251701,0.008763676,-0.029013315,9.785388947
1784151747.878142,-0.006031089,0.002433399,1.325185895,0.001005219,-0.000232260,-0.000327905,0.002018698,-0.064604744,9.825055122
1784151747.880144,-0.006031089,0.002433399,1.325185895,0.001854657,-0.000690798,-0.000262440,-0.009184816,-0.063539647,9.821465492
1784151747.882143,-0.006031089,0.002433399,1.325185895,0.001855410,-0.001359273,-0.000362008,-0.029605100,-0.083728157,9.798899651
1784151747.884150,-0.006031820,0.002433410,1.325185895,0.001468807,-0.000957459,-0.000863450,-0.017576035,-0.053861067,9.798652649
1784151747.886151,-0.006031820,0.002433410,1.325185895,0.000905507,-0.000064742,-0.001713248,-0.007293180,-0.059556067,9.761863708
1784151747.888157,-0.006031793,0.002433034,1.325185895,0.000743493,0.000185714,-0.002135581,-0.036125664,-0.066584423,9.794071198
1784151747.890182,-0.006031793,0.002433034,1.325185895,0.000872791,0.000018205,-0.001578316,-0.025631918,-0.088751987,9.805148125
1784151747.892161,-0.006031793,0.002433034,1.325185895,0.000622193,-0.000050868,-0.000396379,0.012044070,-0.052979302,9.810343742
1784151747.894208,-0.006031777,0.002432144,1.325185895,0.000708098,-0.000461078,-0.000024328,0.018140171,-0.030309776,9.824842453
1784151747.896176,-0.006031777,0.002432144,1.325185895,0.001315384,-0.000812366,-0.000962190,-0.000076704,-0.053275216,9.810778618
1784151747.898167,-0.006031523,0.002431433,1.325185895,0.001650889,-0.000870572,-0.001409808,-0.013065821,-0.051303923,9.808985710
1784151747.900171,-0.006031523,0.002431433,1.325185895,0.001294106,-0.001040676,-0.000401726,-0.018020093,-0.091813751,9.780924797
1784151747.902163,-0.006031523,0.002431433,1.325185895,0.001067815,-0.001363946,0.000494060,-0.004990750,-0.089820169,9.792158127
1784151747.904164,-0.006033040,0.002431202,1.325185776,0.001175047,-0.001687615,0.000370345,0.036862053,-0.078437962,9.817378044
1784151747.906167,-0.006033040,0.002431202,1.325185776,0.000551627,-0.001731753,-0.000387745,0.004116962,-0.079558916,9.781922340
1784151747.908163,-0.006034001,0.002430139,1.325185776,-0.000262078,-0.001614819,-0.001138316,-0.027875118,-0.049509965,9.835434914
1784151747.910168,-0.006034001,0.002430139,1.325185776,-0.000565655,-0.001340407,-0.000762943,-0.015701935,-0.046773925,9.806771278
1784151747.912169,-0.006034001,0.002430139,1.325185776,-0.000916789,-0.001287852,0.000285713,-0.022292478,-0.037477266,9.771405220
1784151747.914175,-0.006032981,0.002430286,1.325185776,-0.000700853,-0.001232890,0.000436729,-0.019329531,-0.051080357,9.788806915
1784151747.916169,-0.006032981,0.002430286,1.325185776,0.000062714,-0.000422212,0.000028496,-0.022360036,-0.080058403,9.773821831
1784151747.918176,-0.006033471,0.002430544,1.325185776,0.000204006,0.000280053,-0.000142571,-0.014909890,-0.055722386,9.803576469
1784151747.920175,-0.006033471,0.002430544,1.325185776,-0.000010183,-0.000087450,-0.000182334,0.005520729,-0.074257866,9.790026665
1784151747.922222,-0.006033471,0.002430544,1.325185776,-0.000076406,-0.000375136,-0.000048804,0.030787993,-0.064559326,9.766799927
1784151747.924219,-0.006033536,0.002428295,1.325185776,-0.000095675,0.000440376,0.000144488,0.023597026,-0.063749492,9.791904449
1784151747.926216,-0.006033536,0.002428295,1.325185776,0.000286515,0.000956316,0.000592374,-0.013981923,-0.017092193,9.788133621
1784151747.928192,-0.006031947,0.002428443,1.325185776,0.000628309,0.000521084,0.000986443,-0.040571593,-0.025775801,9.797018051
1784151747.930192,-0.006031947,0.002428443,1.325185776,0.000370672,0.000050923,0.000712255,0.003463322,-0.020985952,9.800230026
1784151747.932189,-0.006031947,0.002428443,1.325185776,0.000239739,-0.000110766,0.000278935,-0.010904365,-0.059275147,9.791900635
1784151747.934190,-0.006031608,0.002427992,1.325185776,0.000017194,-0.000263735,0.000053127,-0.000321946,-0.073042743,9.818722725
1784151747.936193,-0.006031608,0.002427992,1.325185776,-0.000376493,-0.000083802,-0.000254530,0.010012529,-0.073467121,9.796761513
1784151747.938191,-0.006031514,0.002426938,1.325185776,-0.000263119,0.000294176,-0.000350282,-0.020002471,-0.068650015,9.803488731
1784151747.940195,-0.006031514,0.002426938,1.325185776,0.000232437,0.000312754,-0.000366654,-0.016810179,-0.065853052,9.782438278
1784151747.942194,-0.006031514,0.002426938,1.325185776,0.000396438,0.000403176,-0.000829762,0.006427169,-0.073792785,9.785995483
1784151747.944199,-0.006031959,0.002425462,1.325185776,0.000320266,0.000741920,-0.001292284,-0.011339379,-0.059161287,9.776658058
1784151747.946198,-0.006031959,0.002425462,1.325185776,0.000367638,0.000570722,-0.001162045,0.001232750,-0.021665528,9.773770332
1784151747.948201,-0.006030428,0.002424395,1.325185776,0.000635465,0.000456619,-0.000272457,-0.027569463,-0.026428645,9.802406311
1784151747.950202,-0.006030428,0.002424395,1.325185776,0.000709845,0.000967222,0.000631440,-0.009627144,-0.065509796,9.784239769
1784151747.952201,-0.006030428,0.002424395,1.325185776,0.000346302,0.001023804,0.000619581,-0.001818588,-0.087182179,9.793523788
1784151747.954203,-0.006031216,0.002423117,1.325185776,0.000260505,0.000866098,0.000447652,-0.002859899,-0.063279919,9.773501396
1784151747.956207,-0.006031216,0.002423117,1.325185776,0.000001964,0.001163099,0.001010355,-0.013412972,-0.045633290,9.768223763
1784151747.958210,-0.006030156,0.002422161,1.325185776,-0.000257830,0.001417448,0.001221807,0.013558431,-0.038699958,9.815817833
1784151747.960213,-0.006030156,0.002422161,1.325185776,0.000042944,0.001584768,0.000510039,0.000471833,-0.046008658,9.796030998
1784151747.962216,-0.006030156,0.002422161,1.325185776,0.000388434,0.001809859,0.000551906,0.003592319,-0.047831208,9.794677734
1784151747.964211,-0.006029449,0.002420780,1.325185776,0.000925656,0.001926236,0.001972583,-0.023317495,-0.044957474,9.817087173
1784151747.966221,-0.006029449,0.002420780,1.325185776,0.001242947,0.001779816,0.002681193,-0.011605836,-0.040290665,9.832818985
1784151747.968217,-0.006028529,0.002419914,1.325185776,0.000878086,0.001471113,0.001967812,-0.005196506,-0.068849280,9.804845810
1784151747.970222,-0.006028529,0.002419914,1.325185776,0.000997527,0.001553814,0.000511753,0.008636330,-0.075308494,9.806162834
1784151747.972221,-0.006028529,0.002419914,1.325185776,0.001395156,0.001951589,-0.000366078,0.002625229,-0.054043476,9.787912369
1784151747.974220,-0.006028409,0.002418319,1.325185776,0.001393579,0.002291970,0.000059307,-0.035159722,-0.061191775,9.790071487
1784151747.976231,-0.006028409,0.002418319,1.325185776,0.001410619,0.002522514,0.000242764,-0.021449508,-0.077534758,9.795360565
1784151747.978225,-0.006028768,0.002417876,1.325185776,0.001042050,0.002358674,-0.000618892,0.013105354,-0.039539259,9.808638573
1784151747.980230,-0.006028768,0.002417876,1.325185776,0.000336527,0.002026047,-0.000923549,0.001102815,-0.068386421,9.791405678
1784151747.982225,-0.006028768,0.002417876,1.325185776,0.000074192,0.001882262,-0.000043380,-0.001935507,-0.060241539,9.785627365
1784151747.984229,-0.006028753,0.002416517,1.325185776,0.000319437,0.001936574,0.000310564,0.000038712,-0.081848726,9.796249390
1784151747.986232,-0.006028753,0.002416517,1.325185776,0.000752420,0.002046501,0.000388687,-0.017100930,-0.088816710,9.798878670
1784151747.988233,-0.006029796,0.002416042,1.325185776,0.001028433,0.001908691,0.000823410,-0.001991434,-0.064330421,9.793669701
1784151747.990232,-0.006029796,0.002416042,1.325185776,0.000634645,0.001871699,0.000652111,-0.028430346,-0.062097624,9.779312134
1784151747.992240,-0.006029796,0.002416042,1.325185776,-0.000263866,0.002016658,-0.000014247,-0.024273481,-0.051487330,9.791936874
1784151747.994234,-0.006029536,0.002415780,1.325185776,-0.001048465,0.001852235,-0.000266720,-0.023110947,-0.068758845,9.761342049
1784151747.996235,-0.006029536,0.002415780,1.325185776,-0.001293311,0.001907263,-0.000178373,0.001248400,-0.055484571,9.804040909
1784151747.998237,-0.006029709,0.002414254,1.325185776,-0.001233334,0.002250766,-0.000111944,-0.026187181,-0.062939622,9.767652512
1784151748.000244,-0.006029709,0.002414254,1.325185776,-0.001066748,0.002227810,0.000242002,0.001247071,-0.056710806,9.787444115
1784151748.002249,-0.006029709,0.002414254,1.325185776,-0.000638995,0.002065337,0.000246798,0.020653190,-0.046753496,9.801425934
1784151748.004242,-0.006029352,0.002411993,1.325185776,-0.000328180,0.001787427,-0.000147738,-0.001693138,-0.039686199,9.792931557
1784151748.006243,-0.006029352,0.002411993,1.325185776,-0.000482116,0.001587303,-0.000146916,-0.000168708,-0.060080484,9.822841644
1784151748.008304,-0.006028878,0.002410861,1.325185776,-0.000827858,0.001587695,-0.000091719,-0.017890038,-0.043876171,9.781232834
1784151748.010506,-0.006028878,0.002410861,1.325185776,-0.001060975,0.001606995,-0.000249942,-0.023846071,-0.052471668,9.803587914
1784151748.012307,-0.006028878,0.002410861,1.325185776,-0.000666982,0.001921072,-0.000380691,-0.017066574,-0.049739782,9.785230637
1784151748.014300,-0.006028919,0.002410913,1.325185776,-0.000128131,0.002091390,-0.000187036,-0.010652108,-0.039046943,9.782166481
1784151748.016278,-0.006028919,0.002410913,1.325185776,0.000003812,0.001499082,-0.000176729,-0.015694510,-0.046310067,9.804532051
1784151748.018279,-0.006028629,0.002410712,1.325185776,0.000117145,0.000925183,-0.000458816,-0.025799926,-0.065862067,9.799913406
1784151748.020274,-0.006028629,0.002410712,1.325185776,0.000044596,0.001210745,-0.000660639,-0.026613608,-0.058705445,9.803097725
1784151748.022278,-0.006028629,0.002410712,1.325185776,0.000047130,0.001578620,-0.000553961,-0.031654235,-0.068386063,9.787338257
1784151748.024281,-0.006029118,0.002410470,1.325185776,0.000497967,0.001659123,-0.000043335,-0.037609581,-0.078191914,9.790856361
1784151748.026300,-0.006029118,0.002410470,1.325185776,0.000557806,0.001972321,0.000383798,-0.061088748,-0.049160827,9.846165657
1784151748.028298,-0.006028335,0.002412139,1.325185776,0.000006602,0.002281551,0.000261222,-0.059970625,-0.033245675,9.811298370
1784151748.030283,-0.006028335,0.002412139,1.325185776,-0.000538645,0.002528252,-0.000135062,-0.016780369,-0.062780917,9.791423798
1784151748.032324,-0.006028335,0.002412139,1.325185776,-0.000808908,0.002777602,-0.000260695,0.006454615,-0.071549803,9.785561562
1784151748.034355,-0.006028587,0.002410568,1.325185776,-0.000012035,0.002911984,-0.000260643,-0.033871856,-0.066937126,9.776586533
1784151748.036309,-0.006028587,0.002410568,1.325185776,0.000963451,0.002753521,-0.000243354,-0.032503873,-0.062729135,9.812480927
1784151748.038315,-0.006027978,0.002410751,1.325185776,0.001128539,0.002390869,-0.000052485,-0.021997117,-0.048825137,9.791508675
1784151748.040302,-0.006027978,0.002410751,1.325185776,0.000995412,0.002111193,0.000122176,-0.037041992,-0.066722363,9.815141678
1784151748.042295,-0.006027978,0.002410751,1.325185776,0.000357566,0.002057167,0.000267441,-0.046954419,-0.071377203,9.794477463
1784151748.044293,-0.006028381,0.002412139,1.325185776,-0.000157828,0.002377345,0.000537654,-0.020787966,-0.061270822,9.775289536
1784151748.046295,-0.006028381,0.002412139,1.325185776,0.000117135,0.002602472,0.000916007,-0.041325655,-0.050064880,9.811656952
1784151748.048296,-0.006027577,0.002412979,1.325185776,0.000424749,0.002622320,0.001028535,-0.048869878,-0.042822022,9.814834595
1784151748.050300,-0.006027577,0.002412979,1.325185776,-0.000020244,0.002661108,0.001253997,-0.006096664,-0.032080140,9.802391052
1784151748.052299,-0.006027577,0.002412979,1.325185776,-0.000670017,0.002692431,0.001489951,0.014590539,-0.028732296,9.798398018
1784151748.054294,-0.006026124,0.002410504,1.325185776,-0.000711196,0.002426144,0.001083259,-0.024141898,-0.077906877,9.789525986
1784151748.056332,-0.006026124,0.002410504,1.325185776,-0.000709519,0.001817833,0.000784730,-0.044652618,-0.066487908,9.795856476
1784151748.058297,-0.006026621,0.002411752,1.325185776,-0.000452027,0.001765027,0.001039184,-0.041046135,-0.065590285,9.789141655
1784151748.060341,-0.006026621,0.002411752,1.325185776,-0.000024848,0.002243185,0.001679105,-0.038105451,-0.042994983,9.819775581
1784151748.062337,-0.006026621,0.002411752,1.325185776,0.000013403,0.002432469,0.002143961,-0.041830815,-0.055367891,9.802207947
1784151748.064307,-0.006026661,0.002412331,1.325185776,0.000148319,0.002250533,0.001614505,-0.039538167,-0.052171879,9.789676666
1784151748.066306,-0.006026661,0.002412331,1.325185776,0.000174701,0.002067318,0.000813214,-0.024945028,-0.031050859,9.817622185
1784151748.068345,-0.006024585,0.002411991,1.325185776,-0.000130037,0.002186120,0.000753875,-0.000426900,-0.047223397,9.779434204
1784151748.070327,-0.006024585,0.002411991,1.325185776,-0.000547984,0.002579769,0.000874513,-0.003100299,-0.045419309,9.782581329
1784151748.072345,-0.006024585,0.002411991,1.325185776,-0.000745341,0.002704386,0.000799197,-0.004919561,-0.047210418,9.785707474
1784151748.074315,-0.006023151,0.002410277,1.325185776,-0.000899598,0.001858436,0.000883509,-0.027362792,-0.083766453,9.800245285
1784151748.076315,-0.006023151,0.002410277,1.325185776,-0.001105250,0.001008302,0.001087892,-0.033044409,-0.069122024,9.830373764
1784151748.078313,-0.006023346,0.002410338,1.325185776,-0.000649718,0.001157312,0.001097612,-0.054812342,-0.052526113,9.804007530
