time_sec,roll_rad,pitch_rad,yaw_rad,gyro_x,gyro_y,gyro_z,acc_x,acc_y,acc_z
1784151364.549601,-0.005898717,0.007437009,-0.060978629,0.002116119,-0.000529425,0.001845281,-0.050689600,-0.043806240,9.830516815
1784151364.551391,-0.005898224,0.007436229,-0.060978636,0.001049523,-0.001119740,0.001708755,-0.071026206,-0.056039557,9.823246956
1784151364.553514,-0.005898224,0.007436229,-0.060978636,-0.000473400,-0.000509915,0.000657160,-0.075898081,-0.053040538,9.788291931
1784151364.555352,-0.005898224,0.007436229,-0.060978636,-0.000529946,0.000388970,0.000220223,-0.078604266,-0.089490592,9.815402985
1784151364.557346,-0.005898672,0.007436549,-0.060978632,0.000365432,0.000779608,0.000244919,-0.047111098,-0.083961442,9.800227165
1784151364.559298,-0.005898672,0.007436549,-0.060978632,0.001013136,0.000580026,-0.000028624,-0.026134141,-0.095652886,9.768340111
1784151364.561304,-0.005900048,0.007435217,-0.060978640,0.001117459,-0.000066601,-0.000032704,-0.088006660,-0.089614332,9.786699295
1784151364.563357,-0.005900048,0.007435217,-0.060978640,0.000727467,-0.000172210,-0.000106587,-0.115956619,-0.062018707,9.799852371
1784151364.565320,-0.005900048,0.007435217,-0.060978640,0.000412251,0.000166611,-0.000392817,-0.111252852,-0.044154577,9.799522400
1784151364.567317,-0.005899418,0.007437121,-0.060978629,0.000615008,0.000264894,-0.000619525,-0.087638438,-0.021559827,9.792965889
1784151364.569295,-0.005899418,0.007437121,-0.060978629,0.000556930,-0.000221478,-0.000427079,-0.066867009,-0.050273795,9.760969162
1784151364.571338,-0.005899257,0.007436567,-0.060978629,0.000371070,-0.000501476,-0.000413061,-0.072956987,-0.033278894,9.776315689
1784151364.573278,-0.005899257,0.007436567,-0.060978629,0.000321077,0.000342120,-0.001137001,-0.049798697,-0.045895379,9.807640076
1784151364.575294,-0.005899257,0.007436567,-0.060978629,0.000140435,0.000976777,-0.001754759,-0.052909002,-0.042776637,9.815727234
1784151364.577301,-0.005898881,0.007435977,-0.060978632,0.000053370,0.000678798,-0.001577142,-0.056686256,-0.056369796,9.843880653
1784151364.579288,-0.005898881,0.007435977,-0.060978632,0.000129291,0.000096695,-0.000871904,-0.092849776,-0.044746045,9.786535263
1784151364.581284,-0.005898264,0.007436318,-0.060978632,0.000076989,-0.000253982,-0.000394011,-0.087226503,-0.060661592,9.809303284
1784151364.583329,-0.005898264,0.007436318,-0.060978632,-0.000284310,-0.000272747,0.000081296,-0.093304873,-0.080354370,9.817241669
1784151364.585288,-0.005898264,0.007436318,-0.060978632,-0.000568190,-0.000572853,0.000209302,-0.054475334,-0.063139841,9.783763885
1784151364.587279,-0.005898735,0.007436136,-0.060978629,-0.000485351,-0.000951170,-0.000582415,-0.058740582,-0.044715948,9.783877373
1784151364.589314,-0.005898735,0.007436136,-0.060978629,0.000158628,-0.000887536,-0.001734013,-0.056643229,-0.058056340,9.765861511
1784151364.591275,-0.005898769,0.007435395,-0.060978636,0.000643975,-0.000951121,-0.002284698,-0.044096068,-0.020757720,9.790770531
1784151364.593272,-0.005898769,0.007435395,-0.060978636,0.000053385,-0.001102561,-0.001496532,-0.043092452,-0.047389090,9.816604614
1784151364.595301,-0.005898769,0.007435395,-0.060978636,-0.000664716,-0.001048673,-0.000777490,-0.073938005,-0.076785773,9.784554482
1784151364.597277,-0.005899119,0.007435643,-0.060978632,-0.000733757,-0.000991443,-0.001047133,-0.081844971,-0.100369558,9.775876999
1784151364.599278,-0.005899119,0.007435643,-0.060978632,-0.000309699,-0.000628888,-0.001565957,-0.073414914,-0.109336279,9.761481285
1784151364.601283,-0.005900475,0.007435620,-0.060978632,0.000091501,-0.000133437,-0.001671702,-0.067869477,-0.057575941,9.781545639
1784151364.603275,-0.005900475,0.007435620,-0.060978632,0.000455458,0.000277620,-0.001242892,-0.021349089,-0.032262675,9.792511940
1784151364.605278,-0.005900475,0.007435620,-0.060978632,0.000900565,0.000538025,-0.000749922,-0.059587404,-0.039036762,9.805881500
1784151364.607274,-0.005899827,0.007435592,-0.060978632,0.000836103,-0.000131268,-0.000522565,-0.065915443,-0.043778915,9.791049957
1784151364.609281,-0.005899827,0.007435592,-0.060978632,0.000835280,-0.001375084,-0.000397181,-0.067427158,-0.055605795,9.818769455
1784151364.611325,-0.005899405,0.007435874,-0.060978632,0.001110526,-0.001799736,-0.000049994,-0.095650621,-0.050027043,9.841195107
1784151364.613622,-0.005899405,0.007435874,-0.060978632,0.000742637,-0.001132001,0.000369935,-0.079578720,-0.059386827,9.805284500
1784151364.615359,-0.005899405,0.007435874,-0.060978632,-0.000047649,-0.000582282,0.000079662,-0.033593360,-0.079228602,9.803406715
1784151364.617324,-0.005900195,0.007434875,-0.060978640,-0.000357587,-0.000758554,-0.000477575,-0.039534420,-0.050926566,9.803583145
1784151364.619295,-0.005900195,0.007434875,-0.060978640,-0.000545594,-0.000620707,-0.000340418,-0.065513119,-0.083767056,9.806036949
1784151364.621340,-0.005901306,0.007434781,-0.060978640,-0.000389302,-0.000093239,0.000051174,-0.087528370,-0.086144499,9.801966667
1784151364.623339,-0.005901306,0.007434781,-0.060978640,0.000012955,0.000285693,0.000697909,-0.102404490,-0.094198935,9.764241219
1784151364.625337,-0.005901306,0.007434781,-0.060978640,-0.000509653,0.000355209,0.001058291,-0.090060852,-0.073906951,9.786798477
1784151364.627358,-0.005902151,0.007435703,-0.060978632,-0.001310025,-0.000036947,0.000884449,-0.100901395,-0.042418659,9.788784027
1784151364.629358,-0.005902151,0.007435703,-0.060978632,-0.001623587,-0.000434858,0.000974231,-0.090479612,-0.034859236,9.778082848
1784151364.631382,-0.005901062,0.007436150,-0.060978632,-0.001178139,-0.000334355,0.000772105,-0.078446709,-0.040120099,9.803166389
1784151364.633349,-0.005901062,0.007436150,-0.060978632,-0.000147391,-0.000213319,0.000391573,-0.076425262,-0.060138572,9.779278755
1784151364.635347,-0.005901062,0.007436150,-0.060978632,0.000219235,-0.000377750,0.000888570,-0.038399845,-0.068824112,9.798088074
1784151364.637347,-0.005901895,0.007435205,-0.060978640,-0.000128207,-0.000385461,0.001665466,-0.041226525,-0.044419080,9.773584366
1784151364.639339,-0.005901895,0.007435205,-0.060978640,0.000254236,-0.000250839,0.001727767,-0.063319959,-0.052276976,9.784274101
1784151364.641344,-0.005901850,0.007434923,-0.060978640,0.001438023,-0.000124427,0.001431765,-0.060687169,-0.017622305,9.820813179
1784151364.643420,-0.005901850,0.007434923,-0.060978640,0.002031656,0.000239331,0.001415787,-0.049356326,-0.009982182,9.797110558
1784151364.645354,-0.005901850,0.007434923,-0.060978640,0.001546768,0.000893749,0.001152134,-0.078281268,-0.025845757,9.811776161
1784151364.647366,-0.005899684,0.007434789,-0.060978636,0.000719141,0.000909503,0.000649862,-0.064705424,-0.054191478,9.803986549
1784151364.649370,-0.005899684,0.007434789,-0.060978636,0.000052518,0.000109932,0.000568172,-0.079628997,-0.063431188,9.807052612
1784151364.651353,-0.005899671,0.007435135,-0.060978636,-0.000145077,-0.000531311,0.000779569,-0.091000296,-0.037042793,9.834108353
1784151364.653380,-0.005899671,0.007435135,-0.060978636,0.000042277,-0.000549496,0.000521405,-0.040565379,-0.062911443,9.789606094
1784151364.655348,-0.005899671,0.007435135,-0.060978636,0.000164734,-0.000219722,0.000190810,-0.049167834,-0.069489837,9.785073280
1784151364.657376,-0.005900289,0.007434415,-0.060978644,0.000216591,0.000000372,0.000364995,-0.032369975,-0.052756343,9.795956612
1784151364.659379,-0.005900289,0.007434415,-0.060978644,-0.000144134,0.000040561,0.000237859,-0.060383957,-0.069740012,9.777439117
1784151364.661359,-0.005900409,0.007433911,-0.060978644,-0.000716669,-0.000230485,-0.000236012,-0.082380086,-0.068724535,9.800289154
1784151364.663340,-0.005900409,0.007433911,-0.060978644,-0.000771455,-0.000307511,-0.000309198,-0.102001302,-0.059810869,9.779256821
1784151364.665366,-0.005900409,0.007433911,-0.060978644,-0.000680047,0.000137167,-0.000070685,-0.073907904,-0.037337199,9.781668663
1784151364.667346,-0.005899551,0.007434094,-0.060978644,-0.000503660,0.000585810,0.000121990,-0.084946401,-0.059590917,9.780618668
1784151364.669375,-0.005899551,0.007434094,-0.060978644,0.000073635,0.000637150,0.000369840,-0.045672398,-0.039173648,9.800065994
1784151364.671360,-0.005898340,0.007432325,-0.060978655,0.000329441,0.000391107,0.000097261,-0.050082777,-0.031621650,9.817147255
1784151364.673346,-0.005898340,0.007432325,-0.060978655,-0.000043949,0.000202227,-0.000481342,-0.073087193,-0.041196294,9.818857193
1784151364.675335,-0.005898340,0.007432325,-0.060978655,-0.000206447,0.000311121,-0.000197280,-0.056424562,-0.035661835,9.829667091
1784151364.677346,-0.005897260,0.007432281,-0.060978655,-0.000155853,0.001017160,0.000248090,-0.044480380,-0.051349439,9.808955193
1784151364.679348,-0.005897260,0.007432281,-0.060978655,-0.000521506,0.001103640,0.000605618,-0.069513924,-0.043802869,9.800909996
1784151364.681341,-0.005896180,0.007432093,-0.060978655,-0.000404931,-0.000117867,0.001256665,-0.104411364,-0.034449264,9.808559418
1784151364.683344,-0.005896180,0.007432093,-0.060978655,-0.000067998,-0.001205775,0.001296999,-0.069921717,-0.041042585,9.791511536
1784151364.685346,-0.005896180,0.007432093,-0.060978655,-0.000320793,-0.001412530,0.000606782,-0.074053951,-0.049432147,9.781590462
1784151364.687351,-0.005896008,0.007432072,-0.060978655,-0.000534569,-0.000916076,0.000306094,-0.082883514,-0.038045011,9.771345139
1784151364.689351,-0.005896008,0.007432072,-0.060978655,-0.000471079,-0.000253448,0.000522314,-0.100929871,-0.044264551,9.796394348
1784151364.691356,-0.005895596,0.007432609,-0.060978655,-0.000552399,0.000070534,0.000371861,-0.054372843,-0.053415071,9.802208900
1784151364.693356,-0.005895596,0.007432609,-0.060978655,-0.001028435,0.000081041,-0.000389527,-0.081918791,-0.070251860,9.762171745
1784151364.695360,-0.005895596,0.007432609,-0.060978655,-0.001429438,0.000106836,-0.000871968,-0.081927337,-0.031108519,9.802324295
1784151364.697359,-0.005894389,0.007433368,-0.060978647,-0.001180641,0.000168591,-0.000373887,-0.069980003,-0.045960620,9.790135384
1784151364.699383,-0.005894389,0.007433368,-0.060978647,-0.000222612,0.000186097,0.000170559,-0.073111430,-0.046250686,9.773542404
1784151364.701375,-0.005893871,0.007433038,-0.060978647,0.000298083,0.000472409,0.000297648,-0.049872596,-0.055394396,9.757366180
1784151364.703491,-0.005893871,0.007433038,-0.060978647,-0.000120901,0.000437382,0.000423708,-0.077240095,-0.088554695,9.807339668
1784151364.705396,-0.005893871,0.007433038,-0.060978647,-0.000702451,-0.000035800,0.000620920,-0.077240095,-0.088554695,9.807339668
1784151364.707430,-0.005893277,0.007433773,-0.060978644,-0.000708287,-0.000204910,0.000748177,-0.083038449,-0.011809870,9.799757004
1784151364.709383,-0.005893277,0.007433773,-0.060978644,-0.000947157,-0.000307022,0.000750368,-0.065588020,-0.014852225,9.818136215
1784151364.711399,-0.005891722,0.007433616,-0.060978636,-0.001446447,-0.000360014,0.000769618,-0.074178502,-0.019715073,9.824374199
1784151364.713390,-0.005891722,0.007433616,-0.060978636,-0.001483014,-0.000222707,0.000875400,-0.074178502,-0.019715073,9.824374199
1784151364.715393,-0.005891722,0.007433616,-0.060978636,-0.001258427,-0.000287714,0.001006097,-0.060492009,-0.077482529,9.795323372
1784151364.717386,-0.005891879,0.007433246,-0.060978640,-0.000828371,-0.000752590,0.001207716,-0.055287115,-0.091937155,9.802409172
1784151364.719391,-0.005891879,0.007433246,-0.060978640,-0.000606861,-0.001303813,0.000956124,-0.095329039,-0.061978295,9.820047379
1784151364.721385,-0.005891509,0.007434243,-0.060978632,-0.000385532,-0.001376389,-0.000145873,-0.121362984,-0.027774919,9.782581329
1784151364.723385,-0.005891509,0.007434243,-0.060978632,-0.000183175,-0.001049506,-0.001307521,-0.098125912,-0.034501135,9.804529190
1784151364.725379,-0.005891509,0.007434243,-0.060978632,-0.000125769,-0.000669399,-0.001665723,-0.097607300,-0.028686572,9.805015564
1784151364.727384,-0.005890026,0.007435358,-0.060978625,-0.000337821,-0.000339191,-0.001367169,-0.072379693,-0.060133077,9.771213531
1784151364.729395,-0.005890026,0.007435358,-0.060978625,-0.000819892,-0.000310653,-0.001223585,-0.099844553,-0.066603549,9.785491943
1784151364.731403,-0.005889926,0.007436645,-0.060978618,-0.000934916,-0.000254529,-0.001425294,-0.076170370,-0.077884711,9.754057884
1784151364.733400,-0.005889926,0.007436645,-0.060978618,-0.000760772,0.000338451,-0.001063300,-0.065680064,-0.099674262,9.774999619
1784151364.735393,-0.005889926,0.007436645,-0.060978618,-0.000505710,0.000983269,-0.000509373,-0.092164949,-0.062240746,9.788215637
1784151364.737405,-0.005890945,0.007437445,-0.060978610,-0.000540358,0.000991395,-0.000758631,-0.099978670,-0.041419763,9.772651672
1784151364.739398,-0.005890945,0.007437445,-0.060978610,-0.000983093,0.000910049,-0.000652533,-0.090911001,-0.031879928,9.800966263
1784151364.741394,-0.005889574,0.007437765,-0.060978618,-0.001211826,0.001295995,0.000041150,-0.063977808,-0.031732399,9.794716835
1784151364.743397,-0.005889574,0.007437765,-0.060978618,-0.001252224,0.001522458,0.000438075,-0.059424631,-0.061968010,9.816942215
1784151364.745398,-0.005889574,0.007437765,-0.060978618,-0.001884162,0.001118841,0.000578691,-0.055458233,-0.067855984,9.818702698
1784151364.747454,-0.005889463,0.007436441,-0.060978621,-0.002277099,0.000321545,0.000443758,-0.029448975,-0.068716876,9.829929352
1784151364.749413,-0.005889463,0.007436441,-0.060978621,-0.001548890,-0.000177564,-0.000085715,-0.055510309,-0.072319686,9.816432953
1784151364.751409,-0.005889463,0.007436441,-0.060978621,-0.000653582,-0.000309332,-0.000758389,-0.055510309,-0.072319686,9.816432953
1784151364.753437,-0.005889677,0.007436281,-0.060978621,-0.000782888,-0.000722433,-0.000998708,-0.094223849,-0.082944788,9.805118561
1784151364.755412,-0.005891150,0.007437510,-0.060978610,-0.001344983,-0.000802778,-0.001101085,-0.058205675,-0.000777610,9.778779984
1784151364.757414,-0.005891150,0.007437510,-0.060978610,-0.001658285,-0.000305035,-0.001064102,-0.066388242,-0.007184048,9.812355995
1784151364.759404,-0.005888826,0.007437771,-0.060978606,-0.001980277,-0.000177516,-0.000695635,-0.086707182,-0.018467391,9.797469139
1784151364.761419,-0.005888826,0.007437771,-0.060978606,-0.001730534,-0.000502163,-0.000699545,-0.079760872,-0.035798118,9.827852249
1784151364.763421,-0.005888826,0.007437771,-0.060978606,-0.001346869,-0.000453517,-0.000592173,-0.038005687,-0.072502568,9.810619354
1784151364.765419,-0.005889291,0.007436438,-0.060978618,-0.000575767,-0.000029502,-0.000168023,-0.048961569,-0.126830816,9.783359528
1784151364.767412,-0.005889291,0.007436438,-0.060978618,0.000344507,-0.000064801,-0.000131160,-0.072148785,-0.112416491,9.814365387
1784151364.769418,-0.005891397,0.007437041,-0.060978618,0.000307117,-0.000422323,-0.000522470,-0.109296687,-0.066714928,9.818210602
1784151364.771500,-0.005891397,0.007437041,-0.060978618,0.000284210,-0.000286728,-0.000823373,-0.102029994,-0.023663355,9.799663544
1784151364.773433,-0.005891397,0.007437041,-0.060978618,0.001030101,0.000197156,-0.000605978,-0.059211947,-0.008514989,9.797559738
1784151364.775463,-0.005889216,0.007436732,-0.060978618,0.001590149,0.000353370,-0.000755556,-0.047192682,-0.017530875,9.783616066
1784151364.777426,-0.005889216,0.007436732,-0.060978618,0.000950601,0.000498678,-0.001227046,-0.092909440,-0.047243401,9.822833061
1784151364.779422,-0.005889590,0.007437876,-0.060978606,-0.000186039,0.000554670,-0.001066415,-0.075469732,-0.090391792,9.810469627
1784151364.781423,-0.005889590,0.007437876,-0.060978606,-0.000857140,0.000106461,-0.000735251,-0.049289886,-0.113716915,9.830070496
1784151364.783429,-0.005889590,0.007437876,-0.060978606,-0.000872934,-0.000007395,-0.000780893,-0.047587711,-0.085391790,9.813216209
1784151364.785424,-0.005891238,0.007436709,-0.060978618,-0.000157520,0.000243920,-0.000829178,-0.081653863,-0.046681628,9.786533356
1784151364.787428,-0.005891238,0.007436709,-0.060978618,0.000540740,0.000118107,-0.000703326,-0.103841148,-0.026200935,9.781711578
1784151364.789434,-0.005890131,0.007438215,-0.060978606,0.000686181,-0.000043839,-0.000251577,-0.050357245,0.015454753,9.750198364
1784151364.791441,-0.005890131,0.007438215,-0.060978606,0.000374270,-0.000267517,0.000437301,-0.050666988,-0.009685123,9.757658958
1784151364.793437,-0.005890131,0.007438215,-0.060978606,0.000203237,-0.000321084,0.000614908,-0.067692474,-0.041589245,9.801374435
1784151364.795443,-0.005889467,0.007438068,-0.060978606,0.000555247,0.000141500,0.000296549,-0.069354773,-0.069599591,9.773845673
1784151364.797438,-0.005889467,0.007438068,-0.060978606,0.000704290,0.000587419,0.000101168,-0.050530799,-0.070416205,9.791790009
1784151364.799434,-0.005889041,0.007437140,-0.060978618,0.000555420,0.000623955,0.000462270,-0.039761651,-0.034177735,9.779929161
1784151364.801447,-0.005889041,0.007437140,-0.060978618,0.000369064,0.000182104,0.000939217,-0.047366973,-0.031875163,9.784868240
1784151364.803451,-0.005889041,0.007437140,-0.060978618,0.000032076,-0.000546169,0.000399545,-0.033265661,-0.089105390,9.805585861
1784151364.805448,-0.005890459,0.007435793,-0.060978621,-0.000245456,-0.000855835,-0.000732545,-0.068343952,-0.057773687,9.810236931
1784151364.807449,-0.005890459,0.007435793,-0.060978621,-0.000300987,-0.000850343,-0.001339118,-0.111313954,-0.049094871,9.801283836
1784151364.809449,-0.005889864,0.007437450,-0.060978618,-0.000220303,-0.001246508,-0.001313690,-0.123537265,-0.058305487,9.795385361
1784151364.811451,-0.005889864,0.007437450,-0.060978618,-0.000615745,-0.001518411,-0.000284893,-0.103404865,-0.061868455,9.819143295
1784151364.813462,-0.005889864,0.007437450,-0.060978618,-0.001585941,-0.001171593,0.000863666,-0.065047100,-0.046046115,9.793278694
1784151364.815452,-0.005889008,0.007436687,-0.060978618,-0.001945936,-0.000826818,0.000744698,-0.029072039,-0.076989062,9.795356750
1784151364.817453,-0.005889008,0.007436687,-0.060978618,-0.001158652,-0.000637093,0.000027542,-0.027967885,-0.059968498,9.794120789
1784151364.819458,-0.005889054,0.007435318,-0.060978625,-0.000455927,-0.000248506,-0.000457194,-0.043981936,-0.086120673,9.783178329
1784151364.821459,-0.005889054,0.007435318,-0.060978625,-0.000539232,0.000254548,-0.000412899,-0.093606092,-0.068647578,9.809694290
1784151364.823461,-0.005889054,0.007435318,-0.060978625,-0.000659988,0.000204253,0.000176557,-0.089913197,-0.061799277,9.785083771
1784151364.825466,-0.005889734,0.007435936,-0.060978621,-0.000627293,-0.000373774,0.000621198,-0.119038388,-0.020274175,9.794737816
1784151364.827456,-0.005889734,0.007435936,-0.060978621,-0.000405750,-0.000957436,0.000691796,-0.129391387,-0.022832889,9.795159340
1784151364.829467,-0.005888612,0.007438161,-0.060978606,0.000080551,-0.001422461,0.000797677,-0.093412362,-0.052933965,9.804863930
1784151364.831467,-0.005888612,0.007438161,-0.060978606,0.000727531,-0.001528068,0.000497485,-0.072206318,-0.044175003,9.795077324
1784151364.833471,-0.005888612,0.007438161,-0.060978606,0.001363644,-0.001461457,0.000063239,-0.033474702,-0.070186719,9.791810036
1784151364.835469,-0.005889336,0.007436136,-0.060978621,0.001410006,-0.001446537,0.000089030,-0.057592705,-0.059671722,9.805751801
1784151364.837470,-0.005889336,0.007436136,-0.060978621,0.001136819,-0.001326356,0.000432872,-0.075573936,-0.026166053,9.788911819
1784151364.839475,-0.005887909,0.007436914,-0.060978618,0.000926766,-0.000573158,0.000759255,-0.048908554,-0.048800945,9.773549080
1784151364.841472,-0.005887909,0.007436914,-0.060978618,0.000232213,-0.000033964,0.000562866,-0.072275475,-0.049178887,9.805804253
1784151364.843472,-0.005887909,0.007436914,-0.060978618,-0.000098253,-0.000181597,0.000182392,-0.061691280,-0.065363973,9.794502258
1784151364.845480,-0.005889040,0.007436903,-0.060978618,0.000348602,-0.000137556,0.000394557,-0.054589026,-0.070926882,9.807924271
1784151364.847525,-0.005889040,0.007436903,-0.060978618,0.000567017,0.000126684,0.001037639,-0.046259373,-0.049985740,9.809411049
1784151364.849492,-0.005887685,0.007435826,-0.060978621,0.000494565,0.000645551,0.001525620,-0.050493971,-0.032130260,9.763342857
1784151364.851484,-0.005887685,0.007435826,-0.060978621,0.000386768,0.000917135,0.001717962,-0.073746100,-0.060681440,9.787796021
1784151364.853512,-0.005887685,0.007435826,-0.060978621,0.000560008,0.000898821,0.001442086,-0.094599314,-0.078713432,9.777797699
1784151364.855495,-0.005890075,0.007437353,-0.060978618,0.000782458,0.001354414,0.000918946,-0.093274489,-0.042119306,9.795966148
1784151364.857492,-0.005890075,0.007437353,-0.060978618,0.000980819,0.001738808,0.000718712,-0.104637504,-0.016070750,9.807779312
1784151364.859494,-0.005887133,0.007438878,-0.060978603,0.001357170,0.001780686,0.000842662,-0.070313849,-0.037348215,9.776741028
1784151364.861494,-0.005887133,0.007438878,-0.060978603,0.001215405,0.001832904,0.001058782,-0.030777475,-0.032186460,9.798780441
1784151364.863523,-0.005887133,0.007438878,-0.060978603,0.000314477,0.001628994,0.000978934,-0.034755442,-0.030847695,9.743640900
1784151364.865494,-0.005885340,0.007436728,-0.060978618,-0.000341772,0.001393106,0.000487035,-0.048971262,-0.050917119,9.819265366
1784151364.867487,-0.005885340,0.007436728,-0.060978618,0.000026722,0.000959041,0.000309094,-0.062028512,-0.054346800,9.821024895
1784151364.869497,-0.005885458,0.007436619,-0.060978618,0.000687517,0.000187290,0.000394173,-0.075412661,-0.085483298,9.813189507
1784151364.871510,-0.005885458,0.007436619,-0.060978618,0.000668571,0.000135557,0.000277684,-0.082389228,-0.067580976,9.828542709
1784151364.873511,-0.005885458,0.007436619,-0.060978618,0.000333910,0.000550535,0.000321197,-0.081987530,-0.072415724,9.814612389
1784151364.875509,-0.005886295,0.007437181,-0.060978618,0.000176415,0.000473928,0.000350922,-0.050471816,-0.063871659,9.816492081
1784151364.877508,-0.005886295,0.007437181,-0.060978618,0.000022946,0.000184439,0.000389265,-0.036097798,-0.026748292,9.799707413
1784151364.879506,-0.005884780,0.007435840,-0.060978625,0.000165728,0.000149578,0.000617152,-0.023314219,-0.045742106,9.801390648
1784151364.881510,-0.005884780,0.007435840,-0.060978625,0.000559255,-0.000000840,0.000115012,-0.051931981,-0.075291544,9.786826134
1784151364.883515,-0.005884780,0.007435840,-0.060978625,0.000445569,-0.000340311,-0.000216605,-0.058002234,-0.058140844,9.780205727
1784151364.885509,-0.005885013,0.007435762,-0.060978625,0.000125028,-0.000626914,0.000497965,-0.079011649,-0.049137156,9.812075615
1784151364.887527,-0.005885013,0.007435762,-0.060978625,0.000107994,-0.000979262,0.000566770,-0.062126972,-0.064039782,9.798097610
1784151364.889525,-0.005885559,0.007435716,-0.060978625,0.000188737,-0.001142414,-0.000122561,-0.082519569,-0.044798791,9.775336266
1784151364.891518,-0.005885559,0.007435716,-0.060978625,-0.000165149,-0.000933829,-0.000461096,-0.103978835,-0.071362101,9.832083702
1784151364.893524,-0.005885559,0.007435716,-0.060978625,-0.000997828,-0.000503808,-0.001013961,-0.087996572,-0.051944871,9.782011032
1784151364.895519,-0.005885478,0.007436572,-0.060978621,-0.001495211,-0.000189839,-0.001723420,-0.050852321,-0.021685049,9.807348251
1784151364.897517,-0.005885478,0.007436572,-0.060978621,-0.001608535,-0.000271779,-0.001916657,-0.043157585,-0.017608050,9.787205696
1784151364.899523,-0.005884246,0.007435919,-0.060978629,-0.001337456,-0.000933132,-0.001428404,-0.054520193,-0.029146289,9.792051315
1784151364.901520,-0.005884246,0.007435919,-0.060978629,-0.000852487,-0.001457561,-0.000494840,-0.098434024,-0.022038329,9.816713333
1784151364.903535,-0.005884246,0.007435919,-0.060978629,-0.000832733,-0.001040499,-0.000388484,-0.094708301,-0.050089050,9.785153389
1784151364.905524,-0.005884004,0.007436778,-0.060978621,-0.000669133,-0.000464088,-0.000995218,-0.110071406,-0.057629738,9.802127838
1784151364.907532,-0.005884004,0.007436778,-0.060978621,-0.000409563,-0.000441565,-0.001457260,-0.114269815,-0.070594303,9.805625916
1784151364.909529,-0.005884158,0.007438840,-0.060978610,-0.000239914,-0.000515938,-0.001631923,-0.103712201,-0.052236121,9.788270950
1784151364.911529,-0.005884158,0.007438840,-0.060978610,0.000299712,-0.000469043,-0.001360800,-0.080094114,-0.065175951,9.801211357
1784151364.913535,-0.005884158,0.007438840,-0.060978610,0.000167701,-0.000501327,-0.001146442,-0.060511116,-0.078038603,9.810563087
1784151364.915534,-0.005885577,0.007437675,-0.060978618,-0.000522942,-0.000355447,-0.001152751,-0.052699622,-0.063718908,9.799005508
1784151364.917540,-0.005885577,0.007437675,-0.060978618,-0.000913370,0.000232933,-0.000721239,-0.045634776,-0.038471311,9.764204025
1784151364.919556,-0.005884348,0.007436350,-0.060978625,-0.001106638,0.000715018,-0.000478652,-0.043308631,-0.030147785,9.786677361
1784151364.921539,-0.005884348,0.007436350,-0.060978625,-0.001126721,0.000419927,-0.000792737,-0.079743333,-0.070817970,9.837939262
1784151364.923538,-0.005884348,0.007436350,-0.060978625,-0.000890301,0.000109486,-0.000570383,-0.063741170,-0.050838310,9.771728516
1784151364.925545,-0.005884465,0.007436453,-0.060978625,-0.000754297,-0.000063939,-0.000137386,-0.073902778,-0.035675719,9.800062180
1784151364.927542,-0.005884465,0.007436453,-0.060978625,-0.000962543,-0.000309416,-0.000400763,-0.069121219,-0.049924273,9.778903008
1784151364.929550,-0.005884039,0.007435597,-0.060978632,-0.000679258,-0.000490167,-0.001043245,-0.046580445,-0.039651446,9.805890083
1784151364.931545,-0.005884039,0.007435597,-0.060978632,-0.000003607,-0.000628894,-0.001185648,-0.050265174,-0.010466336,9.803832054
1784151364.933550,-0.005884039,0.007435597,-0.060978632,-0.000050646,-0.000243587,-0.000402995,-0.059026897,-0.030054668,9.801904678
1784151364.935548,-0.005882252,0.007435222,-0.060978632,-0.000768461,0.000333348,0.000023309,-0.038983703,-0.043237485,9.792425156
1784151364.937551,-0.005882252,0.007435222,-0.060978632,-0.001073709,0.000630611,-0.000532959,-0.039319810,-0.071827509,9.781033516
1784151364.939548,-0.005883080,0.007434313,-0.060978640,-0.000887299,0.000317237,-0.000362839,-0.056185085,-0.054745495,9.803543091
1784151364.941550,-0.005883080,0.007434313,-0.060978640,-0.000683389,-0.000167539,0.000373532,-0.060618423,-0.050211571,9.804015160
1784151364.943556,-0.005883080,0.007434313,-0.060978640,-0.000497641,-0.000553440,0.000314137,-0.090625659,-0.046954181,9.778004646
1784151364.945554,-0.005882824,0.007435304,-0.060978636,-0.000108346,-0.000835090,-0.000089767,-0.076613985,-0.072570570,9.826722145
1784151364.947586,-0.005882824,0.007435304,-0.060978636,0.000232129,-0.000719110,-0.000021091,-0.075424455,-0.086792216,9.808250427
1784151364.949561,-0.005883389,0.007435328,-0.060978636,-0.000095173,-0.000235201,0.000481546,-0.083196349,-0.061993625,9.800332069
1784151364.951591,-0.005883389,0.007435328,-0.060978636,-0.000531441,0.000122111,0.000414180,-0.083542980,-0.055103112,9.777062416
1784151364.953602,-0.005883389,0.007435328,-0.060978636,-0.000814371,0.000081249,-0.000484953,-0.083213329,-0.064153947,9.789110184
1784151364.955573,-0.005882846,0.007436363,-0.060978629,-0.001129178,0.000122106,-0.000724549,-0.043694332,-0.061155669,9.800374985
1784151364.957573,-0.005882846,0.007436363,-0.060978629,-0.001144405,0.000194814,0.000527580,-0.060325887,-0.064418532,9.785094261
1784151364.959571,-0.005883207,0.007435213,-0.060978632,-0.001171582,0.000358052,0.001097347,-0.077733211,-0.055362273,9.803070068
1784151364.961570,-0.005883207,0.007435213,-0.060978632,-0.001442255,0.000502875,0.000663727,-0.083373822,-0.077173419,9.793060303
1784151364.963575,-0.005883207,0.007435213,-0.060978632,-0.001712409,0.000677509,0.000943818,-0.071675055,-0.075445205,9.780979156
1784151364.965574,-0.005884550,0.007435911,-0.060978625,-0.001676115,0.000814790,0.002032827,-0.090435490,-0.066832386,9.800741196
1784151364.967569,-0.005884550,0.007435911,-0.060978625,-0.001305909,0.000981760,0.003043700,-0.080420993,-0.055292804,9.798136711
1784151364.969606,-0.005883690,0.007436545,-0.060978625,-0.000398369,0.001389487,0.002970386,-0.056882758,-0.038162611,9.804096222
1784151364.971591,-0.005883690,0.007436545,-0.060978625,0.000659777,0.001505338,0.002411148,-0.048253041,-0.029747864,9.802366257
1784151364.973581,-0.005883690,0.007436545,-0.060978625,0.001084563,0.001341919,0.001929611,-0.058217824,-0.037652891,9.797821045
1784151364.975578,-0.005882273,0.007435004,-0.060978632,0.000981204,0.001427525,0.001218265,-0.075209469,-0.031699955,9.810398102
1784151364.977580,-0.005882273,0.007435004,-0.060978632,0.000418502,0.001567030,0.000717764,-0.050471652,-0.066301882,9.780160904
1784151364.979580,-0.005882790,0.007433633,-0.060978644,0.000061671,0.001507642,0.000099616,-0.101875708,-0.045851313,9.832249641
1784151364.981581,-0.005882790,0.007433633,-0.060978644,-0.000090644,0.001338551,-0.000567850,-0.069140881,-0.050890148,9.788759232
1784151364.983588,-0.005882790,0.007433633,-0.060978644,-0.000531150,0.000928391,-0.000641023,-0.088340089,-0.078161910,9.815017700
1784151364.985583,-0.005883537,0.007434731,-0.060978636,-0.000909282,0.000377558,-0.000587513,-0.075477548,-0.053268857,9.819673538
1784151364.987581,-0.005883537,0.007434731,-0.060978636,-0.001130251,0.000081365,-0.000168771,-0.041577991,-0.072319858,9.791339874
1784151364.989586,-0.005883896,0.007432878,-0.060978644,-0.001541132,0.000226499,0.000426720,-0.064560361,-0.042509511,9.799130440
1784151364.991584,-0.005883896,0.007432878,-0.060978644,-0.001625689,0.000096807,0.000715145,-0.028932894,-0.029384965,9.779521942
1784151364.993596,-0.005883896,0.007432878,-0.060978644,-0.001220213,-0.000325366,0.000707553,-0.055654507,-0.050052237,9.772637367
1784151364.995689,-0.005883094,0.007432087,-0.060978647,-0.000633870,-0.000456725,0.000811778,-0.071315587,-0.046670772,9.766368866
1784151364.997608,-0.005883094,0.007432087,-0.060978647,-0.000026648,-0.000573687,0.001104494,-0.075620271,-0.066958517,9.791788101
1784151364.999590,-0.005882955,0.007432634,-0.060978647,0.000178207,-0.000907657,0.001207660,-0.091608159,-0.051667131,9.812495232
1784151365.001624,-0.005882955,0.007432634,-0.060978647,0.000180489,-0.001312797,0.001516354,-0.073525600,-0.041514501,9.801368713
1784151365.003608,-0.005882955,0.007432634,-0.060978647,-0.000157845,-0.001350291,0.001417197,-0.025502888,-0.005664190,9.776987076
1784151365.005600,-0.005881263,0.007430573,-0.060978662,-0.000325280,-0.000976277,0.000336423,-0.036073800,0.010625831,9.773493767
1784151365.007633,-0.005881263,0.007430573,-0.060978662,0.000403361,-0.000588207,-0.000250345,-0.045540288,-0.029620202,9.779503822
1784151365.009602,-0.005880377,0.007429251,-0.060978666,0.001022355,-0.000452107,-0.000407698,-0.053991124,-0.095592156,9.810009003
1784151365.011600,-0.005880377,0.007429251,-0.060978666,0.000458050,-0.000646672,-0.000742200,-0.061135549,-0.091983244,9.819438934
1784151365.013600,-0.005880377,0.007429251,-0.060978666,-0.000442593,-0.000804230,-0.000481296,-0.084512822,-0.059310868,9.803486824
1784151365.015601,-0.005880838,0.007430247,-0.060978658,-0.000806228,-0.000563949,0.000000041,-0.059008196,-0.026664937,9.829274178
1784151365.017605,-0.005880838,0.007430247,-0.060978658,-0.000815140,-0.000191794,0.000045315,-0.070241295,-0.066665404,9.803900719
1784151365.019608,-0.005881357,0.007430268,-0.060978662,-0.000405113,0.000076596,-0.000209886,-0.073754966,-0.060751397,9.797659874
1784151365.021608,-0.005881357,0.007430268,-0.060978662,0.000528077,0.000357152,-0.000701196,-0.069575042,-0.086333133,9.796153069
1784151365.023607,-0.005881357,0.007430268,-0.060978662,0.001152116,0.000540705,-0.000499709,-0.053884037,-0.050672632,9.793708801
1784151365.025615,-0.005881037,0.007430079,-0.060978662,0.000933648,0.000408592,0.000149972,-0.047658533,-0.054845188,9.802205086
1784151365.027606,-0.005881037,0.007430079,-0.060978662,0.000104155,0.000123467,0.000314260,-0.054584123,-0.034108832,9.796951294
1784151365.029617,-0.005879670,0.007428659,-0.060978673,-0.000698516,-0.000115889,0.000072414,-0.078899831,-0.040149324,9.808096886
1784151365.031613,-0.005879670,0.007428659,-0.060978673,-0.000293436,-0.000802585,-0.000484137,-0.064699106,-0.055357307,9.778872490
1784151365.033614,-0.005879670,0.007428659,-0.060978673,0.000147118,-0.001232296,-0.000907007,-0.070053890,-0.052622799,9.782023430
1784151365.035611,-0.005879262,0.007428756,-0.060978673,-0.000302814,-0.000855268,-0.000851407,-0.080153316,-0.033727080,9.789307594
1784151365.037619,-0.005879262,0.007428756,-0.060978673,-0.000252350,-0.000658342,-0.000539958,-0.107896730,-0.061849114,9.824517250
1784151365.039622,-0.005879332,0.007429989,-0.060978666,0.000216780,-0.000750990,-0.000728891,-0.088685498,-0.068425030,9.832564354
1784151365.041620,-0.005879332,0.007429989,-0.060978666,0.000142995,-0.000830783,-0.001065825,-0.082338601,-0.065560199,9.796275139
1784151365.043623,-0.005879332,0.007429989,-0.060978666,-0.000377334,-0.000472445,-0.000894508,-0.070127875,-0.054827999,9.840292931
1784151365.045623,-0.005879449,0.007429599,-0.060978666,-0.000518889,0.000037364,-0.000659631,-0.094265513,-0.048925787,9.809820175
1784151365.047675,-0.005879449,0.007429599,-0.060978666,-0.000011734,0.000110867,0.000052339,-0.065974303,-0.046269909,9.826453209
1784151365.049639,-0.005878843,0.007428991,-0.060978666,-0.000043250,-0.000102027,0.000695243,-0.076451771,-0.058321662,9.838917732
1784151365.051630,-0.005878843,0.007428991,-0.060978666,-0.001092635,0.000026926,0.000676144,-0.080074877,-0.025813220,9.810429573
1784151365.053667,-0.005878843,0.007428991,-0.060978666,-0.001767418,0.000065571,0.000716221,-0.089716449,-0.042819940,9.825107574
1784151365.055635,-0.005877700,0.007430045,-0.060978662,-0.001631843,-0.000522466,0.000327788,-0.079375893,-0.044006702,9.784310341
1784151365.057641,-0.005877700,0.007430045,-0.060978662,-0.000986841,-0.000666865,-0.000259612,-0.049647033,-0.071345881,9.794924736
1784151365.059642,-0.005878462,0.007428743,-0.060978670,-0.000388139,-0.000400114,0.000072927,-0.034369126,-0.107336290,9.787982941
1784151365.061639,-0.005878462,0.007428743,-0.060978670,-0.000024588,-0.000293231,0.000025746,-0.048703086,-0.068558328,9.779250145
1784151365.063637,-0.005878462,0.007428743,-0.060978670,-0.000050051,-0.000459910,-0.000714469,-0.065008193,-0.043307479,9.786123276
1784151365.065638,-0.005878507,0.007428243,-0.060978670,-0.000434305,-0.000832922,-0.000678033,-0.050115533,-0.038769580,9.751196861
1784151365.067636,-0.005878507,0.007428243,-0.060978670,-0.000443065,-0.000985128,-0.000072735,-0.062972941,-0.062001143,9.764932632
1784151365.069643,-0.005878709,0.007428240,-0.060978670,-0.000732021,-0.000533326,0.000100127,-0.118916906,-0.045963153,9.815644264
1784151365.071642,-0.005878709,0.007428240,-0.060978670,-0.001319003,0.000035515,-0.000043984,-0.049033929,-0.056680199,9.810709953
1784151365.073641,-0.005878709,0.007428240,-0.060978670,-0.001279951,0.000103669,-0.000276518,-0.050969251,-0.032334372,9.792931557
1784151365.075650,-0.005877943,0.007427256,-0.060978677,-0.000618787,0.000058823,-0.000824526,-0.048272200,-0.032330710,9.787553787
1784151365.077648,-0.005877943,0.007427256,-0.060978677,0.000064723,0.000346635,-0.001005016,-0.057009082,-0.050101761,9.782052040
1784151365.079649,-0.005877575,0.007426546,-0.060978688,0.000203773,0.000899611,-0.000719967,-0.061426125,-0.079787150,9.806066513
1784151365.081653,-0.005877575,0.007426546,-0.060978688,0.000012485,0.001034618,-0.000351802,-0.064655147,-0.087737076,9.795701027
1784151365.083654,-0.005877575,0.007426546,-0.060978688,-0.000172358,0.000147047,-0.000666821,-0.088938624,-0.053096384,9.819661140
1784151365.085653,-0.005877802,0.007427437,-0.060978677,-0.000655088,-0.001014996,-0.001351030,-0.078741558,-0.027552357,9.800557137
1784151365.087651,-0.005877802,0.007427437,-0.060978677,-0.001181419,-0.001161443,-0.001232084,-0.042964026,-0.039891031,9.770026207
1784151365.089655,-0.005877302,0.007426059,-0.060978688,-0.000965977,-0.000988813,-0.000781889,-0.071339458,-0.045238227,9.817039490
1784151365.091653,-0.005877302,0.007426059,-0.060978688,-0.000592728,-0.000937051,-0.000508151,-0.091206826,-0.057315134,9.786904335
1784151365.093660,-0.005877302,0.007426059,-0.060978688,-0.000355615,-0.000737970,-0.000145425,-0.088045545,-0.092352971,9.793856621
1784151365.095695,-0.005878587,0.007426858,-0.060978681,-0.000007417,-0.001028475,0.000387446,-0.084381588,-0.086543679,9.789414406
1784151365.097673,-0.005878587,0.007426858,-0.060978681,-0.000188574,-0.001272743,0.000991386,-0.074527733,-0.050840240,9.791444778
1784151365.099667,-0.005877983,0.007427314,-0.060978677,-0.000116277,-0.001036586,0.001054893,-0.080825448,-0.051290382,9.803092957
1784151365.101671,-0.005877983,0.007427314,-0.060978677,0.000484122,-0.000419257,0.000905939,-0.076014638,-0.025286635,9.792056084
1784151365.103671,-0.005877983,0.007427314,-0.060978677,0.000668200,0.000085198,0.001122263,-0.080259435,-0.081070438,9.768381119
1784151365.105674,-0.005878445,0.007427657,-0.060978677,0.000632870,-0.000192681,0.001149625,-0.091548927,-0.086762920,9.770127296
1784151365.107669,-0.005878445,0.007427657,-0.060978677,0.000696470,-0.000591301,0.000717311,-0.113788038,-0.068312548,9.798917770
1784151365.109670,-0.005878420,0.007429773,-0.060978658,0.000482293,0.000040960,0.000100221,-0.099433921,-0.031751607,9.798268318
1784151365.111672,-0.005878420,0.007429773,-0.060978658,0.000326569,0.000537329,-0.000313019,-0.084555283,-0.025298221,9.809083939
1784151365.113675,-0.005878420,0.007429773,-0.060978658,0.000564422,0.000081303,0.000013756,-0.056996342,-0.044732962,9.846197128
1784151365.115672,-0.005877880,0.007429477,-0.060978658,0.000444523,-0.000467721,0.000900000,-0.051296435,-0.058827668,9.801727295
1784151365.117676,-0.005877880,0.007429477,-0.060978658,0.000218957,-0.000359776,0.001151089,-0.043956432,-0.081866808,9.815037727
1784151365.119676,-0.005878971,0.007428124,-0.060978666,0.000170954,0.000332678,0.000832159,-0.040816847,-0.083133295,9.798443794
1784151365.121679,-0.005878971,0.007428124,-0.060978666,0.000059485,0.000494745,0.000796363,-0.052316338,-0.067483231,9.823639870
1784151365.123680,-0.005878971,0.007428124,-0.060978666,0.000534451,0.000245832,0.000931591,-0.088236161,-0.034077913,9.790194511
1784151365.125686,-0.005877573,0.007427664,-0.060978673,0.001006516,0.000009366,0.000993893,-0.111490443,-0.029108562,9.763303757
1784151365.127679,-0.005877573,0.007427664,-0.060978673,0.000629340,0.000007757,0.000894670,-0.072749205,-0.016643919,9.767904282
1784151365.129692,-0.005876402,0.007427315,-0.060978673,0.000101981,0.000045638,0.000768047,-0.060271967,-0.022755576,9.785810471
1784151365.131693,-0.005876402,0.007427315,-0.060978673,-0.000208598,0.000163211,0.000550060,-0.062609978,-0.069167919,9.763991356
1784151365.133693,-0.005876402,0.007427315,-0.060978673,-0.000123021,0.000694483,0.000556703,-0.072800770,-0.057477716,9.776609421
1784151365.135691,-0.005876407,0.007426937,-0.060978673,0.000084087,0.001080280,0.000507610,-0.063840181,-0.058104262,9.785579681
1784151365.137690,-0.005876407,0.007426937,-0.060978673,-0.000454737,0.001081886,0.000288675,-0.047854066,-0.070978150,9.802997589
1784151365.139689,-0.005876453,0.007425851,-0.060978681,-0.000812471,0.000991688,0.000291196,-0.069721706,-0.060437843,9.809321404
1784151365.141691,-0.005876453,0.007425851,-0.060978681,-0.000337888,0.000307518,0.000056082,-0.071244344,-0.039624218,9.783450127
1784151365.143692,-0.005876453,0.007425851,-0.060978681,0.000274764,-0.000642201,-0.000370012,-0.061914247,-0.083739914,9.795729637
1784151365.145696,-0.005877704,0.007425293,-0.060978681,0.000579342,-0.001045100,-0.000588774,-0.081410356,-0.062896639,9.798087120
1784151365.147695,-0.005877704,0.007425293,-0.060978681,0.000280108,-0.001062336,-0.000855739,-0.069320180,-0.062842377,9.831722260
1784151365.149697,-0.005877622,0.007424677,-0.060978688,-0.000150306,-0.000623508,-0.000903628,-0.043506045,-0.045079947,9.807651520
1784151365.151699,-0.005877622,0.007424677,-0.060978688,-0.000410968,-0.000272826,-0.000216186,-0.058732014,-0.043432478,9.792404175
1784151365.153738,-0.005877622,0.007424677,-0.060978688,-0.000189992,-0.000471989,0.000318832,-0.070455179,-0.047784876,9.795503616
1784151365.155716,-0.005876974,0.007424513,-0.060978681,-0.000173018,-0.000666423,0.000202633,-0.062109366,-0.062279731,9.802591324
1784151365.157708,-0.005876974,0.007424513,-0.060978681,-0.000826966,-0.000566671,0.000082165,-0.087948918,-0.082269251,9.824855804
1784151365.159710,-0.005878182,0.007424876,-0.060978681,-0.000797379,-0.000482566,0.000175792,-0.087319732,-0.070313238,9.780548096
1784151365.161710,-0.005878182,0.007424876,-0.060978681,-0.000139061,-0.000172963,-0.000277110,-0.046540286,-0.037713338,9.785280228
1784151365.163708,-0.005878182,0.007424876,-0.060978681,0.000251334,0.000161646,-0.000624629,-0.075668477,-0.034207094,9.785722733
1784151365.165711,-0.005877055,0.007424183,-0.060978688,0.000406013,0.000223713,-0.000373561,-0.101093061,-0.021336472,9.785779953
1784151365.167713,-0.005877055,0.007424183,-0.060978688,0.000069508,0.000438421,-0.000623674,-0.079135261,-0.062270746,9.768951416
1784151365.169719,-0.005878583,0.007424628,-0.060978688,-0.000591412,0.000529422,-0.001149888,-0.051943194,-0.076190658,9.787269592
1784151365.171715,-0.005878583,0.007424628,-0.060978688,-0.000584377,0.000643893,-0.001441925,-0.050742842,-0.086679526,9.810964584
1784151365.173720,-0.005878583,0.007424628,-0.060978688,-0.000107566,0.000918861,-0.001436233,-0.082845651,-0.069662407,9.807007790
1784151365.175719,-0.005879956,0.007424623,-0.060978688,-0.000325593,0.000745182,-0.001092084,-0.077895761,-0.032834459,9.785728455
1784151365.177721,-0.005879956,0.007424623,-0.060978688,-0.000810388,0.000393275,-0.001673532,-0.073718525,-0.019631792,9.811821938
1784151365.179720,-0.005878442,0.007425088,-0.060978688,-0.000185408,0.000236135,-0.002383832,-0.075188704,-0.031941239,9.781253815
1784151365.181724,-0.005878442,0.007425088,-0.060978688,0.000970968,-0.000123653,-0.002287770,-0.053652540,-0.030203151,9.813117027
1784151365.183726,-0.005878442,0.007425088,-0.060978688,0.001413203,-0.000527647,-0.001858180,-0.058232389,-0.039794132,9.783910751
1784151365.185727,-0.005877036,0.007424599,-0.060978688,0.001082237,-0.001048236,-0.001655838,-0.061776433,-0.072115190,9.798943520
1784151365.187723,-0.005877036,0.007424599,-0.060978688,0.000661380,-0.001387882,-0.001779275,-0.087257929,-0.098499574,9.837753296
1784151365.189727,-0.005878955,0.007425768,-0.060978681,0.000304729,-0.001116558,-0.001252626,-0.093579926,-0.068440907,9.780553818
1784151365.191734,-0.005878955,0.007425768,-0.060978681,-0.000586286,-0.000715542,-0.000634164,-0.067655757,-0.039273128,9.790630341
1784151365.193749,-0.005878955,0.007425768,-0.060978681,-0.001234814,-0.000456975,-0.000580947,-0.082567893,-0.048017185,9.786973000
1784151365.195736,-0.005878128,0.007425938,-0.060978677,-0.000768303,-0.000456736,-0.000866668,-0.072788276,-0.054542307,9.804871559
1784151365.197776,-0.005878128,0.007425938,-0.060978677,0.000167861,-0.000533771,-0.001272865,-0.095098011,-0.043538757,9.809853554
1784151365.199747,-0.005878226,0.007427516,-0.060978670,0.000688279,-0.000427704,-0.001315403,-0.100007661,-0.041648697,9.804928780
1784151365.201749,-0.005878226,0.007427516,-0.060978670,0.000432280,-0.000454571,-0.000860582,-0.045075126,-0.028685519,9.773234367
1784151365.203751,-0.005878226,0.007427516,-0.060978670,-0.000166398,-0.000180383,-0.000744890,-0.051136997,-0.048247930,9.762791634
1784151365.205746,-0.005878172,0.007426224,-0.060978677,-0.000634376,0.000433241,-0.000586146,-0.070206046,-0.066792212,9.758618355
1784151365.207739,-0.005878172,0.007426224,-0.060978677,-0.000957778,0.000843630,-0.000398473,-0.063178197,-0.077400334,9.788595200
1784151365.209750,-0.005878791,0.007425812,-0.060978681,-0.000704360,0.001034528,-0.001110015,-0.068441950,-0.068273559,9.774750710
1784151365.211748,-0.005878791,0.007425812,-0.060978681,-0.000106175,0.000918365,-0.001827700,-0.068616517,-0.043814369,9.800909996
1784151365.213748,-0.005878791,0.007425812,-0.060978681,-0.000086773,0.000924352,-0.001718870,-0.080925219,-0.059372760,9.805730820
1784151365.215744,-0.005878933,0.007425906,-0.060978677,-0.000091912,0.000908377,-0.001224540,-0.096632324,-0.057570469,9.832627296
1784151365.217752,-0.005878933,0.007425906,-0.060978677,0.000009419,0.000589399,-0.000829868,-0.067520775,-0.062423773,9.832623482
1784151365.219748,-0.005878854,0.007425476,-0.060978681,-0.000259120,0.000416154,-0.000777242,-0.055990830,-0.075401969,9.809687614
1784151365.221749,-0.005878854,0.007425476,-0.060978681,-0.000182215,0.000430449,-0.000647429,-0.089407466,-0.053249620,9.842076302
1784151365.223750,-0.005878854,0.007425476,-0.060978681,0.000069083,0.000219556,-0.000030283,-0.073617265,-0.047506519,9.825093269
1784151365.225754,-0.005878608,0.007425862,-0.060978681,0.000180113,0.000189928,0.000871174,-0.061299417,-0.033091702,9.792019844
1784151365.227760,-0.005878608,0.007425862,-0.060978681,0.000607842,0.000418142,0.001277094,-0.063186117,-0.041494112,9.779859543
1784151365.229764,-0.005878077,0.007425617,-0.060978681,0.001047297,0.000551334,0.000868800,-0.080581777,-0.035182483,9.742671013
1784151365.231761,-0.005878077,0.007425617,-0.060978681,0.000842960,0.000688577,0.000805426,-0.082292788,-0.025987603,9.775905609
1784151365.233764,-0.005878077,0.007425617,-0.060978681,0.000566915,0.000910831,0.001590122,-0.066412821,-0.047804818,9.791023254
1784151365.235758,-0.005877589,0.007425535,-0.060978681,0.000909370,0.001104871,0.001837874,-0.065673262,-0.061220169,9.786006927
1784151365.237765,-0.005877589,0.007425535,-0.060978681,0.000793517,0.000698057,0.001057979,-0.085325301,-0.052144710,9.805324554
1784151365.239767,-0.005877605,0.007426203,-0.060978677,-0.000051597,0.000231347,0.000253002,-0.072681792,-0.085212544,9.770154953
1784151365.241768,-0.005877605,0.007426203,-0.060978677,-0.000666150,0.000016673,-0.000224404,-0.053659394,-0.067847170,9.814220428
1784151365.243769,-0.005877605,0.007426203,-0.060978677,-0.000484538,-0.000330367,0.000059561,-0.050904531,-0.064955421,9.780616760
1784151365.245773,-0.005877639,0.007425480,-0.060978681,0.000423289,-0.000683865,0.000646186,-0.059314959,-0.054212771,9.797266006
1784151365.247780,-0.005877639,0.007425480,-0.060978681,0.000741842,-0.001023368,0.000368514,-0.083031438,-0.048939161,9.791449547
1784151365.249779,-0.005877608,0.007425929,-0.060978681,0.000306165,-0.001277949,-0.000412526,-0.062993191,-0.098129958,9.805051804
1784151365.251775,-0.005877608,0.007425929,-0.060978681,0.000025021,-0.001358571,-0.000529569,-0.077216044,-0.086743772,9.804661751
1784151365.253805,-0.005877608,0.007425929,-0.060978681,-0.000216689,-0.001313781,0.000179965,-0.079508349,-0.054373398,9.793210030
1784151365.255790,-0.005878053,0.007426064,-0.060978677,-0.000735392,-0.001152680,0.000895594,-0.098537847,-0.032989342,9.781673431
1784151365.257796,-0.005878053,0.007426064,-0.060978677,-0.001273549,-0.000852382,0.001219117,-0.046238877,-0.011423540,9.805175781
1784151365.259785,-0.005876760,0.007425148,-0.060978688,-0.000905999,-0.000606142,0.001510315,-0.068145663,-0.043645240,9.776253700
1784151365.261785,-0.005876760,0.007425148,-0.060978688,0.000194078,-0.000346513,0.001850582,-0.070864633,-0.044227228,9.800009727
1784151365.263790,-0.005876760,0.007425148,-0.060978688,0.000850449,-0.000261815,0.001772718,-0.063391261,-0.093266577,9.814944267
1784151365.265785,-0.005878286,0.007425115,-0.060978688,0.000655408,-0.000676287,0.001297081,-0.050588001,-0.073704548,9.813288689
1784151365.267786,-0.005878286,0.007425115,-0.060978688,0.000372174,-0.000600270,0.001205191,-0.085985981,-0.034459226,9.776744843
1784151365.269788,-0.005878140,0.007425762,-0.060978688,0.000516795,0.000310415,0.001937853,-0.096699886,-0.030645348,9.763756752
1784151365.271864,-0.005878140,0.007425762,-0.060978688,0.000494556,0.000832550,0.002253978,-0.085818820,-0.018955471,9.801501274
1784151365.273801,-0.005878140,0.007425762,-0.060978688,0.000294815,0.000805344,0.001759637,-0.068134785,-0.040722549,9.806310654
1784151365.275797,-0.005877795,0.007426011,-0.060978688,0.000182367,0.000514739,0.001470265,-0.061507192,-0.049726669,9.800430298
1784151365.277794,-0.005877795,0.007426011,-0.060978688,-0.000367705,0.000417960,0.000952477,-0.056945771,-0.044738945,9.783880234
1784151365.279796,-0.005877255,0.007425088,-0.060978696,-0.000801333,0.000531125,0.000034690,-0.053548455,-0.058055624,9.823250771
1784151365.281798,-0.005877255,0.007425088,-0.060978696,-0.000685967,0.000427151,-0.000345432,-0.063250743,-0.045246322,9.803597450
1784151365.283799,-0.005877255,0.007425088,-0.060978696,-0.000299604,0.000020288,0.000008102,-0.059295837,-0.050819863,9.824188232
1784151365.285798,-0.005877259,0.007424965,-0.060978696,0.000480583,-0.000895672,0.000624024,-0.053445507,-0.049137734,9.829134941
1784151365.287805,-0.005877259,0.007424965,-0.060978696,0.000580459,-0.001431340,0.000982447,-0.035260245,-0.032500617,9.788014412
1784151365.289807,-0.005876448,0.007424060,-0.060978699,-0.000656607,-0.000941934,0.000993649,-0.070923276,-0.049958516,9.786971092
1784151365.291807,-0.005876448,0.007424060,-0.060978699,-0.001447108,-0.000510952,0.000406690,-0.094204508,-0.042365357,9.832278252
1784151365.293805,-0.005876448,0.007424060,-0.060978699,-0.000977908,-0.000584798,-0.000256077,-0.086578019,-0.044906028,9.797748566
1784151365.295810,-0.005876158,0.007424674,-0.060978699,-0.000944599,-0.000655702,-0.000342342,-0.058600694,-0.031048553,9.814900398
1784151365.297810,-0.005876158,0.007424674,-0.060978699,-0.001389923,-0.000561065,0.000046180,-0.043544315,-0.013465727,9.772437096
1784151365.299810,-0.005875443,0.007423654,-0.060978707,-0.001113797,-0.000156060,0.000241781,-0.034164559,-0.053136792,9.789675713
1784151365.301807,-0.005875443,0.007423654,-0.060978707,-0.000908068,0.000413126,-0.000300160,-0.028321199,-0.090315379,9.777786255
1784151365.303815,-0.005875443,0.007423654,-0.060978707,-0.000816702,0.000449976,-0.000624948,-0.078465186,-0.043913271,9.769516945
1784151365.305815,-0.005875657,0.007423287,-0.060978707,0.000059569,0.000178222,-0.000555050,-0.088449463,-0.014787576,9.787178993
1784151365.307843,-0.005875657,0.007423287,-0.060978707,0.000790920,0.000230906,-0.000448430,-0.059417367,-0.024320815,9.815390587
1784151365.309820,-0.005874971,0.007423020,-0.060978707,0.000366492,0.000387159,-0.000299415,-0.067265876,-0.045416791,9.771760941
1784151365.311814,-0.005874971,0.007423020,-0.060978707,-0.000251085,0.000361647,-0.000408748,-0.061495099,-0.046794441,9.829142570
1784151365.313824,-0.005874971,0.007423020,-0.060978707,-0.000500984,0.000378786,-0.000794759,-0.067752719,-0.082086369,9.825773239
1784151365.315822,-0.005875754,0.007423071,-0.060978707,-0.000554831,0.000534104,-0.001111069,-0.082369380,-0.103798427,9.817997932
1784151365.317835,-0.005875754,0.007423071,-0.060978707,-0.000307063,0.000445834,-0.001288007,-0.095962569,-0.078426287,9.802904129
1784151365.319825,-0.005876438,0.007423939,-0.060978699,0.000231467,0.000053573,-0.001400112,-0.047689781,-0.057523422,9.800843239
1784151365.321827,-0.005876438,0.007423939,-0.060978699,0.000803294,-0.000289888,-0.001192986,-0.049908087,-0.054864138,9.808928490
1784151365.323825,-0.005876438,0.007423939,-0.060978699,0.000950751,-0.000251864,-0.000607676,-0.043356054,-0.034979969,9.773195267
1784151365.325826,-0.005875251,0.007422894,-0.060978707,0.000701047,0.000246116,0.000073495,-0.070728727,-0.068991661,9.816886902
1784151365.327829,-0.005875251,0.007422894,-0.060978707,0.000441148,0.000070197,0.000494388,-0.089367412,-0.052528210,9.803524971
1784151365.329838,-0.005874768,0.007423415,-0.060978707,-0.000007251,-0.000647921,0.000598736,-0.078566901,-0.012394818,9.810966492
1784151365.331832,-0.005874768,0.007423415,-0.060978707,-0.000703433,-0.000266121,0.000516740,-0.086269557,-0.056555580,9.797225952
1784151365.333835,-0.005874768,0.007423415,-0.060978707,-0.000625210,0.000548225,0.000045734,-0.067221165,-0.076980129,9.799802780
1784151365.335833,-0.005875603,0.007423194,-0.060978707,-0.000116934,0.001029825,-0.000495865,-0.076678321,-0.077536292,9.832069397
1784151365.337840,-0.005875603,0.007423194,-0.060978707,-0.000420187,0.000956168,-0.000929952,-0.053333834,-0.041366592,9.807218552
1784151365.339839,-0.005874442,0.007422355,-0.060978714,-0.000991411,0.000258868,-0.001340582,-0.047535285,-0.045361690,9.791505814
1784151365.341839,-0.005874442,0.007422355,-0.060978714,-0.001243203,-0.000089218,-0.001584414,-0.090661444,-0.048047248,9.805794716
1784151365.343843,-0.005874442,0.007422355,-0.060978714,-0.001098085,-0.000058351,-0.001759937,-0.073739730,-0.062657341,9.750572205
1784151365.345862,-0.005875213,0.007422592,-0.060978714,-0.000437346,-0.000528270,-0.001817457,-0.082049057,-0.042606071,9.781180382
1784151365.347847,-0.005875213,0.007422592,-0.060978714,0.000129626,-0.001268725,-0.001662873,-0.082998291,-0.044624884,9.814788818
1784151365.349848,-0.005875112,0.007422609,-0.060978714,0.000437278,-0.001431564,-0.001133137,-0.076291695,-0.082895324,9.828898430
1784151365.351849,-0.005875112,0.007422609,-0.060978714,0.000541644,-0.000866480,-0.000490886,-0.080128856,-0.066666104,9.821824074
1784151365.353867,-0.005875112,0.007422609,-0.060978714,0.000293959,-0.000359454,-0.000329876,-0.039185621,-0.094984509,9.823924065
1784151365.355853,-0.005875900,0.007422007,-0.060978714,0.000112182,-0.000238524,-0.000791627,-0.038325325,-0.097315311,9.835118294
1784151365.357857,-0.005875900,0.007422007,-0.060978714,0.000087566,-0.000275813,-0.001417364,-0.062583096,-0.064497896,9.800335884
1784151365.359852,-0.005875214,0.007421389,-0.060978718,-0.000238021,-0.000230431,-0.001421995,-0.073036514,-0.039985586,9.774478912
1784151365.361856,-0.005875214,0.007421389,-0.060978718,-0.000547311,-0.000056031,-0.000865091,-0.077382147,-0.027464680,9.785763741
1784151365.363855,-0.005875214,0.007421389,-0.060978718,0.000060824,0.000154130,-0.000800589,-0.075309485,-0.042215727,9.777153015
1784151365.365857,-0.005874839,0.007422021,-0.060978718,0.001337941,0.000462000,-0.001040241,-0.064032480,-0.036621816,9.789305687
1784151365.367859,-0.005874839,0.007422021,-0.060978718,0.001975984,0.000454114,-0.000999961,-0.056701057,-0.060944427,9.794088364
1784151365.369869,-0.005875287,0.007421922,-0.060978714,0.001640835,0.000165577,-0.000413859,-0.055079393,-0.074492112,9.806106567
1784151365.371864,-0.005875287,0.007421922,-0.060978714,0.001412702,-0.000137555,0.000463914,-0.042347822,-0.061169736,9.799927711
1784151365.373885,-0.005875287,0.007421922,-0.060978714,0.001518655,-0.000358884,0.000706652,-0.031035900,-0.053679056,9.797296524
1784151365.375866,-0.005875167,0.007420150,-0.060978726,0.001126472,-0.000513288,0.000593947,-0.044401094,-0.044239301,9.817070961
1784151365.377899,-0.005875167,0.007420150,-0.060978726,0.000443568,-0.000567601,0.000529588,-0.058280997,-0.041799005,9.813935280
1784151365.379891,-0.005874100,0.007419594,-0.060978726,-0.000012824,-0.000139963,0.000539527,-0.058310937,-0.046087839,9.787007332
1784151365.381872,-0.005874100,0.007419594,-0.060978726,-0.000001817,0.000255313,0.000962971,-0.070250899,-0.029961819,9.809068680
1784151365.383877,-0.005874100,0.007419594,-0.060978726,0.000617432,0.000247805,0.001415185,-0.083202645,-0.099227831,9.806818008
1784151365.385874,-0.005875043,0.007420169,-0.060978726,0.000742083,0.000068188,0.001364041,-0.094724000,-0.087803021,9.796119690
1784151365.387875,-0.005875043,0.007420169,-0.060978726,-0.000181804,-0.000302492,0.001125265,-0.074144177,-0.093408041,9.791172981
1784151365.389879,-0.005876428,0.007420242,-0.060978718,-0.000978584,-0.000388988,0.000591109,-0.064835526,-0.063729018,9.822305679
1784151365.391924,-0.005876428,0.007420242,-0.060978718,-0.000924760,-0.000297510,0.000312161,-0.057719816,-0.034027264,9.791120529
1784151365.393892,-0.005876428,0.007420242,-0.060978718,-0.000694742,-0.000708543,0.001352168,-0.072691545,-0.011325616,9.776007652
1784151365.395931,-0.005874660,0.007420362,-0.060978718,-0.001016101,-0.000899689,0.002921959,-0.063637748,-0.039890483,9.807218552
1784151365.397901,-0.005874660,0.007420362,-0.060978718,-0.001243446,-0.000531713,0.003526818,-0.046446510,-0.068078697,9.770738602
1784151365.399888,-0.005874941,0.007419188,-0.060978726,-0.000842556,0.000008203,0.002670136,-0.084891960,-0.054298051,9.792310715
1784151365.401887,-0.005874941,0.007419188,-0.060978726,-0.000004274,0.000650502,0.001578960,-0.076647133,-0.039294869,9.809898376
1784151365.403891,-0.005874941,0.007419188,-0.060978726,0.000457458,0.000846486,0.001359956,-0.058741845,-0.043915417,9.797332764
1784151365.405892,-0.005874101,0.007419038,-0.060978726,0.000260857,0.000342828,0.001881935,-0.045609675,-0.034220640,9.796511650
1784151365.407891,-0.005874101,0.007419038,-0.060978726,-0.000134587,0.000068413,0.002298409,-0.059849724,-0.024591325,9.791179657
1784151365.409896,-0.005872818,0.007419259,-0.060978729,-0.000613539,0.000398516,0.001629657,-0.069217540,-0.093137793,9.807318687
1784151365.411895,-0.005872818,0.007419259,-0.060978729,-0.000637819,0.000405930,0.000419624,-0.052702397,-0.102141209,9.783514977
1784151365.413908,-0.005872818,0.007419259,-0.060978729,-0.000314665,0.000208337,-0.000245840,-0.073236294,-0.055746902,9.786035538
1784151365.415900,-0.005873575,0.007418807,-0.060978729,-0.000242552,0.000082159,-0.000405852,-0.076018311,-0.059258305,9.843844414
1784151365.417904,-0.005873575,0.007418807,-0.060978729,-0.000262572,-0.000097091,-0.000829901,-0.074365988,-0.073374406,9.809680939
1784151365.419904,-0.005874326,0.007418398,-0.060978733,-0.000295886,-0.000264135,-0.001030739,-0.068642177,-0.045638014,9.805382729
1784151365.421904,-0.005874326,0.007418398,-0.060978733,-0.000465573,-0.000351246,-0.000689686,-0.084343195,-0.044598099,9.813443184
1784151365.423913,-0.005874326,0.007418398,-0.060978733,-0.000333131,-0.000164925,-0.000529694,-0.045450419,-0.058800660,9.787386894
1784151365.425902,-0.005874583,0.007417620,-0.060978737,-0.000542698,0.000117438,-0.000304499,-0.054810315,-0.014920252,9.808282852
1784151365.427908,-0.005874583,0.007417620,-0.060978737,-0.001021032,0.000308537,-0.000122995,-0.076523192,-0.031021712,9.780361176
1784151365.429912,-0.005873975,0.007418089,-0.060978733,-0.000591407,0.000388574,-0.000513366,-0.087559722,-0.052449450,9.789180756
1784151365.431913,-0.005873975,0.007418089,-0.060978733,-0.000155471,0.000121347,-0.000763263,-0.086376682,-0.028321926,9.796510696
1784151365.433912,-0.005873975,0.007418089,-0.060978733,-0.000490984,-0.000194491,-0.000585986,-0.064570442,-0.045425840,9.768177032
1784151365.435920,-0.005873372,0.007418014,-0.060978733,-0.000569634,-0.000121041,-0.000346576,-0.056862965,-0.035980038,9.812180519
1784151365.437923,-0.005873372,0.007418014,-0.060978733,0.000456530,-0.000187543,-0.000116961,-0.039115302,-0.054407902,9.788317680
1784151365.439915,-0.005873196,0.007416449,-0.060978740,0.001111516,-0.000415537,0.000139423,-0.051195677,-0.050332300,9.804023743
1784151365.441923,-0.005873196,0.007416449,-0.060978740,0.000414746,-0.000478310,0.000216596,-0.071740575,-0.042830512,9.794189453
1784151365.443924,-0.005873196,0.007416449,-0.060978740,0.000032415,-0.000773727,-0.000324086,-0.089340426,-0.049478333,9.815650940
1784151365.445935,-0.005872953,0.007417839,-0.060978737,0.000601780,-0.001195293,-0.000844133,-0.073587157,-0.045647901,9.815688133
1784151365.447933,-0.005872953,0.007417839,-0.060978737,0.000548655,-0.001141797,-0.000499643,-0.061122660,-0.057128366,9.769450188
1784151365.449935,-0.005873098,0.007417040,-0.060978740,-0.000227574,-0.000700331,-0.000012942,-0.055342350,-0.059646413,9.798132896
1784151365.451929,-0.005873098,0.007417040,-0.060978740,-0.000435445,-0.000847796,-0.000111726,-0.066991352,-0.058550134,9.790954590
1784151365.453963,-0.005873098,0.007417040,-0.060978740,-0.000429016,-0.001354345,0.000049012,-0.087123834,-0.015777057,9.797934532
1784151365.455947,-0.005871686,0.007417619,-0.060978740,-0.000617766,-0.001269856,-0.000066346,-0.087203778,-0.022486934,9.796546936
1784151365.457943,-0.005871686,0.007417619,-0.060978740,-0.000438777,-0.000488321,-0.000705476,-0.081504300,-0.032937910,9.806796074
1784151365.459938,-0.005870424,0.007417632,-0.060978737,0.000216522,0.000181916,-0.000935005,-0.079223044,-0.065800756,9.824521065
1784151365.461932,-0.005870424,0.007417632,-0.060978737,0.000432903,0.000022806,-0.000745200,-0.079466574,-0.087175697,9.806450844
1784151365.463942,-0.005870424,0.007417632,-0.060978737,0.000283748,-0.000018352,-0.000516741,-0.090167060,-0.082040198,9.796609879
1784151365.465954,-0.005872115,0.007418835,-0.060978737,0.000884454,0.000217436,-0.000907309,-0.070933282,-0.050848071,9.786068916
1784151365.467939,-0.005872115,0.007418835,-0.060978737,0.001281919,-0.000040572,-0.001483121,-0.043928411,-0.044460896,9.784342766
1784151365.469945,-0.005871632,0.007417392,-0.060978744,0.000533752,-0.000760747,-0.001347602,-0.067460179,-0.058703370,9.813369751
1784151365.471984,-0.005871632,0.007417392,-0.060978744,-0.000156630,-0.001303148,-0.001032586,-0.052057467,-0.049634375,9.770401955
1784151365.473972,-0.005871632,0.007417392,-0.060978744,-0.000274006,-0.001232355,-0.001142876,-0.066829696,-0.044711035,9.797768593
1784151365.475965,-0.005870891,0.007418822,-0.060978737,-0.000555658,-0.000891677,-0.001059456,-0.053300742,-0.039079089,9.800507545
1784151365.477969,-0.005870891,0.007418822,-0.060978737,-0.001215334,-0.000855029,-0.000928379,-0.075045198,-0.055835195,9.801724434
1784151365.479967,-0.005871328,0.007418947,-0.060978733,-0.001789590,-0.001150754,-0.000925095,-0.066086799,-0.056884255,9.807106018
1784151365.481949,-0.005871328,0.007418947,-0.060978733,-0.001244660,-0.000768584,-0.000267977,-0.050526146,-0.070784673,9.780579567
1784151365.483951,-0.005871328,0.007418947,-0.060978733,-0.000189768,0.000150810,0.000197291,-0.040049709,-0.093088962,9.810933113
1784151365.485953,-0.005873648,0.007417404,-0.060978744,-0.000202058,0.000417893,0.000063403,-0.061736602,-0.030563524,9.815349579
1784151365.487953,-0.005873648,0.007417404,-0.060978744,-0.000557269,0.000416653,0.000216951,-0.083755858,-0.032972760,9.815760612
1784151365.489957,-0.005872349,0.007418041,-0.060978744,-0.000347990,0.000248046,0.000436929,-0.065026149,-0.043043930,9.812127113
1784151365.491954,-0.005872349,0.007418041,-0.060978744,-0.000218614,-0.000324845,0.000648793,-0.051583048,-0.048626550,9.753821373
1784151365.493963,-0.005872349,0.007418041,-0.060978744,-0.000373662,-0.000414742,0.000678198,-0.053042207,-0.019206641,9.777769089
1784151365.495964,-0.005870227,0.007417251,-0.060978744,-0.000625612,-0.000079319,0.000142027,-0.043939047,-0.044950187,9.790166855
1784151365.497967,-0.005870227,0.007417251,-0.060978744,-0.000973234,0.000040808,-0.000249521,-0.063652955,-0.079221413,9.793516159
1784151365.499958,-0.005871620,0.007416884,-0.060978748,-0.001392330,-0.000070430,-0.000120939,-0.062863104,-0.088592403,9.786730766
1784151365.501970,-0.005871620,0.007416884,-0.060978748,-0.001642726,-0.000167843,-0.000388309,-0.045098323,-0.066053279,9.798548698
1784151365.503968,-0.005871620,0.007416884,-0.060978748,-0.001552841,-0.000186418,-0.000798982,-0.060431000,-0.033332128,9.824298859
1784151365.506014,-0.005870612,0.007416768,-0.060978748,-0.001177977,0.000046933,-0.000807457,-0.088422090,-0.049324486,9.792338371
1784151365.507969,-0.005870612,0.007416768,-0.060978748,-0.000609798,0.000806168,-0.000557154,-0.061096530,-0.053274777,9.794580460
1784151365.509975,-0.005870712,0.007415959,-0.060978752,-0.000505424,0.001234503,-0.000033013,-0.061406218,-0.041634765,9.796449661
1784151365.512005,-0.005870712,0.007415959,-0.060978752,-0.000631444,0.001173060,-0.000032672,-0.048777480,-0.038850415,9.760164261
1784151365.513988,-0.005870712,0.007415959,-0.060978752,-0.000777614,0.001058550,-0.000303676,-0.082673311,-0.056144081,9.795886040
1784151365.515980,-0.005870506,0.007416433,-0.060978752,-0.000941651,0.000739768,-0.000177569,-0.078297965,-0.063972719,9.817808151
1784151365.517980,-0.005870506,0.007416433,-0.060978752,-0.000754430,0.000485127,0.000095179,-0.071054578,-0.059505604,9.806635857
1784151365.519986,-0.005870753,0.007416459,-0.060978752,-0.000326219,0.000583024,0.000530589,-0.095790006,-0.065311402,9.785503387
1784151365.521983,-0.005870753,0.007416459,-0.060978752,-0.000250147,0.000567221,0.000792765,-0.068420783,-0.068511657,9.745160103
1784151365.523987,-0.005870753,0.007416459,-0.060978752,-0.000488851,0.000126456,0.001053106,-0.053508241,-0.056927588,9.790529251
1784151365.525984,-0.005871300,0.007415188,-0.060978759,-0.000607143,-0.000034240,0.001406210,-0.068345904,-0.021009687,9.806885719
1784151365.527985,-0.005871300,0.007415188,-0.060978759,-0.000670666,0.000192649,0.001304358,-0.052144162,-0.016781567,9.813204765
1784151365.530000,-0.005869631,0.007414346,-0.060978763,-0.000178005,0.000045806,0.001283433,-0.065844201,-0.036732368,9.808132172
1784151365.531990,-0.005869631,0.007414346,-0.060978763,0.000271355,-0.000079479,0.001159921,-0.046437990,-0.065985158,9.791375160
1784151365.533989,-0.005869631,0.007414346,-0.060978763,0.000022446,0.000033789,0.001016011,-0.056765623,-0.065506712,9.805713654
1784151365.535987,-0.005860523,0.007415646,-0.060960386,-0.000414119,-0.000062965,0.001271119,-0.073554784,-0.044986904,9.785655022
1784151365.537992,-0.005860523,0.007415646,-0.060960386,-0.000584010,0.000047344,0.001097481,-0.080270573,-0.042352807,9.805392265
1784151365.539993,-0.005859894,0.007415960,-0.060960382,-0.000194337,0.000718133,0.000650161,-0.045912303,-0.060519982,9.777960777
1784151365.541995,-0.005859894,0.007415960,-0.060960382,0.000287281,0.001131781,0.000468603,-0.025518849,-0.045811560,9.752071381
1784151365.543996,-0.005859894,0.007415960,-0.060960382,0.000663332,0.000494786,0.000674137,-0.030827990,-0.035827387,9.806826591
1784151365.546001,-0.005859032,0.007414079,-0.060960393,0.001113157,-0.000386244,0.001002340,-0.057454836,-0.048857063,9.796854019
1784151365.548171,-0.005859032,0.007414079,-0.060960393,0.001463111,-0.000720105,0.000882148,-0.092461735,-0.085252106,9.811382294
1784151365.550079,-0.005860074,0.007414819,-0.060960386,0.001363483,-0.000451534,0.000147012,-0.090361029,-0.059760403,9.814238548
1784151365.552071,-0.005860074,0.007414819,-0.060960386,0.000876294,-0.000143306,-0.000406610,-0.079165332,-0.026539402,9.784871101
1784151365.554047,-0.005860074,0.007414819,-0.060960386,0.000914575,-0.000179642,-0.000052571,-0.050596502,-0.038208127,9.799171448
1784151365.556067,-0.005858805,0.007414590,-0.060960390,0.001414539,-0.000013543,0.000261322,-0.032645546,-0.076815888,9.777420044
1784151365.558033,-0.005858805,0.007414590,-0.060960390,0.001763150,0.000218941,-0.000050969,-0.084595010,-0.103223160,9.804101944
1784151365.560020,-0.005860568,0.007415048,-0.060960386,0.001636362,0.000214631,-0.000641078,-0.074038304,-0.048498068,9.776216507
1784151365.562016,-0.005860568,0.007415048,-0.060960386,0.001361559,0.000069244,-0.001035945,-0.087751560,-0.031773902,9.780345917
1784151365.564020,-0.005860568,0.007415048,-0.060960386,0.001302574,-0.000151942,-0.000385326,-0.090547860,-0.038640063,9.805854797
1784151365.566048,-0.005860017,0.007415585,-0.060960386,0.001043214,-0.000169293,0.000504293,-0.086445510,-0.035349399,9.776737213
1784151365.568029,-0.005860017,0.007415585,-0.060960386,0.000873957,-0.000108045,0.000809829,-0.080886558,-0.056230668,9.804853439
1784151365.570069,-0.005859775,0.007415817,-0.060960386,0.000915946,0.000168891,0.001015914,-0.048955504,-0.051603187,9.789670944
1784151365.572081,-0.005859775,0.007415817,-0.060960386,0.001234417,0.000293986,0.001418801,-0.057329103,-0.037327711,9.813515663
1784151365.574039,-0.005859775,0.007415817,-0.060960386,0.001426622,0.000061228,0.001764587,-0.088088803,-0.058346692,9.800350189
1784151365.576087,-0.005859580,0.007415462,-0.060960386,0.000773967,0.000117421,0.001817917,-0.080120981,-0.067009136,9.807026863
1784151365.578046,-0.005859580,0.007415462,-0.060960386,0.000354251,0.000179075,0.001315417,-0.021926343,-0.078561664,9.814631462
1784151365.580037,-0.005860822,0.007412847,-0.060960401,0.000245178,-0.000046238,0.000641277,-0.057814576,-0.041664850,9.794210434
1784151365.582028,-0.005860822,0.007412847,-0.060960401,-0.000505079,-0.000347913,0.000274704,-0.084816694,-0.047219709,9.804907799
1784151365.584035,-0.005860822,0.007412847,-0.060960401,-0.001104531,-0.000353665,0.000423960,-0.054167755,-0.035585653,9.814875603
1784151365.586032,-0.005859926,0.007411945,-0.060960408,-0.001088288,-0.000290300,0.000461579,-0.039199889,-0.060749300,9.798140526
1784151365.588041,-0.005859926,0.007411945,-0.060960408,-0.000713806,-0.000192834,0.000291277,-0.073312938,-0.063241422,9.768950462
1784151365.590034,-0.005860384,0.007411701,-0.060960408,-0.000189992,-0.000287416,0.000311104,-0.083277047,-0.069519930,9.787731171
1784151365.592035,-0.005860384,0.007411701,-0.060960408,0.000134095,-0.000731579,-0.000019618,-0.102394708,-0.055315968,9.777939796
1784151365.594043,-0.005860384,0.007411701,-0.060960408,-0.000041067,-0.000566505,0.000030352,-0.054825693,-0.054657809,9.788749695
1784151365.596099,-0.005859745,0.007410394,-0.060960416,-0.000150225,-0.000323001,0.000482662,-0.071282804,-0.080759719,9.771530151
1784151365.598058,-0.005859745,0.007410394,-0.060960416,0.000293170,-0.000364805,0.000414635,-0.099705704,-0.090129025,9.817171097
1784151365.600052,-0.005861023,0.007411362,-0.060960408,0.000854094,-0.000232953,-0.000102986,-0.084938511,-0.022343982,9.772338867
1784151365.602044,-0.005861023,0.007411362,-0.060960408,0.001137573,-0.000009445,-0.000497609,-0.050032493,-0.030414119,9.773217201
1784151365.604069,-0.005861023,0.007411362,-0.060960408,0.001092338,0.000317088,-0.000622109,-0.034067489,-0.046696808,9.765954971
1784151365.606057,-0.005860265,0.007409538,-0.060960416,0.001019177,0.000142522,-0.000895686,-0.035242535,-0.069950677,9.761771202
1784151365.608125,-0.005860265,0.007409538,-0.060960416,0.000654980,-0.000340393,-0.001241874,-0.072285488,-0.050068457,9.804903030
1784151365.610068,-0.005860187,0.007409822,-0.060960416,0.000232540,-0.000151186,-0.001382993,-0.068304427,-0.055435311,9.796353340
1784151365.612101,-0.005860187,0.007409822,-0.060960416,0.000197414,0.000197376,-0.001105102,-0.076381221,-0.052901611,9.832676888
1784151365.614125,-0.005860187,0.007409822,-0.060960416,0.000351404,0.000376261,-0.000722275,-0.113841377,-0.071975730,9.810102463
1784151365.616096,-0.005860488,0.007411340,-0.060960408,0.000320619,0.000599885,-0.000731926,-0.109953061,-0.047374327,9.808917999
1784151365.618069,-0.005860488,0.007411340,-0.060960408,-0.000264152,0.000641534,-0.000523905,-0.093097083,-0.026129428,9.815346718
1784151365.620067,-0.005859321,0.007411717,-0.060960408,-0.000906300,0.000693755,-0.000625310,-0.050187390,-0.042579018,9.783002853
1784151365.622060,-0.005859321,0.007411717,-0.060960408,-0.000975550,0.000747048,-0.000951190,-0.020766091,-0.057045586,9.811183929
1784151365.624070,-0.005859321,0.007411717,-0.060960408,-0.000613425,0.000598110,-0.000647426,-0.045746744,-0.045028944,9.804512024
1784151365.626133,-0.005858930,0.007410091,-0.060960416,0.000117474,0.000214475,-0.000408876,-0.051758375,-0.097326882,9.797893524
1784151365.628090,-0.005858930,0.007410091,-0.060960416,0.000649430,-0.000188775,-0.000596822,-0.079923332,-0.087233551,9.815418243
1784151365.630093,-0.005859391,0.007410311,-0.060960412,-0.000029898,-0.000506480,-0.000825826,-0.111517251,-0.066504940,9.792653084
1784151365.632085,-0.005859391,0.007410311,-0.060960412,-0.000777284,-0.000768654,-0.001408417,-0.086685278,-0.055479031,9.772574425
1784151365.634086,-0.005859391,0.007410311,-0.060960412,-0.000995950,-0.000944716,-0.001904435,-0.103296578,-0.054529376,9.794981003
1784151365.636086,-0.005858866,0.007411559,-0.060960408,-0.001008229,-0.000823457,-0.002119740,-0.058565151,-0.067142017,9.786871910
1784151365.638088,-0.005858866,0.007411559,-0.060960408,-0.000132069,-0.000746657,-0.001950313,-0.051547993,-0.042676240,9.799140930
1784151365.640079,-0.005858204,0.007410734,-0.060960408,0.000540582,-0.000660615,-0.000924075,-0.033117138,-0.040211473,9.797381401
1784151365.642081,-0.005858204,0.007410734,-0.060960408,0.000257869,-0.000157623,-0.000175246,-0.041749168,-0.050265439,9.777582169
1784151365.644082,-0.005858204,0.007410734,-0.060960408,0.000012876,-0.000060654,0.000350654,-0.045893252,-0.059153840,9.774830818
1784151365.646083,-0.005858188,0.007409590,-0.060960416,-0.000312703,-0.000204751,0.000786491,-0.081136741,-0.077253051,9.800235748
1784151365.648082,-0.005858188,0.007409590,-0.060960416,-0.000781857,-0.000176911,0.000400345,-0.101874575,-0.047868539,9.800852776
1784151365.650083,-0.005857432,0.007411308,-0.060960408,-0.000763041,-0.000198066,0.000372109,-0.105854653,-0.042088687,9.814334869
1784151365.652085,-0.005857432,0.007411308,-0.060960408,-0.000138713,-0.000440478,0.001073317,-0.068489857,-0.031061973,9.834616661
1784151365.654116,-0.005857432,0.007411308,-0.060960408,0.000788160,-0.000477062,0.001405151,-0.066505685,-0.016216408,9.822610855
1784151365.656100,-0.005855600,0.007410150,-0.060960412,0.000620303,-0.000005104,0.001070670,-0.088200957,-0.068147779,9.792666435
1784151365.658100,-0.005855600,0.007410150,-0.060960412,0.000013563,0.000598361,0.000430541,-0.060293734,-0.098107211,9.796983719
1784151365.660095,-0.005857566,0.007409563,-0.060960419,0.000004639,0.000961201,-0.000017474,-0.049427167,-0.054615520,9.773063660
1784151365.662089,-0.005857566,0.007409563,-0.060960419,-0.000365159,0.001032559,-0.000526019,-0.043255471,-0.061644353,9.805303574
1784151365.664098,-0.005857566,0.007409563,-0.060960419,-0.000887278,0.001298277,-0.000083368,-0.064739779,-0.058515292,9.781990051
1784151365.666096,-0.005857108,0.007408937,-0.060960419,-0.001212016,0.001774810,0.000962836,-0.074318357,-0.071782507,9.774723053
1784151365.668096,-0.005857108,0.007408937,-0.060960419,-0.000801967,0.001474099,0.000567087,-0.095649958,-0.054074220,9.780195236
1784151365.670098,-0.005857102,0.007410184,-0.060960416,0.000285549,0.000546886,-0.000102992,-0.078490898,-0.044926845,9.786098480
1784151365.672101,-0.005857102,0.007410184,-0.060960416,0.000911913,-0.000309882,-0.000086961,-0.055640176,-0.012754427,9.757186890
1784151365.674106,-0.005857102,0.007410184,-0.060960416,0.001028064,-0.000624264,-0.000092149,-0.040797383,-0.044174004,9.801383018
1784151365.676106,-0.005855845,0.007408680,-0.060960423,0.000704499,-0.000111806,0.000051969,-0.064437404,-0.069402464,9.800302505
1784151365.678102,-0.005855845,0.007408680,-0.060960423,0.000465062,-0.000132988,-0.000079920,-0.035886172,-0.082831249,9.810108185
1784151365.680104,-0.005856650,0.007407400,-0.060960431,0.000536839,-0.000921277,-0.000793676,-0.031984918,-0.093691282,9.818110466
1784151365.682102,-0.005856650,0.007407400,-0.060960431,0.000230614,-0.001133791,-0.000969210,-0.056724586,-0.061535470,9.814259529
1784151365.684111,-0.005856650,0.007407400,-0.060960431,0.000050747,-0.000430976,-0.000135492,-0.073647134,-0.052605420,9.786054611
1784151365.686113,-0.005855838,0.007407181,-0.060960431,0.000045101,0.000006672,0.000634115,-0.084529981,-0.061877806,9.786432266
1784151365.688116,-0.005855838,0.007407181,-0.060960431,-0.000304378,0.000009439,0.000506487,-0.075151995,-0.064378247,9.806152344
1784151365.690115,-0.005856023,0.007407104,-0.060960431,-0.000194588,0.000242179,0.000307064,-0.073065974,-0.042244472,9.777154922
1784151365.692115,-0.005856023,0.007407104,-0.060960431,0.000656909,-0.000031671,0.000665994,-0.099631645,-0.048307095,9.795472145
1784151365.694124,-0.005856023,0.007407104,-0.060960431,0.001399285,-0.000576461,0.001250672,-0.049440682,-0.054316994,9.794136047
1784151365.696126,-0.005856684,0.007406587,-0.060960434,0.001642218,-0.000228393,0.001066520,-0.023132276,-0.031337399,9.791620255
1784151365.698119,-0.005856684,0.007406587,-0.060960434,0.001156867,0.000521722,0.000374476,-0.024716590,-0.013037030,9.804288864
1784151365.700122,-0.005854947,0.007403955,-0.060960446,0.000423562,0.001124603,0.000140817,-0.012038549,-0.041374434,9.796945572
1784151365.702121,-0.005854947,0.007403955,-0.060960446,0.000048151,0.001219545,0.000059192,-0.081161998,-0.041483540,9.810777664
1784151365.704138,-0.005854947,0.007403955,-0.060960446,-0.000340479,0.000607863,-0.000311128,-0.066411853,-0.084981792,9.789440155
1784151365.706128,-0.005857231,0.007403417,-0.060960449,-0.000933368,-0.000015611,-0.000383816,-0.075372800,-0.085168503,9.768807411
1784151365.708127,-0.005857231,0.007403417,-0.060960449,-0.001525227,-0.000040970,0.000359647,-0.079811521,-0.043492578,9.775795937
1784151365.710126,-0.005855732,0.007403645,-0.060960449,-0.001718562,0.000102641,0.000469289,-0.064721704,-0.019972166,9.780445099
1784151365.712126,-0.005855732,0.007403645,-0.060960449,-0.001009695,0.000075535,-0.000009827,-0.075286686,-0.036767434,9.830090523
1784151365.714133,-0.005855732,0.007403645,-0.060960449,0.000123353,0.000299136,-0.000031591,-0.035464410,-0.086696945,9.785871506
1784151365.716132,-0.005855928,0.007401491,-0.060960460,0.000644017,0.000681966,-0.000155015,-0.037028771,-0.103397347,9.805939674
1784151365.718136,-0.005855928,0.007401491,-0.060960460,0.000533614,0.000857143,-0.000083817,-0.060326472,-0.099581458,9.815356255
1784151365.720150,-0.005857761,0.007401655,-0.060960460,0.000071004,0.000842449,0.000363789,-0.075636603,-0.066682257,9.815999985
1784151365.722140,-0.005857761,0.007401655,-0.060960460,-0.000371488,0.001050534,0.000420139,-0.105255768,-0.028750999,9.827871323
1784151365.724151,-0.005857761,0.007401655,-0.060960460,0.000287102,0.001640970,0.000555453,-0.070511729,-0.013883518,9.816792488
1784151365.726154,-0.005856083,0.007401551,-0.060960460,0.001235336,0.002026948,0.001159976,-0.071738787,-0.042411167,9.798226357
1784151365.728156,-0.005856083,0.007401551,-0.060960460,0.000508672,0.001587327,0.001287217,-0.075593621,-0.064721897,9.792251587
1784151365.730201,-0.005856420,0.007401581,-0.060960457,-0.000692812,0.000898657,0.000997701,-0.070272088,-0.070150517,9.789980888
1784151365.732156,-0.005856420,0.007401581,-0.060960457,-0.000897371,0.000604287,0.001023687,-0.075544305,-0.061090507,9.785550117
1784151365.734162,-0.005856420,0.007401581,-0.060960457,-0.001155496,0.000371911,0.001222861,-0.059005566,-0.067476116,9.771627426
1784151365.736179,-0.005857124,0.007400804,-0.060960464,-0.001800438,-0.000207534,0.001545465,-0.068568416,-0.040192530,9.795554161
1784151365.738163,-0.005857124,0.007400804,-0.060960464,-0.001820756,-0.000920827,0.001508794,-0.096504241,-0.013295692,9.780905724
1784151365.740163,-0.005855602,0.007401771,-0.060960457,-0.001084811,-0.000829271,0.000295257,-0.098791137,-0.052820459,9.798582077
1784151365.742160,-0.005855602,0.007401771,-0.060960457,-0.000557663,0.000030817,-0.000801007,-0.106507748,-0.058285855,9.824992180
1784151365.744162,-0.005855602,0.007401771,-0.060960457,-0.000777610,0.000312613,-0.000086152,-0.080132537,-0.031131519,9.802325249
1784151365.746207,-0.005855068,0.007402262,-0.060960453,-0.001304799,0.000088103,0.000720463,-0.076422773,-0.058092725,9.806640625
1784151365.748181,-0.005855068,0.007402262,-0.060960453,-0.001161057,0.000015274,0.000262413,-0.071575329,-0.066552766,9.790450096
1784151365.750171,-0.005855593,0.007402105,-0.060960457,-0.000512750,0.000099467,0.000074771,-0.054873407,-0.095866449,9.787139893
1784151365.752169,-0.005855593,0.007402105,-0.060960457,0.000052700,0.000516901,0.000409555,-0.053483795,-0.127456591,9.816529274
1784151365.754198,-0.005855593,0.007402105,-0.060960457,0.000188650,0.000304210,0.000289088,-0.063530102,-0.069741100,9.783264160
1784151365.756181,-0.005857100,0.007401421,-0.060960460,-0.000297064,-0.000542855,-0.000381115,-0.080624513,-0.034709457,9.802303314
1784151365.758185,-0.005857100,0.007401421,-0.060960460,-0.000608507,-0.000514411,-0.000540753,-0.068135992,-0.040732089,9.807655334
1784151365.760178,-0.005856569,0.007401174,-0.060960460,-0.000196874,0.000056625,-0.000526606,-0.073630206,-0.049635038,9.809387207
1784151365.762175,-0.005856569,0.007401174,-0.060960460,0.000067339,0.000386771,-0.001130595,-0.071835801,-0.049661208,9.809836388
1784151365.764181,-0.005856569,0.007401174,-0.060960460,0.000060618,0.000611094,-0.001516847,-0.043528046,-0.085275009,9.789461136
1784151365.766176,-0.005858094,0.007399171,-0.060960468,0.000541777,0.000798960,-0.000768365,-0.053885013,-0.085838757,9.824417114
1784151365.768182,-0.005858094,0.007399171,-0.060960468,0.001175887,0.000568238,0.000515422,-0.051960107,-0.076324210,9.806097984
1784151365.770204,-0.005858930,0.007398709,-0.060960472,0.001344035,-0.000115772,0.000977960,-0.056947432,-0.043941587,9.797781944
1784151365.772253,-0.005858930,0.007398709,-0.060960472,0.000855865,-0.000387175,0.000611187,-0.093762591,-0.043235235,9.827791214
1784151365.774190,-0.005858930,0.007398709,-0.060960472,-0.000089903,0.000015559,0.000328353,-0.059174202,-0.041349083,9.815281868
1784151365.776212,-0.005858583,0.007398373,-0.060960479,-0.000765443,-0.000053065,0.000427196,-0.073571965,-0.043906927,9.822873116
1784151365.778208,-0.005858583,0.007398373,-0.060960479,-0.000757301,-0.000666205,0.000460756,-0.066686437,-0.033448413,9.788873672
1784151365.780188,-0.005855875,0.007396877,-0.060960479,-0.000603441,-0.000896040,0.000089507,-0.060583953,-0.012754778,9.766147614
1784151365.782191,-0.005855875,0.007396877,-0.060960479,-0.000414574,-0.000667877,-0.000250825,-0.065824471,-0.036576562,9.786165237
1784151365.784189,-0.005855875,0.007396877,-0.060960479,-0.000131770,-0.000309221,0.000152415,-0.057880696,-0.047049928,9.795520782
1784151365.786190,-0.005855656,0.007395936,-0.060960487,0.000022007,-0.000007288,-0.000221602,-0.095498659,-0.039101094,9.816607475
1784151365.788191,-0.005855656,0.007395936,-0.060960487,-0.000369107,0.000295955,-0.001451151,-0.100050539,-0.079982333,9.840102196
1784151365.790191,-0.005856320,0.007397648,-0.060960479,-0.000822446,0.000171605,-0.001518673,-0.058634825,-0.070528932,9.822269440
1784151365.792197,-0.005856320,0.007397648,-0.060960479,-0.000395666,-0.000003016,-0.000935314,-0.069568999,-0.048695467,9.795947075
1784151365.794193,-0.005856320,0.007397648,-0.060960479,0.000369022,-0.000043018,-0.000852120,-0.076992609,-0.069174714,9.790876389
1784151365.796219,-0.005856722,0.007398586,-0.060960468,0.000657696,0.000060381,-0.001386912,-0.037693534,-0.084933586,9.793951035
1784151365.798219,-0.005856722,0.007398586,-0.060960468,0.000310890,0.000447811,-0.001793701,-0.050433386,-0.063162975,9.779733658
1784151365.800205,-0.005856941,0.007398256,-0.060960468,-0.000543077,0.000497009,-0.001189705,-0.065516002,-0.048226126,9.785642624
1784151365.802203,-0.005856941,0.007398256,-0.060960468,-0.000573963,0.000180173,-0.000046706,-0.068494126,-0.033527162,9.803219795
1784151365.804219,-0.005856941,0.007398256,-0.060960468,0.000648348,-0.000368387,0.000515388,-0.077101178,-0.040547151,9.797784805
1784151365.806209,-0.005856543,0.007398766,-0.060960468,0.001289341,-0.000493447,0.000619120,-0.053096127,-0.023279630,9.783572197
1784151365.808209,-0.005856543,0.007398766,-0.060960468,0.000966591,-0.000088731,0.000479573,-0.062688097,-0.037868477,9.773158073
1784151365.810210,-0.005855829,0.007398453,-0.060960468,0.000603683,0.000046814,0.000160203,-0.096886538,-0.043871514,9.796848297
1784151365.812212,-0.005855829,0.007398453,-0.060960468,0.000644143,-0.000039161,0.000161674,-0.072394021,-0.059840921,9.793182373
1784151365.814220,-0.005855829,0.007398453,-0.060960468,0.001001819,0.000111765,-0.000016062,-0.071687981,-0.039983757,9.771791458
1784151365.816215,-0.005855389,0.007399325,-0.060960460,0.000888005,0.000589277,-0.000721745,-0.044489127,-0.015449569,9.801115990
1784151365.818213,-0.005855389,0.007399325,-0.060960460,0.000129399,0.000367122,-0.001023456,-0.044587515,-0.023115782,9.808240891
1784151365.820216,-0.005854446,0.007398374,-0.060960468,-0.000577059,-0.000551569,-0.000832518,-0.085366912,-0.056525748,9.791398048
1784151365.822220,-0.005854446,0.007398374,-0.060960468,-0.000778160,-0.000718348,-0.000997005,-0.097059183,-0.059013166,9.784197807
1784151365.824219,-0.005854446,0.007398374,-0.060960468,-0.000664530,-0.000264683,-0.001438147,-0.069310457,-0.063576132,9.808854103
1784151365.826216,-0.005854507,0.007398231,-0.060960468,-0.000728684,-0.000078484,-0.001453671,-0.062075410,-0.057959102,9.825037003
1784151365.828226,-0.005854507,0.007398231,-0.060960468,-0.000691827,-0.000486152,-0.001070734,-0.072987318,-0.072324038,9.785480499
1784151365.830226,-0.005855503,0.007398395,-0.060960468,-0.000251621,-0.001038915,-0.000900848,-0.048921544,-0.047282554,9.812115669
1784151365.832231,-0.005855503,0.007398395,-0.060960468,0.000073917,-0.001044229,-0.001009540,-0.059472907,-0.065996483,9.816469193
1784151365.834230,-0.005855503,0.007398395,-0.060960468,0.000421599,-0.000746515,-0.000563362,-0.061827473,-0.076975979,9.789496422
1784151365.836228,-0.005857477,0.007398109,-0.060960468,0.000619190,-0.000620247,-0.000040350,-0.081330195,-0.056590207,9.793194771
1784151365.838228,-0.005857477,0.007398109,-0.060960468,-0.000301119,-0.000370579,-0.000021189,-0.092331983,-0.038937844,9.787918091
1784151365.840240,-0.005856256,0.007398273,-0.060960468,-0.001261433,-0.000152120,0.000407703,-0.061001185,-0.045227371,9.796875000
1784151365.842235,-0.005856256,0.007398273,-0.060960468,-0.000912670,-0.000004943,0.000830057,-0.074848875,-0.042532712,9.757873535
1784151365.844240,-0.005856256,0.007398273,-0.060960468,-0.000149712,0.000226102,0.000597682,-0.094312415,-0.055374935,9.771671295
1784151365.846252,-0.005856068,0.007400819,-0.060960453,-0.000174434,0.000150570,0.000119237,-0.039978113,-0.050476037,9.804033279
1784151365.848240,-0.005856068,0.007400819,-0.060960453,-0.000736838,-0.000061241,-0.000122733,-0.071924999,-0.059281059,9.776598930
1784151365.850243,-0.005856272,0.007401103,-0.060960453,-0.000871629,0.000141033,-0.000224374,-0.052309945,-0.031869162,9.792933464
1784151365.852248,-0.005856272,0.007401103,-0.060960453,-0.000336897,0.000369457,0.000046023,-0.055238131,-0.013939088,9.797080040
1784151365.854284,-0.005856272,0.007401103,-0.060960453,0.000390327,0.000114807,0.000800801,-0.071977422,-0.061721191,9.804827690
1784151365.856260,-0.005856003,0.007401979,-0.060960449,0.000485769,-0.000242137,0.000717190,-0.066742316,-0.073100500,9.820450783
1784151365.858250,-0.005856003,0.007401979,-0.060960449,0.000035379,-0.000345372,-0.000517040,-0.059422325,-0.063165642,9.796311378
1784151365.860250,-0.005856177,0.007401355,-0.060960449,-0.000254576,-0.000170883,-0.001107831,-0.085433081,-0.061100747,9.804819107
1784151365.862253,-0.005856177,0.007401355,-0.060960449,-0.000160042,0.000001397,-0.000634888,-0.070433311,-0.046396472,9.789235115
1784151365.864257,-0.005856177,0.007401355,-0.060960449,0.000053241,0.000159793,-0.000037216,-0.067332327,-0.048778273,9.803569794
1784151365.866250,-0.005856236,0.007400794,-0.060960449,-0.000329563,0.000676746,0.000435668,-0.052649945,-0.021684311,9.810482979
1784151365.868251,-0.005856236,0.007400794,-0.060960449,-0.000648209,0.000782011,0.001067413,-0.077038862,-0.035597324,9.794678688
1784151365.870256,-0.005855198,0.007401238,-0.060960449,-0.000181526,0.000275075,0.001543543,-0.086296596,-0.058795396,9.797210693
1784151365.872257,-0.005855198,0.007401238,-0.060960449,0.000596579,0.000139361,0.001188376,-0.060259208,-0.058623657,9.789167404
1784151365.874256,-0.005855198,0.007401238,-0.060960449,0.001007250,0.000548922,0.000480929,-0.068708248,-0.051833153,9.794582367
1784151365.876262,-0.005854773,0.007401443,-0.060960449,0.000586994,0.001232139,0.000110977,-0.058844499,-0.051209982,9.815218925
1784151365.878270,-0.005854773,0.007401443,-0.060960449,0.000151274,0.001496045,0.000038533,-0.078523993,-0.047214344,9.792809486
1784151365.880267,-0.005853420,0.007401233,-0.060960453,0.000151554,0.000912567,-0.000288836,-0.064710230,-0.013802825,9.858044624
1784151365.882274,-0.005853420,0.007401233,-0.060960453,0.000079333,0.000470512,-0.000563635,-0.070113041,-0.056737129,9.793653488
1784151365.884271,-0.005853420,0.007401233,-0.060960453,-0.000276646,0.000651965,-0.000147738,-0.088518068,-0.094561592,9.790255547
1784151365.886274,-0.005855080,0.007401971,-0.060960449,-0.000228387,0.000798946,0.000137758,-0.068855613,-0.099907465,9.813551903
1784151365.888275,-0.005855080,0.007401971,-0.060960449,0.000388407,0.001100174,-0.000049396,-0.058979388,-0.064432599,9.784647942
1784151365.890271,-0.005855564,0.007401715,-0.060960449,0.000749006,0.001482344,-0.000148866,-0.079903573,-0.046650939,9.842129707
1784151365.892274,-0.005855564,0.007401715,-0.060960449,0.000954189,0.001490497,-0.000078511,-0.071970783,-0.023673719,9.810004234
1784151365.894278,-0.005855564,0.007401715,-0.060960449,0.001082724,0.001279344,0.000188121,-0.073330343,0.013421938,9.825483322
1784151365.896281,-0.005852121,0.007401541,-0.060960449,0.000615339,0.001095129,0.000453505,-0.070253834,-0.031200768,9.794264793
1784151365.898276,-0.005852121,0.007401541,-0.060960449,0.000043942,0.001218951,0.000070248,-0.083560415,-0.056456536,9.778399467
1784151365.900280,-0.005852052,0.007402021,-0.060960449,-0.000285795,0.000930791,-0.000301180,-0.087596200,-0.055169016,9.793645859
1784151365.902300,-0.005852052,0.007402021,-0.060960449,-0.000495436,0.000251233,-0.000357708,-0.073565774,-0.046289459,9.779819489
1784151365.904316,-0.005852052,0.007402021,-0.060960449,0.000207228,0.000093924,-0.001207979,-0.059380498,-0.059188042,9.803959846
1784151365.906291,-0.005852787,0.007401483,-0.060960449,0.000919373,0.000015711,-0.002242063,-0.063654728,-0.042050794,9.795994759
1784151365.908359,-0.005852787,0.007401483,-0.060960449,0.000495174,-0.000108408,-0.002130768,-0.061747544,-0.070266113,9.790884018
1784151365.910297,-0.005852977,0.007400604,-0.060960457,-0.000049967,-0.000199049,-0.001598772,-0.033746298,-0.055814408,9.787417412
1784151365.912291,-0.005852977,0.007400604,-0.060960457,-0.000012563,-0.000285662,-0.001553627,-0.065448292,-0.080418296,9.776021004
1784151365.914298,-0.005852977,0.007400604,-0.060960457,0.000235212,-0.000044486,-0.001627004,-0.089410506,-0.055705264,9.809332848
1784151365.916301,-0.005853079,0.007401055,-0.060960453,0.000306390,0.000147730,-0.001247297,-0.082271546,-0.058952060,9.812008858
1784151365.918298,-0.005853079,0.007401055,-0.060960453,-0.000076032,0.000344003,-0.000573922,-0.087562077,-0.050441764,9.821921349
1784151365.920297,-0.005852671,0.007401360,-0.060960457,-0.000479355,0.000562983,-0.000516393,-0.063991114,-0.069427297,9.802991867
1784151365.922299,-0.005852671,0.007401360,-0.060960457,-0.000270110,0.000323980,-0.000945251,-0.064638518,-0.086390018,9.795262337
1784151365.924301,-0.005852671,0.007401360,-0.060960457,0.000045877,0.000342775,-0.000714782,-0.048807971,-0.075465336,9.805658340
1784151365.926306,-0.005853737,0.007400932,-0.060960457,0.000279642,0.000803088,-0.000002839,-0.052736383,-0.030471833,9.786216736
1784151365.928303,-0.005853737,0.007400932,-0.060960457,0.001007754,0.000845637,0.000316490,-0.061103888,-0.016958745,9.791227341
1784151365.930302,-0.005852133,0.007400547,-0.060960457,0.002075124,0.000244414,-0.000031210,-0.081078887,0.003651819,9.827206612
1784151365.932307,-0.005852133,0.007400547,-0.060960457,0.002348269,-0.000061031,-0.000465087,-0.094620384,-0.080095463,9.783168793
1784151365.934317,-0.005852133,0.007400547,-0.060960457,0.001667061,0.000318038,-0.000472328,-0.081847325,-0.060771916,9.815136909
1784151365.936309,-0.005852587,0.007400978,-0.060960453,0.000756304,0.000724539,-0.000459483,-0.090342790,-0.061237458,9.769843102
1784151365.938309,-0.005852587,0.007400978,-0.060960453,0.000234972,0.000750257,-0.000631925,-0.051863395,-0.070697471,9.770716667
1784151365.940311,-0.005853658,0.007399177,-0.060960460,0.000554064,0.000168036,-0.000850044,-0.030710159,-0.064381823,9.789606094
1784151365.942315,-0.005853658,0.007399177,-0.060960460,0.000969024,-0.000131194,-0.001152370,-0.028017089,-0.065220021,9.776601791
1784151365.944329,-0.005853658,0.007399177,-0.060960460,0.000701099,0.000378264,-0.001586086,-0.076021500,-0.062930651,9.793158531
1784151365.946323,-0.005854058,0.007398879,-0.060960460,0.000071796,0.000753526,-0.001812451,-0.085550353,-0.072563320,9.778741837
1784151365.948321,-0.005854058,0.007398879,-0.060960460,-0.000430471,0.000377742,-0.001710265,-0.070767291,-0.073753901,9.793542862
1784151365.950366,-0.005854520,0.007397792,-0.060960468,-0.001054463,-0.000255981,-0.001186944,-0.062578611,-0.065272994,9.783294678
1784151365.952327,-0.005854520,0.007397792,-0.060960468,-0.001922262,-0.000426528,-0.000588123,-0.087344520,-0.070103742,9.814175606
1784151365.954360,-0.005854520,0.007397792,-0.060960468,-0.002261233,-0.000158834,-0.000004824,-0.068406954,-0.026760053,9.796537399
1784151365.956341,-0.005853200,0.007397729,-0.060960472,-0.001419813,0.000348650,0.000387470,-0.060723878,-0.019938426,9.831557274
1784151365.958337,-0.005853200,0.007397729,-0.060960472,-0.000553151,0.000699604,0.000348618,-0.059287045,-0.049939841,9.826435089
1784151365.960329,-0.005852801,0.007397451,-0.060960472,-0.000756717,0.000693400,0.000461943,-0.063026622,-0.063640729,9.806616783
1784151365.962330,-0.005852801,0.007397451,-0.060960472,-0.000851660,0.000493523,0.000019993,-0.083783798,-0.074835666,9.780075073
1784151365.964333,-0.005852801,0.007397451,-0.060960472,-0.000324810,0.000164928,-0.000861641,-0.067962058,-0.064791016,9.788224220
1784151365.966338,-0.005853232,0.007397526,-0.060960472,-0.000121046,0.000156942,-0.000762775,-0.072985128,-0.071901508,9.789070129
1784151365.968335,-0.005853232,0.007397526,-0.060960472,-0.000747333,0.000516363,-0.000184497,-0.067542590,-0.067459084,9.784620285
1784151365.970335,-0.005853882,0.007396977,-0.060960479,-0.001003293,0.000762134,-0.000430916,-0.075668193,-0.070173733,9.802976608
1784151365.972344,-0.005853882,0.007396977,-0.060960479,-0.000452054,0.000504118,-0.001081040,-0.084696911,-0.074948169,9.797555923
1784151365.974374,-0.005853882,0.007396977,-0.060960479,-0.000146364,-0.000029333,-0.000816602,-0.081472494,-0.067439847,9.807023048
1784151365.976350,-0.005853894,0.007397007,-0.060960479,0.000099173,0.000049012,-0.000494960,-0.085192166,-0.080578305,9.771070480
1784151365.978340,-0.005853894,0.007397007,-0.060960479,0.000175265,0.000594279,-0.000438609,-0.072727628,-0.048795119,9.815669060
1784151365.980345,-0.005853166,0.007396911,-0.060960479,-0.000154776,0.000560797,0.000068777,-0.047593404,-0.049873102,9.795960426
1784151365.982347,-0.005853166,0.007396911,-0.060960479,-0.000654319,0.000051341,0.000742169,-0.054608017,-0.073103100,9.798943520
1784151365.984349,-0.005853166,0.007396911,-0.060960479,-0.001358791,-0.000098581,0.000980694,-0.073164880,-0.048293728,9.808947563
1784151365.986347,-0.005852330,0.007396856,-0.060960479,-0.001435053,0.000005252,0.000867509,-0.067424342,-0.055583537,9.815630913
1784151365.988347,-0.005852330,0.007396856,-0.060960479,-0.000459073,0.000299887,0.001419727,-0.060269732,-0.057896249,9.812934875
1784151365.990350,-0.005852274,0.007396189,-0.060960483,0.000343310,0.000691096,0.002220282,-0.058475379,-0.022359230,9.789849281
1784151365.992351,-0.005852274,0.007396189,-0.060960483,0.000219929,0.000626504,0.002349109,-0.066522896,-0.020810109,9.775505066
1784151365.994351,-0.005852274,0.007396189,-0.060960483,-0.000020518,-0.000099133,0.001825177,-0.091135174,-0.050265402,9.803538322
1784151365.996352,-0.005851506,0.007397106,-0.060960479,0.000037727,-0.000791929,0.001388799,-0.092189513,-0.065271549,9.773402214
1784151365.998388,-0.005851506,0.007397106,-0.060960479,0.000101268,-0.000974083,0.001271303,-0.069113374,-0.046620399,9.818377495
1784151366.000358,-0.005851080,0.007396510,-0.060960479,-0.000447263,-0.000938264,0.001167650,-0.051218051,-0.015350611,9.799316406
1784151366.002360,-0.005851080,0.007396510,-0.060960479,-0.001061279,-0.000710871,0.000930454,-0.070739418,-0.033917762,9.799179077
1784151366.004366,-0.005851080,0.007396510,-0.060960479,-0.000620462,-0.000426586,0.000398695,-0.054767180,-0.050143227,9.783846855
1784151366.006365,-0.005850533,0.007395664,-0.060960483,-0.000029096,-0.000294841,0.000083532,-0.068741456,-0.055337355,9.783351898
1784151366.008373,-0.005850533,0.007395664,-0.060960483,0.000309036,-0.000326185,0.000232170,-0.078096710,-0.087005354,9.780001640
1784151366.010363,-0.005853125,0.007395309,-0.060960487,0.000226229,-0.000722458,0.000175381,-0.067705482,-0.080497652,9.791261673
1784151366.012366,-0.005853125,0.007395309,-0.060960487,-0.000072700,-0.001385220,-0.000085074,-0.065360807,-0.034437891,9.799629211
1784151366.014378,-0.005853125,0.007395309,-0.060960487,0.000149481,-0.001279802,-0.000108370,-0.092604294,-0.022545127,9.814474106
1784151366.016376,-0.005851649,0.007396412,-0.060960479,0.000373698,-0.000465379,-0.000175288,-0.063549995,-0.032713559,9.805918694
1784151366.018369,-0.005851649,0.007396412,-0.060960479,0.000283820,0.000077870,-0.000423288,-0.088464774,-0.052498367,9.797697067
1784151366.020370,-0.005850751,0.007398040,-0.060960468,0.000070633,0.000292345,-0.000135851,-0.013590937,-0.021606172,9.792140007
1784151366.022372,-0.005850751,0.007398040,-0.060960468,-0.000247670,0.000502130,0.000434620,-0.053551793,-0.059297759,9.808897018
1784151366.024381,-0.005850751,0.007398040,-0.060960468,-0.001037951,0.000823745,0.000723892,-0.086606748,-0.083938450,9.805120468
1784151366.026375,-0.005852610,0.007399230,-0.060960460,-0.001999092,0.000592444,0.001220246,-0.102507941,-0.063909903,9.789541245
1784151366.028376,-0.005852610,0.007399230,-0.060960460,-0.002053419,-0.000138338,0.001146485,-0.069760375,-0.063579932,9.810196877
1784151366.030383,-0.005853183,0.007397927,-0.060960468,-0.001255448,-0.000384666,-0.000059640,-0.046890546,-0.065604575,9.801688194
1784151366.032380,-0.005853183,0.007397927,-0.060960468,-0.000601146,-0.000510682,-0.000973980,-0.052423600,-0.078056246,9.798465729
1784151366.034385,-0.005853183,0.007397927,-0.060960468,-0.000199546,-0.000643650,-0.000665618,-0.054936577,-0.027669469,9.774127960
1784151366.036383,-0.005851844,0.007395975,-0.060960487,-0.000156480,-0.000291056,0.000084631,-0.038075440,-0.045999970,9.738159180
1784151366.038388,-0.005851844,0.007395975,-0.060960487,-0.000487016,-0.000153631,0.000196695,-0.057627812,-0.064811952,9.772541046
1784151366.040390,-0.005852616,0.007395431,-0.060960490,-0.000479072,-0.000487407,0.000149948,-0.071433373,-0.056516379,9.764960289
1784151366.042392,-0.005852616,0.007395431,-0.060960490,-0.000494333,-0.000965428,0.000295070,-0.107863352,-0.060775135,9.799418449
1784151366.044392,-0.005852616,0.007395431,-0.060960490,-0.000684337,-0.001166853,0.000256908,-0.113737792,-0.025868142,9.815777779
1784151366.046398,-0.005851390,0.007397446,-0.060960479,-0.000420370,-0.000921059,0.000087520,-0.067343138,-0.049674191,9.803565025
1784151366.048395,-0.005851390,0.007397446,-0.060960479,0.000171187,-0.000602423,-0.000016414,-0.088950649,-0.054001849,9.821001053
1784151366.050392,-0.005851660,0.007398003,-0.060960479,0.000550187,-0.000083856,0.000252369,-0.087325774,-0.070360929,9.787272453
1784151366.052397,-0.005851660,0.007398003,-0.060960479,0.000572524,0.000224987,0.000393232,-0.076837011,-0.055383313,9.804415703
1784151366.054430,-0.005851660,0.007398003,-0.060960479,0.000819131,-0.000107053,-0.000066494,-0.042107698,-0.040226862,9.815755844
1784151366.056417,-0.005851051,0.007396479,-0.060960487,0.001157879,-0.000692419,-0.000439164,-0.055754799,-0.056517649,9.799945831
1784151366.058403,-0.005851051,0.007396479,-0.060960487,0.000860886,-0.001221538,-0.000621828,-0.090226546,-0.011787834,9.809613228
1784151366.060429,-0.005848417,0.007396959,-0.060960479,0.000196512,-0.001259516,-0.000861983,-0.093771219,-0.008955508,9.795729637
1784151366.062412,-0.005848417,0.007396959,-0.060960479,0.000110787,-0.001185142,-0.000764955,-0.102227926,-0.039815389,9.803145409
1784151366.064413,-0.005848417,0.007396959,-0.060960479,0.000321519,-0.000918801,-0.000548241,-0.079622783,-0.062976874,9.806157112
1784151366.066406,-0.005848737,0.007397233,-0.060960479,0.000135362,-0.000378795,-0.000443134,-0.060645763,-0.054074705,9.780229568
1784151366.068413,-0.005848737,0.007397233,-0.060960479,-0.000601180,-0.000357464,-0.000279334,-0.073845603,-0.069977336,9.772045135
1784151366.070421,-0.005849204,0.007397767,-0.060960472,-0.001299739,-0.000390855,-0.000702091,-0.047585480,-0.088616170,9.762534142
1784151366.072422,-0.005849204,0.007397767,-0.060960472,-0.001151794,-0.000056965,-0.001873513,-0.070187218,-0.065022625,9.761767387
1784151366.074418,-0.005849204,0.007397767,-0.060960472,-0.000770988,0.000415545,-0.002436341,-0.070170239,-0.062862314,9.772990227
1784151366.076418,-0.005849064,0.007397437,-0.060960472,-0.000895334,0.000666352,-0.001583888,-0.071009181,-0.057526153,9.780198097
1784151366.078414,-0.005849064,0.007397437,-0.060960472,-0.001299700,0.000258472,-0.000966673,-0.102246076,-0.042795312,9.781158447
1784151366.080418,-0.005849161,0.007398685,-0.060960464,-0.001561449,-0.000537572,-0.001404305,-0.070612215,-0.061182369,9.789589882
1784151366.082416,-0.005849161,0.007398685,-0.060960464,-0.001623690,-0.000991544,-0.001938832,-0.054783110,-0.049863782,9.807610512
1784151366.084422,-0.005849161,0.007398685,-0.060960464,-0.001738188,-0.000928408,-0.001856797,-0.043709055,-0.060866687,9.822793007
1784151366.086421,-0.005848593,0.007397627,-0.060960464,-0.002079241,-0.001153719,-0.001131040,-0.030888647,-0.076327689,9.831674576
1784151366.088427,-0.005848593,0.007397627,-0.060960464,-0.002217766,-0.001192826,-0.000637565,-0.067262188,-0.078114539,9.833420753
1784151366.090425,-0.005849355,0.007397430,-0.060960472,-0.001260808,-0.000438985,-0.000560864,-0.053536318,-0.058770310,9.797691345
1784151366.092432,-0.005849355,0.007397430,-0.060960472,-0.000097057,-0.000166168,-0.000289164,-0.074116766,-0.052765016,9.809365273
1784151366.094432,-0.005849355,0.007397430,-0.060960472,-0.000179814,-0.000679129,0.000192151,-0.054854155,-0.018913744,9.802877426
1784151366.096460,-0.005847850,0.007397083,-0.060960472,-0.001052521,-0.000988620,0.000307178,-0.088428192,-0.051398952,9.769010544
1784151366.098441,-0.005847850,0.007397083,-0.060960472,-0.001338076,-0.000728225,-0.000201473,-0.085093528,-0.070478708,9.799827576
1784151366.100437,-0.005848110,0.007397304,-0.060960468,-0.000674760,-0.000276388,-0.000821900,-0.062683053,-0.072986893,9.797142982
1784151366.102436,-0.005848110,0.007397304,-0.060960468,-0.000158396,-0.000112790,-0.000751242,-0.040936872,-0.092591353,9.805556297
1784151366.104446,-0.005848110,0.007397304,-0.060960468,0.000323926,-0.000158187,-0.000465843,-0.046734840,-0.053433314,9.791006088
1784151366.106446,-0.005847729,0.007396042,-0.060960479,0.001075943,-0.000013151,-0.000653443,-0.064081624,-0.077436537,9.795319557
1784151366.108441,-0.005847729,0.007396042,-0.060960479,0.001639671,-0.000105768,-0.000773136,-0.045141947,-0.070450217,9.786865234
1784151366.110442,-0.005848334,0.007395068,-0.060960487,0.001557888,-0.000511463,-0.000610273,-0.079106428,-0.059611607,9.773003578
1784151366.112441,-0.005848334,0.007395068,-0.060960487,0.000724779,-0.000596249,-0.001213755,-0.078755245,-0.065250427,9.809281349
1784151366.114504,-0.005848334,0.007395068,-0.060960487,0.000264950,-0.000425832,-0.001615755,-0.077494644,-0.035242178,9.808578491
1784151366.116467,-0.005847691,0.007394940,-0.060960483,0.000049759,-0.000635264,-0.000556390,-0.080303095,-0.047067340,9.775323868
1784151366.118458,-0.005847691,0.007394940,-0.060960483,-0.000667333,-0.000781459,0.000160335,-0.079460867,-0.050351292,9.794582367
1784151366.120456,-0.005847890,0.007395550,-0.060960483,-0.001214965,-0.000054744,-0.000125267,-0.050514113,-0.069879211,9.779241562
1784151366.122454,-0.005847890,0.007395550,-0.060960483,-0.001288247,0.000629268,0.000299868,-0.054566585,-0.069128685,9.807038307
1784151366.124454,-0.005847890,0.007395550,-0.060960483,-0.001134323,0.000383155,0.001291724,-0.079482324,-0.051736511,9.800400734
1784151366.126452,-0.005847873,0.007395061,-0.060960483,-0.000825006,-0.000012593,0.001742611,-0.090424605,-0.029156571,9.795155525
1784151366.128457,-0.005847873,0.007395061,-0.060960483,0.000112030,0.000250850,0.001840609,-0.089633599,-0.037707947,9.799136162
1784151366.130454,-0.005846919,0.007396780,-0.060960479,0.000939569,0.000389419,0.001550896,-0.064717397,-0.055907007,9.793215752
1784151366.132461,-0.005846919,0.007396780,-0.060960479,0.000651620,0.000014877,0.001191364,-0.068054400,-0.034819558,9.795140266
1784151366.134467,-0.005846919,0.007396780,-0.060960479,0.000208638,-0.000005793,0.001309572,-0.075439364,-0.052156724,9.789194107
1784151366.136473,-0.005846427,0.007396073,-0.060960483,0.000302276,0.000010990,0.001342368,-0.045403697,-0.055594977,9.777544022
1784151366.138475,-0.005846427,0.007396073,-0.060960483,0.000258074,-0.000440673,0.000894150,-0.051200174,-0.052394055,9.778903961
1784151366.140465,-0.005845608,0.007395422,-0.060960487,-0.000477616,-0.000653018,0.000386642,-0.074083887,-0.088474102,9.790307045
1784151366.142464,-0.005845608,0.007395422,-0.060960487,-0.001169689,-0.000159162,0.000200811,-0.071486831,-0.096149385,9.793848038
1784151366.144470,-0.005845608,0.007395422,-0.060960487,-0.001324393,0.000754594,0.000105180,-0.072453335,-0.064361870,9.798982620
1784151366.146474,-0.005847531,0.007395649,-0.060960487,-0.001095627,0.001376368,0.000721781,-0.090414651,-0.027456934,9.808168411
1784151366.148470,-0.005847531,0.007395649,-0.060960487,-0.000917871,0.001251349,0.001474647,-0.075045764,-0.018655032,9.802859306
1784151366.150470,-0.005845213,0.007395867,-0.060960483,-0.001097326,0.000949497,0.001714555,-0.050122023,-0.035173535,9.812640190
1784151366.152478,-0.005845213,0.007395867,-0.060960483,-0.000646984,0.000992327,0.002054180,-0.056200564,-0.055272948,9.814747810
1784151366.154487,-0.005845213,0.007395867,-0.060960483,0.000060405,0.000948548,0.002121259,-0.050659675,-0.042354241,9.815283775
1784151366.156477,-0.005844378,0.007394660,-0.060960490,-0.000219909,0.000872343,0.001988097,-0.058049116,-0.058916308,9.826378822
1784151366.158478,-0.005844378,0.007394660,-0.060960490,-0.000931635,0.000643969,0.001618543,-0.069968551,-0.045464966,9.783413887
1784151366.160481,-0.005844257,0.007394569,-0.060960490,-0.001290653,0.000117558,0.001076797,-0.072780229,-0.054478724,9.795907021
1784151366.162477,-0.005844257,0.007394569,-0.060960490,-0.001170901,-0.000213385,0.000249796,-0.084631473,-0.068352759,9.815083504
1784151366.164483,-0.005844257,0.007394569,-0.060960490,-0.000720970,-0.000473062,-0.000893748,-0.093010724,-0.059795484,9.760883331
1784151366.166481,-0.005845503,0.007396063,-0.060960483,-0.000449778,-0.000807609,-0.001402774,-0.104751103,-0.063067898,9.801200867
1784151366.168498,-0.005845503,0.007396063,-0.060960483,-0.000612205,-0.000798330,-0.001303410,-0.060295284,-0.061340034,9.793183327
1784151366.170513,-0.005845226,0.007395624,-0.060960483,-0.000909699,-0.000662981,-0.001338903,-0.060306676,-0.062645756,9.787796021
1784151366.172518,-0.005845226,0.007395624,-0.060960483,-0.000734286,-0.001055472,-0.001222459,-0.065142959,-0.052476551,9.815652847
1784151366.174504,-0.005845226,0.007395624,-0.060960483,-0.000281766,-0.001346671,-0.000848314,-0.077299297,-0.057105817,9.795437813
1784151366.176497,-0.005844825,0.007395146,-0.060960487,-0.000327727,-0.001106879,-0.000230848,-0.086781546,-0.061912648,9.795397758
1784151366.178494,-0.005844825,0.007395146,-0.060960487,-0.000504306,-0.000769211,0.000309909,-0.053803708,-0.043959580,9.794647217
1784151366.180496,-0.005843882,0.007393982,-0.060960494,-0.000704673,-0.000538457,0.000378713,-0.090432920,-0.066406682,9.803883553
1784151366.182501,-0.005843882,0.007393982,-0.060960494,-0.000957186,-0.000206771,0.000357371,-0.087468751,-0.045247100,9.784295082
1784151366.184505,-0.005843882,0.007393982,-0.060960494,-0.000583365,-0.000188032,0.000485883,-0.069836482,0.002488522,9.781479836
1784151366.186499,-0.005840839,0.007394000,-0.060960490,0.000134229,-0.000791376,0.000612876,-0.055025853,0.004757630,9.813789368
1784151366.188501,-0.005840839,0.007394000,-0.060960490,0.000336698,-0.000881814,0.000111115,-0.068454824,-0.030785345,9.795614243
1784151366.190500,-0.005839269,0.007394360,-0.060960490,0.000186033,-0.000220973,-0.000828495,-0.107389167,-0.059363864,9.789118767
1784151366.192508,-0.005839269,0.007394360,-0.060960490,-0.000014811,0.000119645,-0.001874957,-0.063552424,-0.070322603,9.802091599
1784151366.194527,-0.005839269,0.007394360,-0.060960490,-0.000038232,0.000094587,-0.002331739,-0.067252181,-0.080061808,9.792160988
1784151366.196516,-0.005840057,0.007394166,-0.060960490,0.000249537,0.000031624,-0.001779726,-0.095334150,-0.063639775,9.801653862
1784151366.198510,-0.005840057,0.007394166,-0.060960490,0.000132535,-0.000188832,-0.001685963,-0.097538933,-0.023689048,9.795184135
1784151366.200516,-0.005837263,0.007396136,-0.060960479,-0.000044914,-0.000563100,-0.001835616,-0.075303145,-0.040544719,9.794200897
1784151366.202511,-0.005837263,0.007396136,-0.060960479,0.000348643,-0.000915154,-0.001655420,-0.061241876,-0.063743234,9.817828178
1784151366.204521,-0.005837263,0.007396136,-0.060960479,0.000745729,-0.001097938,-0.001992910,-0.073354602,-0.101565510,9.802777290
1784151366.206520,-0.005841078,0.007395975,-0.060960479,0.001074127,-0.000961417,-0.002255255,-0.099104233,-0.079202473,9.791687965
1784151366.208551,-0.005841078,0.007395975,-0.060960479,0.001496621,-0.000542610,-0.002011057,-0.073281862,-0.060969807,9.764481544
1784151366.210521,-0.005841232,0.007395860,-0.060960479,0.001316151,-0.000145020,-0.001382126,-0.029854592,-0.068370916,9.781961441
1784151366.212522,-0.005841232,0.007395860,-0.060960479,0.000674839,-0.000086639,-0.000474760,-0.035227280,-0.066182941,9.799005508
1784151366.214529,-0.005841232,0.007395860,-0.060960479,0.000788295,-0.000027501,-0.000607017,-0.067756280,-0.045335092,9.824213982
1784151366.216529,-0.005841270,0.007394759,-0.060960487,0.000945344,0.000125098,-0.001081726,-0.095409222,-0.029884690,9.843565941
1784151366.218524,-0.005841270,0.007394759,-0.060960487,0.000896994,0.000307913,-0.001084420,-0.072897546,-0.027541246,9.788457870
1784151366.220524,-0.005839541,0.007394178,-0.060960490,0.001280738,0.000707115,-0.001174495,-0.044116903,-0.022543205,9.789862633
1784151366.222526,-0.005839541,0.007394178,-0.060960490,0.001212453,0.000605587,-0.001224800,-0.065729305,-0.063688919,9.818271637
1784151366.224537,-0.005839541,0.007394178,-0.060960490,0.000647843,-0.000237453,-0.001158239,-0.075621128,-0.066154800,9.804796219
1784151366.226531,-0.005840674,0.007394567,-0.060960490,0.000869738,-0.000752312,-0.000801310,-0.075050376,-0.056686599,9.795442581
1784151366.228538,-0.005840674,0.007394567,-0.060960490,0.001309054,-0.000571294,-0.000718269,-0.072156303,-0.038917117,9.811697960
1784151366.230536,-0.005840166,0.007394772,-0.060960487,0.000531954,-0.000115520,-0.001650563,-0.061676364,-0.062409490,9.820076942
1784151366.232542,-0.005840166,0.007394772,-0.060960487,-0.000519132,0.000439829,-0.002672240,-0.059800837,-0.058553088,9.778408051
1784151366.234537,-0.005840166,0.007394772,-0.060960487,-0.000296458,0.000468441,-0.002550559,-0.053689554,-0.071732566,9.793573380
1784151366.236542,-0.005840457,0.007394004,-0.060960494,0.000512365,0.000226449,-0.001830539,-0.077231005,-0.088888183,9.791198730
1784151366.238538,-0.005840457,0.007394004,-0.060960494,0.000668588,0.000197163,-0.001035103,-0.078621306,-0.093677677,9.774129868
1784151366.240546,-0.005841687,0.007393989,-0.060960490,0.000096810,0.000291880,-0.000564391,-0.052083425,-0.087834463,9.786746025
1784151366.242546,-0.005841687,0.007393989,-0.060960490,-0.000590673,0.000276905,-0.000727830,-0.087720543,-0.063445359,9.823631287
1784151366.244548,-0.005841687,0.007393989,-0.060960490,-0.000695920,0.000116187,-0.000594375,-0.114142776,-0.060675569,9.796724319
1784151366.246583,-0.005842143,0.007394869,-0.060960483,-0.000410530,0.000136429,-0.000044519,-0.090752363,-0.056059673,9.798569679
1784151366.248564,-0.005842143,0.007394869,-0.060960483,-0.000254047,0.000333935,-0.000004054,-0.091242902,-0.060031518,9.790921211
1784151366.250553,-0.005842115,0.007395676,-0.060960479,-0.000121582,0.000513616,0.000025653,-0.084582970,-0.027137769,9.815796852
1784151366.252551,-0.005842115,0.007395676,-0.060960479,0.000281508,0.000586766,0.000119667,-0.067323245,-0.049111761,9.787427902
1784151366.254583,-0.005842115,0.007395676,-0.060960479,0.000323453,0.000733871,0.000007759,-0.041075718,-0.069065869,9.773876190
1784151366.256575,-0.005842507,0.007395478,-0.060960479,-0.000098213,0.000827802,-0.000056504,-0.027908390,-0.055040922,9.794153214
1784151366.258562,-0.005842507,0.007395478,-0.060960479,-0.000206734,0.000823530,-0.000338083,-0.075964414,-0.058022164,9.795880318
1784151366.260562,-0.005842941,0.007396094,-0.060960472,-0.000052536,0.000638354,-0.000616061,-0.084491551,-0.095922247,9.785317421
1784151366.262561,-0.005842941,0.007396094,-0.060960472,-0.000483776,0.000453769,-0.000566980,-0.074323870,-0.070610330,9.798939705
1784151366.264568,-0.005842941,0.007396094,-0.060960472,-0.001087507,0.000426655,0.000082675,-0.088976376,-0.057852253,9.795420647
1784151366.266566,-0.005843430,0.007397295,-0.060960464,-0.001093155,0.000437889,0.000610959,-0.071339644,-0.048481692,9.769046783
1784151366.268562,-0.005843430,0.007397295,-0.060960464,-0.000770950,0.000392319,0.000382266,-0.026365319,-0.039319117,9.785737038
1784151366.270569,-0.005842583,0.007395190,-0.060960479,-0.000375677,0.000106841,-0.000020158,-0.027086765,-0.060513806,9.806222916
1784151366.272653,-0.005842583,0.007395190,-0.060960479,-0.000195315,0.000059811,0.000048442,-0.044036645,-0.090200014,9.789876938
1784151366.274576,-0.005842583,0.007395190,-0.060960479,-0.000605892,0.000119951,0.000332755,-0.090161882,-0.043598827,9.809411049
1784151366.276573,-0.005841563,0.007395511,-0.060960479,-0.000853396,-0.000158565,0.000177123,-0.100344226,-0.069431834,9.806095123
1784151366.278570,-0.005841563,0.007395511,-0.060960479,-0.000256113,-0.000439408,-0.000332591,-0.097788773,-0.043898169,9.802227020
1784151366.280580,-0.005840986,0.007397053,-0.060960468,0.000013753,-0.000841203,-0.000542808,-0.104664609,-0.055090453,9.813356400
1784151366.282578,-0.005840986,0.007397053,-0.060960468,0.000061526,-0.001265491,0.000476450,-0.076962680,-0.030132756,9.782160759
1784151366.284578,-0.005840986,0.007397053,-0.060960468,0.000028990,-0.001036092,0.001582898,-0.052178942,-0.058698520,9.785138130
1784151366.286579,-0.005841153,0.007396583,-0.060960468,-0.000711512,-0.000459953,0.001523587,-0.033165645,-0.043836497,9.803186417
1784151366.288585,-0.005841153,0.007396583,-0.060960468,-0.001320634,0.000177275,0.001355117,-0.043276232,-0.026649948,9.798804283
1784151366.290580,-0.005839901,0.007394590,-0.060960483,-0.000898667,0.000504277,0.001539881,-0.044354141,-0.041437067,9.800950050
1784151366.292586,-0.005839901,0.007394590,-0.060960483,0.000526227,0.000406680,0.001638280,-0.091114186,-0.048073296,9.810277939
1784151366.294589,-0.005839901,0.007394590,-0.060960483,0.001239710,0.000358852,0.001420749,-0.079274267,-0.071068175,9.809244156
1784151366.296590,-0.005840655,0.007395180,-0.060960479,0.000657981,0.000339318,0.000701008,-0.046250511,-0.049915787,9.799549103
1784151366.298587,-0.005840655,0.007395180,-0.060960479,-0.000089065,0.000544120,0.000249598,-0.082944959,-0.043798551,9.761444092
1784151366.300593,-0.005840258,0.007396345,-0.060960479,-0.000761269,0.000726047,0.000678906,-0.068732366,-0.055670846,9.767210007
1784151366.302590,-0.005840258,0.007396345,-0.060960479,-0.000925577,0.000854960,0.001010201,-0.045664128,-0.077103473,9.778303146
1784151366.304602,-0.005840258,0.007396345,-0.060960479,-0.000735820,0.000933402,0.000295205,-0.052821383,-0.074406385,9.789969444
1784151366.306599,-0.005841624,0.007394807,-0.060960483,-0.000417806,0.000758491,-0.000858482,-0.083604373,-0.058829885,9.797213554
1784151366.308595,-0.005841624,0.007394807,-0.060960483,0.000119345,0.000658019,-0.000759602,-0.076624058,-0.075486898,9.795769691
1784151366.310594,-0.005842999,0.007395245,-0.060960479,0.000347135,0.000602043,-0.000272540,-0.077233240,-0.050910670,9.806236267
1784151366.312606,-0.005842999,0.007395245,-0.060960479,0.000187350,0.000423994,-0.000442506,-0.083451882,-0.043847226,9.832280159
1784151366.314600,-0.005842999,0.007395245,-0.060960479,0.000070489,0.000380636,0.000029865,-0.079194166,-0.063951671,9.816462517
1784151366.316602,-0.005843616,0.007395714,-0.060960479,0.000401026,0.000466688,0.001007113,-0.056141291,-0.049941931,9.821059227
1784151366.318601,-0.005843616,0.007395714,-0.060960479,0.000294439,0.000015684,0.000975489,-0.086838670,-0.066011086,9.804785728
1784151366.320606,-0.005843703,0.007396519,-0.060960472,0.000053972,-0.000433897,0.000428015,-0.062810957,-0.047348794,9.783409119
1784151366.322602,-0.005843703,0.007396519,-0.060960472,0.000681604,-0.000016316,0.000395650,-0.056517608,-0.044906862,9.806744576
1784151366.324617,-0.005843703,0.007396519,-0.060960472,0.001124084,0.000576588,0.000283398,-0.071244508,-0.037194006,9.819780350
1784151366.326609,-0.005842652,0.007396453,-0.060960472,0.000932583,0.000259525,-0.000038039,-0.081853129,-0.026469933,9.779937744
1784151366.328623,-0.005842652,0.007396453,-0.060960472,0.000623755,-0.000564043,-0.000203566,-0.072509490,-0.033294179,9.777660370
1784151366.330619,-0.005842049,0.007395862,-0.060960479,0.000445508,-0.000227442,-0.000499377,-0.076231807,-0.043211438,9.792838097
1784151366.332617,-0.005842049,0.007395862,-0.060960479,0.000123952,0.000720696,-0.000530742,-0.082183756,-0.090175189,9.792082787
1784151366.334621,-0.005842049,0.007395862,-0.060960479,0.000371171,0.000864135,-0.000212891,-0.054172143,-0.074020676,9.801178932
1784151366.336620,-0.005842568,0.007395362,-0.060960479,0.001215719,0.000512480,-0.000145291,-0.044157650,-0.062481087,9.798573494
1784151366.338619,-0.005842568,0.007395362,-0.060960479,0.001239178,0.000642549,-0.000401715,-0.032203913,-0.038882267,9.797839165
1784151366.340621,-0.005841986,0.007393172,-0.060960494,0.000951258,0.000991583,-0.000425119,-0.047615435,-0.051668134,9.796397209
1784151366.342624,-0.005841986,0.007393172,-0.060960494,0.000393499,0.000818065,-0.000517312,-0.083031267,-0.048532534,9.797280312
1784151366.344634,-0.005841986,0.007393172,-0.060960494,-0.000196732,0.000300647,-0.001074343,-0.071705818,-0.038503516,9.815735817
1784151366.346644,-0.005840747,0.007393187,-0.060960494,0.000241468,-0.000067205,-0.001550911,-0.080073796,-0.064610340,9.784626007
1784151366.348634,-0.005840747,0.007393187,-0.060960494,0.000999556,0.000110288,-0.001931011,-0.072112687,-0.072110146,9.816865921
1784151366.350630,-0.005840945,0.007393360,-0.060960494,0.001155519,0.000475085,-0.001755932,-0.095067807,-0.078053407,9.811874390
1784151366.352636,-0.005840945,0.007393360,-0.060960494,0.000648934,0.000348442,-0.001126109,-0.068061553,-0.074086905,9.772471428
1784151366.354650,-0.005840945,0.007393360,-0.060960494,0.000003897,-0.000278160,-0.001103950,-0.092964232,-0.053349517,9.799482346
1784151366.356637,-0.005840342,0.007393396,-0.060960490,-0.000299804,-0.000429996,-0.001158052,-0.078688920,-0.060268804,9.801692009
