time_sec,roll_rad,pitch_rad,yaw_rad,gyro_x,gyro_y,gyro_z,acc_x,acc_y,acc_z
1784149997.439430,0.006819210,-0.045361981,-0.004735242,-0.000897191,0.000026994,-0.000150126,0.419912428,0.089301795,9.796854019
1784149997.441405,0.006819210,-0.045361981,-0.004735242,-0.000649764,0.000213023,-0.000299565,0.444083154,0.082850233,9.778453827
1784149997.443397,0.006819647,-0.045361329,-0.004735247,-0.000598884,-0.000007278,-0.000861913,0.450687796,0.073664859,9.798128128
1784149997.445428,0.006819647,-0.045361329,-0.004735247,-0.000721349,0.000139609,-0.001215963,0.447370917,0.057321325,9.771120071
1784149997.447367,0.006819198,-0.045361388,-0.004735247,-0.000863985,0.000564314,-0.000352987,0.438306540,0.052670538,9.811429977
1784149997.449382,0.006819198,-0.045361388,-0.004735247,-0.000827874,0.000492886,0.000490404,0.429813921,0.054254021,9.793051720
1784149997.451338,0.006819198,-0.045361388,-0.004735247,-0.000299719,-0.000065770,0.000651485,0.432632685,0.062918387,9.766657829
1784149997.453362,0.006818278,-0.045360629,-0.004735252,0.000484319,-0.000350613,0.000697938,0.459332168,0.045010738,9.779570580
1784149997.455380,0.006818278,-0.045360629,-0.004735252,0.000966560,-0.000483391,0.000443225,0.436671793,0.062872998,9.765764236
1784149997.457366,0.006817989,-0.045359839,-0.004735257,0.001026930,-0.000703751,0.000382881,0.464353591,0.052918583,9.792628288
1784149997.459370,0.006817989,-0.045359839,-0.004735257,0.000402427,-0.000768405,0.000555015,0.432609648,0.063547209,9.804322243
1784149997.461361,0.006817989,-0.045359839,-0.004735257,-0.000613410,-0.000810563,0.000860067,0.428238630,0.073030978,9.801688194
1784149997.463364,0.006818026,-0.045358818,-0.004735264,-0.001011123,-0.000830508,0.001660556,0.422167450,0.054205488,9.813666344
1784149997.465346,0.006818026,-0.045358818,-0.004735264,-0.001567754,-0.000481180,0.002082841,0.433041662,0.060167633,9.774709702
1784149997.467380,0.006818039,-0.045357868,-0.004735271,-0.002204319,0.000048438,0.001958393,0.437847406,0.086536668,9.775333405
1784149997.469364,0.006818039,-0.045357868,-0.004735271,-0.001871800,0.000480115,0.001797047,0.445885509,0.084507801,9.794157028
1784149997.471351,0.006818039,-0.045357868,-0.004735271,-0.001192691,0.000989970,0.001338307,0.452449709,0.070950918,9.798560143
1784149997.473346,0.006817777,-0.045358568,-0.004735266,-0.000681079,0.001235659,0.000931239,0.438757777,0.051063716,9.784520149
1784149997.475418,0.006817777,-0.045358568,-0.004735266,-0.000242144,0.000855842,0.000649738,0.467226654,0.030905994,9.795626640
1784149997.477369,0.006816062,-0.045360297,-0.004735255,0.000220452,0.000380503,0.000299373,0.455353111,0.050393499,9.785877228
1784149997.479378,0.006816062,-0.045360297,-0.004735255,0.000483572,-0.000108975,0.000043220,0.446712673,0.077052660,9.769900322
1784149997.481362,0.006816062,-0.045360297,-0.004735255,-0.000033980,-0.000800998,0.000034138,0.428312689,0.077262938,9.773471832
1784149997.483367,0.006816549,-0.045359492,-0.004735260,-0.000139954,-0.001203377,0.000570074,0.416817665,0.092137903,9.781625748
1784149997.485425,0.006816549,-0.045359492,-0.004735260,0.000620470,-0.000895226,0.001235956,0.453742862,0.065246910,9.779246330
1784149997.487365,0.006816583,-0.045360249,-0.004735255,0.000780783,-0.000393520,0.001234564,0.459676892,0.074074157,9.787378311
1784149997.489366,0.006816583,-0.045360249,-0.004735255,0.000354628,-0.000163626,0.000816740,0.435322374,0.063674875,9.781460762
1784149997.491338,0.006816583,-0.045360249,-0.004735255,0.000545849,-0.000328202,0.000944550,0.444663644,0.056831546,9.781873703
1784149997.493344,0.006816019,-0.045360930,-0.004735250,0.001711056,-0.000768463,0.001579058,0.434567064,0.076966241,9.803961754
1784149997.495340,0.006816019,-0.045360930,-0.004735250,0.002511250,-0.000654359,0.001664547,0.442308962,0.085062154,9.785638809
1784149997.497345,0.006816794,-0.045360710,-0.004735252,0.001960582,-0.000177709,0.001185663,0.431541413,0.086426377,9.802226067
1784149997.499348,0.006816794,-0.045360710,-0.004735252,0.000849371,-0.000238017,0.001031971,0.434835374,0.061351791,9.793998718
1784149997.501349,0.006816794,-0.045360710,-0.004735252,0.000238067,-0.000338307,0.000956113,0.432686031,0.068608329,9.785525322
1784149997.503336,0.006816833,-0.045360655,-0.004735252,0.000393734,-0.000126650,0.000379890,0.424935281,0.059225753,9.795767784
1784149997.505367,0.006816833,-0.045360655,-0.004735252,0.000670609,0.000045215,-0.000274197,0.448420703,0.071075805,9.788246155
1784149997.507354,0.006817227,-0.045360550,-0.004735253,0.000491690,0.000137084,-0.000516810,0.474677354,0.052814964,9.788601875
1784149997.509349,0.006817227,-0.045360550,-0.004735253,0.000323545,0.000025200,-0.000820970,0.453135312,0.054272648,9.811454773
1784149997.511347,0.006817227,-0.045360550,-0.004735253,0.000724249,-0.000187278,-0.001150757,0.411040336,0.061141767,9.803388596
1784149997.513347,0.006817128,-0.045358531,-0.004735267,0.001582204,0.000226146,-0.001116161,0.433623791,0.073778413,9.812908173
1784149997.515341,0.006817128,-0.045358531,-0.004735267,0.001722645,0.000979205,-0.000547656,0.451682031,0.080496795,9.780688286
1784149997.517344,0.006817698,-0.045358475,-0.004735267,0.001077614,0.001012776,0.000042955,0.444840133,0.071598366,9.784211159
1784149997.519343,0.006817698,-0.045358475,-0.004735267,0.000861155,0.000947823,-0.000068440,0.460516810,0.069150984,9.785106659
1784149997.521384,0.006817698,-0.045358475,-0.004735267,0.000797785,0.001207025,-0.000400459,0.459741563,0.077826358,9.763641357
1784149997.523363,0.006818265,-0.045360383,-0.004735254,0.000637490,0.000980110,-0.000157429,0.452889860,0.069661707,9.790034294
1784149997.525375,0.006818265,-0.045360383,-0.004735254,0.000912287,0.000287278,0.000233920,0.463202298,0.068252362,9.780619621
1784149997.527351,0.006818239,-0.045361463,-0.004735246,0.001335344,0.000127783,-0.000399351,0.441231757,0.071091473,9.798998833
1784149997.529369,0.006818239,-0.045361463,-0.004735246,0.001665342,0.000300894,-0.001111762,0.412018090,0.067033261,9.792220116
1784149997.531355,0.006818239,-0.045361463,-0.004735246,0.001651395,0.000444093,-0.001035344,0.408836722,0.063512072,9.789054871
1784149997.533380,0.006818433,-0.045359366,-0.004735261,0.001149776,0.000317731,-0.000656808,0.418692738,0.062048059,9.788159370
1784149997.535368,0.006818433,-0.045359366,-0.004735261,0.000705384,-0.000332997,-0.000131562,0.458850354,0.078292176,9.762746811
1784149997.537389,0.006818949,-0.045359988,-0.004735256,0.000385507,-0.000517217,-0.000054185,0.448102891,0.080625460,9.769027710
1784149997.539372,0.006818949,-0.045359988,-0.004735256,-0.000292354,-0.000068325,-0.000374363,0.449094683,0.088248365,9.766387939
1784149997.541394,0.006818949,-0.045359988,-0.004735256,-0.000874205,0.000528186,-0.000371574,0.457073241,0.081291921,9.785180092
1784149997.543403,0.006819939,-0.045361001,-0.004735250,-0.000792767,0.000919962,-0.000152356,0.446554840,0.066485636,9.807044029
1784149997.545374,0.006819939,-0.045361001,-0.004735250,-0.000430897,0.000664786,-0.000428433,0.436593533,0.058202606,9.792635918
1784149997.547376,0.006820139,-0.045360390,-0.004735253,-0.000243560,0.000102064,-0.000685928,0.419974267,0.057468537,9.799787521
1784149997.549449,0.006820139,-0.045360390,-0.004735253,-0.000176938,0.000049212,-0.000275922,0.411605358,0.068538696,9.770260811
1784149997.551386,0.006820139,-0.045360390,-0.004735253,-0.000177707,0.000583894,0.000567432,0.462332129,0.070100211,9.774354935
1784149997.553384,0.006820923,-0.045361113,-0.004735249,-0.000411001,0.001156792,0.001038045,0.463976771,0.058760546,9.790871620
1784149997.555378,0.006820923,-0.045361113,-0.004735249,-0.000817886,0.001221804,0.000548158,0.453310579,0.067003161,9.785086632
1784149997.557378,0.006820763,-0.045362025,-0.004735242,-0.000610459,0.001012629,0.000046237,0.456317931,0.056993298,9.801164627
1784149997.559384,0.006820763,-0.045362025,-0.004735242,0.000352094,0.000776069,0.000241020,0.441988051,0.058213107,9.781431198
1784149997.561382,0.006820763,-0.045362025,-0.004735242,0.000630440,-0.000057230,0.000306355,0.420951009,0.063757114,9.795794487
1784149997.563392,0.006819839,-0.045360204,-0.004735254,0.000185757,-0.000386093,0.000155903,0.419667900,0.068323918,9.785958290
1784149997.565397,0.006819839,-0.045360204,-0.004735254,-0.000007088,-0.000090423,0.000591044,0.435304433,0.061101582,9.765303612
1784149997.567391,0.006819760,-0.045360394,-0.004735253,-0.000114255,-0.000075153,0.001195807,0.460503429,0.070666201,9.824120522
1784149997.569385,0.006819760,-0.045360394,-0.004735253,0.000028528,0.000223569,0.001313392,0.430808842,0.100302421,9.805452347
1784149997.571388,0.006819760,-0.045360394,-0.004735253,0.000532219,0.000529307,0.001003037,0.455388188,0.091096930,9.795554161
1784149997.573395,0.006820764,-0.045360431,-0.004735253,0.000788619,0.000590458,0.000902233,0.446618974,0.069017977,9.765814781
1784149997.575393,0.006820764,-0.045360431,-0.004735253,0.001282556,0.000648697,0.000991829,0.458007693,0.082383037,9.756047249
1784149997.577400,0.006821265,-0.045361266,-0.004735247,0.001716198,0.000781651,0.000841099,0.466212571,0.095044658,9.787967682
1784149997.579401,0.006821265,-0.045361266,-0.004735247,0.001487469,0.000668611,0.000693155,0.431415290,0.074893855,9.786012650
1784149997.581395,0.006821265,-0.045361266,-0.004735247,0.001097606,0.000117591,0.001087865,0.437696338,0.073996939,9.774803162
1784149997.583405,0.006821201,-0.045360792,-0.004735251,0.000941320,-0.000177204,0.001376203,0.430757612,0.058255099,9.795767784
1784149997.585395,0.006821201,-0.045360792,-0.004735251,0.001103079,-0.000103622,0.001046745,0.460324943,0.055073403,9.811915398
1784149997.587396,0.006820516,-0.045361392,-0.004735247,0.001005266,0.000060633,0.000752857,0.466034710,0.079861671,9.781145096
1784149997.589398,0.006820516,-0.045361392,-0.004735247,0.000536330,0.000202247,0.000592408,0.466953158,0.083258986,9.805826187
1784149997.591402,0.006820516,-0.045361392,-0.004735247,0.000537510,0.000142378,0.000041915,0.443323553,0.056896493,9.775147438
1784149997.593405,0.006820311,-0.045361362,-0.004735247,0.000790528,-0.000046399,-0.000612246,0.440563440,0.051126570,9.772418976
1784149997.595408,0.006820311,-0.045361362,-0.004735247,0.000488742,0.000071539,-0.000799316,0.454899192,0.050357908,9.791706085
1784149997.597403,0.006820198,-0.045361854,-0.004735243,-0.000106896,0.000538937,-0.000843807,0.445789039,0.077667542,9.811149597
1784149997.599420,0.006820198,-0.045361854,-0.004735243,-0.000273739,0.000586018,-0.000462237,0.431375921,0.070125267,9.763565063
1784149997.601408,0.006820198,-0.045361854,-0.004735243,-0.000182904,0.000308830,0.000337838,0.463115185,0.059865102,9.763080597
1784149997.603417,0.006819759,-0.045362722,-0.004735237,-0.000529262,0.000329775,0.000524130,0.456532717,0.072062194,9.760910988
1784149997.605430,0.006819759,-0.045362722,-0.004735237,-0.000652877,0.000401627,0.000010496,0.447949946,0.069286518,9.788681984
1784149997.607421,0.006820091,-0.045362692,-0.004735237,0.000177039,0.000193723,-0.000634446,0.435834616,0.069438577,9.789119720
1784149997.609424,0.006820091,-0.045362692,-0.004735237,0.001050820,-0.000105736,-0.000924158,0.441142917,0.062284872,9.777421951
1784149997.611430,0.006820091,-0.045362692,-0.004735237,0.001036848,-0.000175980,-0.000629969,0.434216172,0.047448486,9.797046661
1784149997.613426,0.006819237,-0.045362078,-0.004735241,0.000324501,0.000015405,-0.000577886,0.440363437,0.075385444,9.826823235
1784149997.615422,0.006819237,-0.045362078,-0.004735241,-0.000449367,0.000012918,-0.000432829,0.452376038,0.064695358,9.796278954
1784149997.617438,0.006819050,-0.045362849,-0.004735236,-0.000853095,-0.000207495,-0.000183706,0.430922776,0.070096046,9.768495560
1784149997.619435,0.006819050,-0.045362849,-0.004735236,-0.000458674,-0.000301610,-0.000307639,0.417117953,0.079208046,9.772127151
1784149997.621426,0.006819050,-0.045362849,-0.004735236,0.000194077,0.000003207,-0.000286951,0.426114589,0.082107961,9.789191246
1784149997.623428,0.006819416,-0.045362297,-0.004735239,0.000403045,0.000660008,-0.000251829,0.431411535,0.073648550,9.772105217
1784149997.625429,0.006819416,-0.045362297,-0.004735239,0.000479408,0.000780200,-0.000372775,0.444238275,0.059048489,9.785923004
1784149997.627427,0.006819170,-0.045362625,-0.004735237,0.000184099,0.000205019,-0.000374873,0.454776525,0.078874186,9.814305305
1784149997.629469,0.006819170,-0.045362625,-0.004735237,-0.000377894,-0.000516352,-0.000360586,0.429914415,0.061126053,9.771575928
1784149997.631441,0.006819170,-0.045362625,-0.004735237,-0.000185440,-0.000614932,-0.000581516,0.425045937,0.067393973,9.781025887
1784149997.633472,0.006819242,-0.045361459,-0.004735245,0.000485278,-0.000099047,-0.000648086,0.436015666,0.084647000,9.792354584
1784149997.635453,0.006819242,-0.045361459,-0.004735245,0.000681389,0.000079166,-0.000246851,0.426832676,0.067307390,9.789994240
1784149997.637475,0.006819310,-0.045360953,-0.004735249,0.000222500,-0.000130157,0.000638308,0.452443242,0.068873286,9.775682449
1784149997.639450,0.006819310,-0.045360953,-0.004735249,-0.000507134,-0.000184735,0.000687345,0.465970039,0.074082695,9.774831772
1784149997.641451,0.006819310,-0.045360953,-0.004735249,-0.001158648,0.000056085,-0.000791911,0.445580095,0.058186196,9.778744698
1784149997.643452,0.006819433,-0.045361098,-0.004735248,-0.001687139,0.000250542,-0.001941721,0.438227922,0.081940025,9.790995598
1784149997.645452,0.006819433,-0.045361098,-0.004735248,-0.001840061,0.000417176,-0.001388848,0.445894986,0.084177472,9.777566910
1784149997.647506,0.006820620,-0.045361757,-0.004735244,-0.001536291,0.000602434,-0.000389361,0.452121705,0.080014452,9.784720421
1784149997.649521,0.006820620,-0.045361757,-0.004735244,-0.001151110,0.000668609,-0.000473699,0.463679820,0.070905760,9.784672737
1784149997.651470,0.006820620,-0.045361757,-0.004735244,-0.000942497,0.000595916,-0.001239947,0.439893872,0.071578942,9.795861244
1784149997.653495,0.006820916,-0.045361578,-0.004735245,-0.000573620,0.000645517,-0.001291784,0.429208875,0.077241898,9.774816513
1784149997.655465,0.006820916,-0.045361578,-0.004735245,-0.000037392,0.000494347,-0.000608093,0.453375101,0.071565442,9.773457527
1784149997.657486,0.006820893,-0.045363437,-0.004735232,0.000169852,0.000099539,-0.000328531,0.463878393,0.051094327,9.797994614
1784149997.659476,0.006820893,-0.045363437,-0.004735232,0.000342723,0.000031442,-0.000737376,0.461608887,0.048486188,9.790803909
1784149997.661461,0.006820893,-0.045363437,-0.004735232,0.000576786,-0.000055219,-0.001053302,0.436912149,0.045822471,9.768795013
1784149997.663465,0.006820082,-0.045363046,-0.004735235,0.000620418,-0.000100311,-0.001066930,0.455419898,0.057405069,9.807891846
1784149997.665466,0.006820082,-0.045363046,-0.004735235,0.000816586,-0.000043166,-0.001364924,0.452390283,0.065213285,9.786418915
1784149997.667457,0.006819772,-0.045363322,-0.004735233,0.001104514,0.000137905,-0.001093604,0.426401377,0.069476627,9.800768852
1784149997.669473,0.006819772,-0.045363322,-0.004735233,0.001259095,0.000285529,-0.000426603,0.407646596,0.077323899,9.802144051
1784149997.671474,0.006819772,-0.045363322,-0.004735233,0.001241100,-0.000018394,-0.000123718,0.437467188,0.055166673,9.776926041
1784149997.673474,0.006819821,-0.045362387,-0.004735240,0.000616284,0.000019450,-0.000010907,0.456793815,0.057607211,9.776959419
1784149997.675472,0.006819821,-0.045362387,-0.004735240,-0.000627814,0.000614829,-0.000143438,0.473069459,0.068497524,9.791391373
1784149997.677487,0.006820242,-0.045363788,-0.004735230,-0.001448368,0.000720768,0.000227672,0.422376037,0.068009987,9.762198448
1784149997.679486,0.006820242,-0.045363788,-0.004735230,-0.001618381,0.000287582,0.000784687,0.432406098,0.082103789,9.778437614
1784149997.681473,0.006820242,-0.045363788,-0.004735230,-0.001287823,0.000078316,0.000668278,0.465296149,0.055289976,9.772468567
1784149997.683488,0.006819916,-0.045364272,-0.004735227,-0.000627356,0.000263659,0.000531869,0.425998151,0.072678521,9.792269707
1784149997.685491,0.006819916,-0.045364272,-0.004735227,-0.000400211,0.000311644,0.000395504,0.433727950,0.045115862,9.810930252
1784149997.687483,0.006818536,-0.045363989,-0.004735229,-0.000232310,0.000457779,-0.000226715,0.443843246,0.064340748,9.798509598
1784149997.689487,0.006818536,-0.045363989,-0.004735229,0.000401400,0.001114485,-0.000315081,0.469438106,0.065782614,9.801681519
1784149997.691553,0.006818536,-0.045363989,-0.004735229,0.000679830,0.001448657,-0.000019513,0.427806199,0.073570520,9.789587975
1784149997.693486,0.006819271,-0.045362167,-0.004735241,0.000858130,0.001080833,0.000120153,0.446948856,0.097153679,9.778100014
1784149997.695512,0.006819271,-0.045362167,-0.004735241,0.001204257,0.000721213,0.000113420,0.422536552,0.083056249,9.788297653
1784149997.697562,0.006819836,-0.045361623,-0.004735245,0.000825169,0.000592478,0.000036048,0.454007298,0.050007299,9.779597282
1784149997.699510,0.006819836,-0.045361623,-0.004735245,-0.000048326,0.000485809,0.000195284,0.455166638,0.072327077,9.789155960
1784149997.701497,0.006819836,-0.045361623,-0.004735245,-0.000361203,0.000277070,0.000563794,0.452319503,0.060196672,9.798939705
1784149997.703497,0.006819966,-0.045362215,-0.004735241,0.000384077,-0.000138362,0.000976744,0.445269257,0.030606562,9.751220703
1784149997.705497,0.006819966,-0.045362215,-0.004735241,0.001258261,0.000042846,0.001046122,0.433154941,0.033198368,9.786642075
1784149997.707491,0.006818343,-0.045361575,-0.004735245,0.001088368,0.000866083,0.001333906,0.431448370,0.080018200,9.821461678
1784149997.709496,0.006818343,-0.045361575,-0.004735245,0.000329420,0.001344001,0.001975110,0.469619632,0.080184147,9.792359352
1784149997.711499,0.006818343,-0.045361575,-0.004735245,-0.000086955,0.000952388,0.002492470,0.449916303,0.082775496,9.778458595
1784149997.713498,0.006819069,-0.045361944,-0.004735242,-0.000015332,0.000125961,0.002397596,0.465692163,0.088810757,9.783443451
1784149997.715495,0.006819069,-0.045361944,-0.004735242,0.000171374,0.000102868,0.001609848,0.450690418,0.073280498,9.789157867
1784149997.717500,0.006818851,-0.045362402,-0.004735239,-0.000299683,0.000742112,0.000785947,0.420623094,0.072010577,9.769843102
1784149997.719497,0.006818851,-0.045362402,-0.004735239,-0.000358644,0.000771753,0.000346232,0.435600102,0.086130179,9.773534775
1784149997.721503,0.006818851,-0.045362402,-0.004735239,0.000565826,0.000042734,0.000384296,0.428862602,0.049382456,9.786743164
1784149997.723513,0.006818312,-0.045361426,-0.004735246,0.001439376,-0.000277393,0.000882865,0.476611406,0.064022794,9.784192085
1784149997.725504,0.006818312,-0.045361426,-0.004735246,0.001848580,0.000159478,0.000978663,0.476011723,0.053515583,9.813714981
1784149997.727545,0.006817117,-0.045362808,-0.004735236,0.001619006,0.000019761,0.000341040,0.465317130,0.058292158,9.791318893
1784149997.729526,0.006817117,-0.045362808,-0.004735236,0.000887685,-0.000382701,0.000000330,0.447315395,0.053235620,9.778716087
1784149997.731516,0.006817117,-0.045362808,-0.004735236,-0.000127650,-0.000113930,-0.000046940,0.454685062,0.069641873,9.789587975
1784149997.733554,0.006817190,-0.045363437,-0.004735231,-0.000831175,0.000133925,0.000171697,0.447556108,0.073778249,9.787812233
1784149997.735522,0.006817190,-0.045363437,-0.004735231,-0.000785697,0.000092146,0.000384775,0.422798991,0.066990666,9.778780937
1784149997.737519,0.006817166,-0.045362160,-0.004735240,-0.000552826,0.000096773,0.000341943,0.438881576,0.060957015,9.779205322
1784149997.739524,0.006817166,-0.045362160,-0.004735240,-0.000955527,0.000717182,0.000493787,0.453512639,0.046813723,9.788543701
1784149997.741516,0.006817166,-0.045362160,-0.004735240,-0.001280608,0.001548353,0.000462052,0.438015759,0.064459994,9.792227745
1784149997.743537,0.006817163,-0.045362588,-0.004735237,-0.000617617,0.001713498,0.000221287,0.443391919,0.063920781,9.795368195
1784149997.745522,0.006817163,-0.045362588,-0.004735237,0.000578747,0.000961044,0.000222682,0.454797536,0.042666256,9.802415848
1784149997.747523,0.006815527,-0.045363322,-0.004735232,0.001102900,0.000039205,0.000130805,0.456872612,0.063497491,9.767582893
1784149997.749531,0.006815527,-0.045363322,-0.004735232,0.000566248,-0.000333348,-0.000116438,0.446246326,0.076108426,9.777515411
1784149997.751523,0.006815527,-0.045363322,-0.004735232,-0.000076748,-0.000441809,-0.000007216,0.428008020,0.089347742,9.775790215
1784149997.753533,0.006815995,-0.045363098,-0.004735234,-0.000415058,-0.000128124,0.000381627,0.429474145,0.064035416,9.804322243
1784149997.755535,0.006815995,-0.045363098,-0.004735234,-0.000641440,0.000210274,0.000322555,0.450350076,0.045062125,9.788528442
1784149997.757527,0.006814668,-0.045363158,-0.004735234,-0.000446805,0.000237701,0.000152509,0.421978325,0.073686600,9.783753395
1784149997.759531,0.006814668,-0.045363158,-0.004735234,0.000490601,0.000354441,0.000463679,0.479701668,0.059935007,9.786409378
1784149997.761534,0.006814668,-0.045363158,-0.004735234,0.001298379,0.000311369,0.000816211,0.447819203,0.057312399,9.771568298
1784149997.763537,0.006814555,-0.045363948,-0.004735229,0.001269522,-0.000087572,0.000456236,0.450770497,0.080396995,9.796377182
1784149997.765545,0.006814555,-0.045363948,-0.004735229,0.000889668,-0.000279794,-0.000546148,0.457115948,0.084465817,9.779821396
1784149997.767540,0.006815510,-0.045364380,-0.004735225,0.000381209,-0.000058892,-0.001022006,0.431590199,0.088837884,9.778030396
1784149997.769537,0.006815510,-0.045364380,-0.004735225,-0.000116839,0.000100641,-0.000917579,0.427996874,0.054912202,9.829816818
1784149997.771538,0.006815510,-0.045364380,-0.004735225,-0.000280507,0.000197931,-0.001039864,0.454615653,0.065041453,9.806593895
1784149997.773544,0.006815646,-0.045365140,-0.004735220,-0.000326940,0.000199233,-0.001652722,0.456748843,0.052794114,9.760787964
1784149997.775546,0.006815646,-0.045365140,-0.004735220,-0.000254326,0.000018820,-0.002063920,0.464141726,0.071815014,9.781988144
1784149997.777543,0.006815794,-0.045365784,-0.004735216,0.000145584,0.000382646,-0.001547831,0.454338819,0.076535568,9.765870094
1784149997.779551,0.006815794,-0.045365784,-0.004735216,0.000382719,0.000683387,-0.001027339,0.442898273,0.059113435,9.779196739
1784149997.781549,0.006815794,-0.045365784,-0.004735216,0.000263559,0.000583849,-0.001011441,0.466866046,0.073655039,9.770346642
1784149997.783556,0.006816288,-0.045366496,-0.004735211,0.000322297,0.000617098,-0.000890728,0.459848583,0.050402779,9.776467323
1784149997.785588,0.006816288,-0.045366496,-0.004735211,0.000615076,0.000420641,-0.000478690,0.426590323,0.046752047,9.782689095
1784149997.787562,0.006815357,-0.045365553,-0.004735217,0.000645772,0.000117390,-0.000161654,0.463544339,0.060110182,9.790879250
1784149997.789550,0.006815357,-0.045365553,-0.004735217,0.000363494,0.000064188,-0.000327387,0.446111381,0.101285852,9.765572548
1784149997.791554,0.006815357,-0.045365553,-0.004735217,0.000194214,-0.000061969,-0.000935950,0.462660730,0.096199609,9.757933617
1784149997.793559,0.006817454,-0.045366351,-0.004735212,0.000082952,-0.000624418,-0.000984744,0.466836274,0.072609663,9.791411400
1784149997.795559,0.006817454,-0.045366351,-0.004735212,0.000141374,-0.001363851,-0.000335936,0.440103233,0.051446736,9.791250229
1784149997.797563,0.006817072,-0.045366164,-0.004735213,0.000207908,-0.001467699,-0.000366277,0.460434109,0.062418845,9.786856651
1784149997.799564,0.006817072,-0.045366164,-0.004735213,0.000154032,-0.001019053,-0.000584191,0.456151873,0.081519268,9.817910194
1784149997.801563,0.006817072,-0.045366164,-0.004735213,0.000240407,-0.000748457,-0.000598638,0.437392861,0.086901344,9.787889481
1784149997.803567,0.006817741,-0.045365874,-0.004735215,0.000375627,-0.000569666,-0.000681358,0.429015905,0.099934675,9.797378540
1784149997.805564,0.006817741,-0.045365874,-0.004735215,0.000419982,-0.000438614,-0.000777803,0.417705655,0.094483472,9.828268051
1784149997.807565,0.006818690,-0.045364928,-0.004735222,0.000327820,-0.000231482,-0.001226726,0.420207411,0.075113893,9.775242805
1784149997.809566,0.006818690,-0.045364928,-0.004735222,0.000242040,-0.000151830,-0.001644448,0.448507935,0.041469645,9.792986870
1784149997.811569,0.006818690,-0.045364928,-0.004735222,-0.000236408,0.000050357,-0.001244591,0.463883519,0.049918965,9.774227142
1784149997.813576,0.006818249,-0.045366064,-0.004735214,-0.000796492,0.000773800,-0.000607440,0.428658456,0.033586174,9.803230286
1784149997.815582,0.006818249,-0.045366064,-0.004735214,-0.000663580,0.001203774,0.000055605,0.443794221,0.059495833,9.786822319
1784149997.817582,0.006818379,-0.045366157,-0.004735213,-0.000335559,0.001242201,0.000916552,0.443170041,0.082737729,9.795936584
1784149997.819577,0.006818379,-0.045366157,-0.004735213,-0.000096769,0.001129745,0.000965301,0.430572301,0.080198221,9.797701836
1784149997.821578,0.006818379,-0.045366157,-0.004735213,0.000024035,0.001016160,0.000386792,0.435422510,0.072570510,9.790484428
1784149997.823580,0.006818607,-0.045365691,-0.004735216,0.000227122,0.001526589,-0.000103365,0.447787911,0.055444241,9.782317162
1784149997.825583,0.006818607,-0.045365691,-0.004735216,0.000159287,0.002008754,-0.000460167,0.433497101,0.061836082,9.791310310
1784149997.827581,0.006818777,-0.045365136,-0.004735220,-0.000476986,0.001575033,-0.000833711,0.438136250,0.073111162,9.772556305
1784149997.829648,0.006818777,-0.045365136,-0.004735220,-0.000673471,0.000825541,-0.001324446,0.433857322,0.053836979,9.781395912
1784149997.831601,0.006818777,-0.045365136,-0.004735220,-0.000161746,0.000650244,-0.001642733,0.436001778,0.084132262,9.801767349
1784149997.833606,0.006819210,-0.045364741,-0.004735222,0.000247003,0.000574160,-0.001549323,0.435955316,0.079713069,9.793219566
1784149997.835627,0.006819210,-0.045364741,-0.004735222,0.000035754,0.000359573,-0.001049728,0.446233481,0.037606638,9.773234367
1784149997.837600,0.006817752,-0.045364406,-0.004735223,-0.000565358,0.000675275,-0.000557496,0.415069044,0.059393574,9.789933205
1784149997.839595,0.006817752,-0.045364406,-0.004735223,-0.001002570,0.001012031,0.000000256,0.428073287,0.059973329,9.811019897
1784149997.841612,0.006817752,-0.045364406,-0.004735223,-0.001161695,0.000932093,0.000332806,0.435234219,0.094084747,9.789726257
1784149997.843619,0.006819320,-0.045364171,-0.004735225,-0.001370003,0.000624748,0.000266650,0.439564407,0.081846453,9.801756859
1784149997.845608,0.006819320,-0.045364171,-0.004735225,-0.001322817,0.000451375,0.000435675,0.430265248,0.091453865,9.790601730
1784149997.847600,0.006820207,-0.045363639,-0.004735229,-0.000923650,0.000609350,0.000524868,0.444938034,0.080071472,9.789645195
1784149997.849603,0.006820207,-0.045363639,-0.004735229,-0.000543113,0.000651800,0.000535426,0.418207794,0.058930807,9.786344528
1784149997.851602,0.006820207,-0.045363639,-0.004735229,0.000001418,0.000302413,0.000451165,0.440479547,0.081164800,9.769922256
1784149997.853607,0.006820960,-0.045363538,-0.004735230,0.000776729,-0.000063857,0.000335605,0.450235665,0.073238544,9.795883179
1784149997.855618,0.006820960,-0.045363538,-0.004735230,0.001069239,-0.000383071,0.000467318,0.451094031,0.070081785,9.797207832
1784149997.857616,0.006821755,-0.045363951,-0.004735227,0.000831257,-0.000538423,0.000508827,0.467370331,0.079761758,9.792803764
1784149997.859614,0.006821755,-0.045363951,-0.004735227,0.001200140,-0.000657774,0.000594049,0.433685392,0.077101737,9.786477089
1784149997.861613,0.006821755,-0.045363951,-0.004735227,0.001829025,-0.000927267,0.000439066,0.434656143,0.083342612,9.789207458
1784149997.863641,0.006822735,-0.045362983,-0.004735234,0.001709923,-0.001009038,0.000271728,0.436027199,0.048769370,9.797058105
1784149997.865620,0.006822735,-0.045362983,-0.004735234,0.000926599,-0.000269243,0.000171222,0.470892668,0.035921112,9.776834488
1784149997.867617,0.006820812,-0.045364607,-0.004735223,-0.000272447,0.000742674,0.000388471,0.434509724,0.068407647,9.747416496
1784149997.869614,0.006820812,-0.045364607,-0.004735223,-0.001225214,0.000955402,0.001085241,0.468791097,0.048823081,9.793502808
1784149997.871633,0.006820812,-0.045364607,-0.004735223,-0.001706002,0.000696193,0.001247877,0.436082095,0.088818550,9.772655487
1784149997.873639,0.006820973,-0.045364533,-0.004735223,-0.001785208,0.000346542,0.000697974,0.433522940,0.064066358,9.792669296
1784149997.875626,0.006820973,-0.045364533,-0.004735223,-0.001172911,0.000104814,-0.000062525,0.447352827,0.059205007,9.821346283
1784149997.877621,0.006820791,-0.045364711,-0.004735223,-0.000290228,0.000281005,-0.000126484,0.469462752,0.067193292,9.792274475
1784149997.879624,0.006820791,-0.045364711,-0.004735223,0.000298752,0.000497945,0.000152262,0.432733715,0.073037073,9.792726517
1784149997.881630,0.006820791,-0.045364711,-0.004735223,0.000383790,0.000623362,0.000408753,0.427803159,0.071114868,9.756842613
1784149997.883632,0.006820377,-0.045364212,-0.004735226,0.000122434,0.000933651,0.000686569,0.428757936,0.077635191,9.783338547
1784149997.885665,0.006820377,-0.045364212,-0.004735226,0.000090876,0.000745548,0.000634175,0.437564224,0.062416717,9.765316010
1784149997.887633,0.006820170,-0.045363806,-0.004735229,0.000132454,-0.000252045,-0.000076603,0.458553761,0.054877378,9.779633522
1784149997.889646,0.006820170,-0.045363806,-0.004735229,-0.000398128,-0.001026289,-0.000667760,0.449951023,0.087102473,9.800006866
1784149997.891642,0.006820170,-0.045363806,-0.004735229,-0.001070592,-0.000983673,0.000276452,0.465207189,0.048103515,9.775113106
1784149997.893645,0.006819400,-0.045364935,-0.004735221,-0.001089829,-0.000868704,0.001127981,0.446789980,0.046556931,9.773739815
1784149997.895638,0.006819400,-0.045364935,-0.004735221,-0.000306266,-0.000893243,0.000395090,0.445104361,0.093542106,9.785248756
1784149997.897637,0.006820610,-0.045365028,-0.004735220,0.000466088,-0.000643969,-0.000028694,0.475993097,0.086905748,9.780751228
1784149997.899638,0.006820610,-0.045365028,-0.004735220,0.000812845,-0.000194819,0.000439959,0.450031430,0.093005471,9.788835526
1784149997.901645,0.006820610,-0.045365028,-0.004735220,0.000918157,-0.000135354,0.000671331,0.448727012,0.095783614,9.778540611
1784149997.903642,0.006821852,-0.045365568,-0.004735216,0.000543195,-0.000051387,0.000875496,0.445008904,0.086304769,9.795064926
1784149997.905645,0.006821852,-0.045365568,-0.004735216,0.000199907,0.000313646,0.001495156,0.448127300,0.083249614,9.778012276
1784149997.907671,0.006822744,-0.045365967,-0.004735214,0.000419284,0.000432949,0.001549362,0.450642169,0.069252022,9.788684845
1784149997.909658,0.006822744,-0.045365967,-0.004735214,0.001033621,0.000538935,0.000614880,0.468456805,0.058242373,9.792666435
1784149997.911654,0.006822744,-0.045365967,-0.004735214,0.001553326,0.000562475,-0.000246582,0.463411689,0.049336858,9.793949127
1784149997.913704,0.006821431,-0.045367982,-0.004735199,0.001493925,0.000276367,-0.000551601,0.437836230,0.050074365,9.799309731
1784149997.915658,0.006821431,-0.045367982,-0.004735199,0.000653190,-0.000086008,-0.000685670,0.428503126,0.056171216,9.777818680
1784149997.917661,0.006820663,-0.045367170,-0.004735205,-0.000241160,0.000354462,-0.000689602,0.448776573,0.061421584,9.759041786
1784149997.919659,0.006820663,-0.045367170,-0.004735205,-0.000529931,0.000849427,-0.000365987,0.443758160,0.094369411,9.797357559
1784149997.921664,0.006820663,-0.045367170,-0.004735205,-0.000297933,0.000375612,0.000136594,0.439834177,0.067054816,9.802109718
1784149997.923670,0.006820359,-0.045367178,-0.004735205,0.000445107,-0.000337281,0.000754308,0.437017858,0.057599459,9.813702583
1784149997.925664,0.006820359,-0.045367178,-0.004735205,0.001041054,-0.000873655,0.000951572,0.453068405,0.046044383,9.771501541
1784149997.927667,0.006819493,-0.045366794,-0.004735208,0.000811528,-0.000911273,0.000446325,0.444958389,0.082663842,9.803112030
1784149997.929696,0.006819493,-0.045366794,-0.004735208,0.000215549,-0.000448407,0.000134463,0.448619038,0.051667821,9.807847023
1784149997.931686,0.006819493,-0.045366794,-0.004735208,-0.000163428,0.000100640,0.000486202,0.450053215,0.057613965,9.788161278
1784149997.933720,0.006818506,-0.045367196,-0.004735205,-0.000060926,0.000388758,0.000706314,0.430235684,0.053225160,9.810977936
1784149997.935703,0.006818506,-0.045367196,-0.004735205,0.000064085,0.000238123,0.000864735,0.426799715,0.065426514,9.802536011
1784149997.937694,0.006818525,-0.045367315,-0.004735204,-0.000446487,-0.000403000,0.000633242,0.441782981,0.080000445,9.805333138
1784149997.939683,0.006818525,-0.045367315,-0.004735204,-0.001120579,-0.000573493,-0.000400713,0.423223764,0.103980660,9.805916786
1784149997.941683,0.006818525,-0.045367315,-0.004735204,-0.000919523,-0.000167063,-0.000843002,0.442536712,0.066696361,9.784625053
1784149997.943690,0.006818856,-0.045367029,-0.004735207,-0.000377478,0.000014210,-0.000750024,0.452337921,0.061963078,9.802537918
1784149997.945680,0.006818856,-0.045367029,-0.004735207,-0.000204061,-0.000317887,-0.000919902,0.458348721,0.074637927,9.773482323
1784149997.947689,0.006819579,-0.045368083,-0.004735199,-0.000185490,-0.000469322,-0.000935012,0.471976131,0.052372884,9.792632103
1784149997.949694,0.006819579,-0.045368083,-0.004735199,-0.000486234,0.000484814,-0.000796174,0.426714748,0.057055164,9.782754898
1784149997.951691,0.006819579,-0.045368083,-0.004735199,-0.000542458,0.001196025,-0.000676632,0.462306827,0.071926668,9.832648277
1784149997.953689,0.006819400,-0.045368485,-0.004735196,0.000167054,0.000965861,-0.000231487,0.447785199,0.056638684,9.803395271
1784149997.955692,0.006819400,-0.045368485,-0.004735196,0.001062335,0.000720895,0.000291537,0.464603394,0.036347814,9.791176796
1784149997.957693,0.006818278,-0.045368630,-0.004735195,0.001390409,0.000654262,0.000618507,0.433515161,0.062789246,9.783245087
1784149997.959754,0.006818278,-0.045368630,-0.004735195,0.001391041,0.000284748,0.000782327,0.430247068,0.090094097,9.792833328
1784149997.961719,0.006818278,-0.045368630,-0.004735195,0.001138889,0.000072060,0.000937685,0.478082091,0.074715279,9.790090561
1784149997.963824,0.006818888,-0.045369729,-0.004735187,0.000525109,0.000211515,0.000762990,0.469116926,0.074900232,9.780220032
1784149997.965723,0.006818888,-0.045369729,-0.004735187,0.000458792,0.000364436,0.000401944,0.464675456,0.080180623,9.801770210
1784149997.967725,0.006819656,-0.045370620,-0.004735182,0.000733979,0.000344916,0.000373384,0.450267613,0.077543288,9.820569038
1784149997.969746,0.006819656,-0.045370620,-0.004735182,0.000460621,-0.000058850,0.000133033,0.425108790,0.073563688,9.795413017
1784149997.971716,0.006819656,-0.045370620,-0.004735182,0.000068348,0.000206294,0.000087112,0.436127633,0.056451492,9.787692070
1784149997.973751,0.006819096,-0.045370158,-0.004735185,0.000368657,0.001147436,0.000329535,0.445617884,0.062131986,9.790876389
1784149997.975723,0.006819096,-0.045370158,-0.004735185,0.001198728,0.001380240,-0.000109176,0.442281127,0.045226019,9.780004501
1784149997.977744,0.006818296,-0.045370009,-0.004735186,0.001763390,0.001207839,-0.000358534,0.440816611,0.072577834,9.779728889
1784149997.979730,0.006818296,-0.045370009,-0.004735186,0.001866044,0.001117146,0.000181588,0.450806767,0.083520003,9.798191071
1784149997.981727,0.006818296,-0.045370009,-0.004735186,0.001827999,0.000568640,0.000193105,0.461494207,0.075039282,9.774385452
1784149997.983732,0.006818536,-0.045370959,-0.004735179,0.001473453,-0.000163536,-0.000757622,0.465021700,0.070450097,9.783326149
1784149997.985728,0.006818536,-0.045370959,-0.004735179,0.000388286,-0.000220798,-0.001322516,0.433592707,0.068669960,9.775214195
1784149997.987725,0.006817942,-0.045370497,-0.004735182,-0.000363818,0.000110408,-0.000973720,0.460683793,0.046658143,9.797515869
1784149997.989729,0.006817942,-0.045370497,-0.004735182,-0.000121428,-0.000090143,-0.000504210,0.446193665,0.072044984,9.781971931
1784149997.991728,0.006817942,-0.045370497,-0.004735182,-0.000235765,-0.000377321,-0.000127322,0.469077200,0.072155215,9.788272858
1784149997.993727,0.006818115,-0.045371972,-0.004735172,-0.000819863,-0.000112262,0.000004670,0.455170602,0.073168956,9.796783447
1784149997.995726,0.006818115,-0.045371972,-0.004735172,-0.001061221,0.000349939,-0.000077902,0.441557348,0.059982080,9.785478592
1784149997.997736,0.006817849,-0.045371395,-0.004735176,-0.001276455,0.000363752,-0.000248227,0.424981952,0.063241512,9.798036575
1784149997.999736,0.006817849,-0.045371395,-0.004735176,-0.001923991,0.000127449,-0.000428615,0.436150372,0.094626136,9.774934769
1784149998.001735,0.006817849,-0.045371395,-0.004735176,-0.002470743,-0.000173312,-0.000001256,0.438927025,0.064963236,9.782816887
1784149998.003736,0.006817216,-0.045370609,-0.004735181,-0.002074445,-0.000420750,0.000600005,0.447084755,0.072389230,9.794978142
1784149998.005742,0.006817216,-0.045370609,-0.004735181,-0.001487638,0.000118403,0.000609255,0.448388010,0.068791486,9.794507027
1784149998.007738,0.006818346,-0.045370158,-0.004735183,-0.000549341,0.000937423,0.000655284,0.433019519,0.059992753,9.799367905
1784149998.009736,0.006818346,-0.045370158,-0.004735183,0.000398673,0.000954026,0.000884574,0.460704505,0.084816895,9.786999702
1784149998.011739,0.006818346,-0.045370158,-0.004735183,0.000506334,0.000541091,0.000940004,0.438312143,0.052715044,9.805154800
1784149998.013742,0.006817507,-0.045369733,-0.004735186,0.000546375,0.000007471,0.000852664,0.420053005,0.064168870,9.802520752
1784149998.015742,0.006817507,-0.045369733,-0.004735186,0.000760605,-0.000004835,0.000719222,0.428844780,0.085615829,9.795045853
1784149998.017745,0.006818914,-0.045368060,-0.004735198,0.000542007,0.000440553,0.000569791,0.442796916,0.088608295,9.790146828
1784149998.019742,0.006818914,-0.045368060,-0.004735198,-0.000344224,0.000448092,0.000584374,0.438617080,0.112569891,9.767430305
1784149998.021744,0.006818914,-0.045368060,-0.004735198,-0.000340670,0.000407266,0.001137325,0.456661671,0.083616965,9.773987770
1784149998.023758,0.006820377,-0.045368545,-0.004735194,0.000460594,0.000639565,0.001434563,0.444316059,0.065335840,9.783720016
1784149998.025758,0.006820377,-0.045368545,-0.004735194,0.000157624,0.000518786,0.000601067,0.459050715,0.058900103,9.780107498
1784149998.027756,0.006820381,-0.045369286,-0.004735189,-0.000395661,-0.000283923,-0.000281413,0.420554072,0.067413308,9.786401749
1784149998.029757,0.006820381,-0.045369286,-0.004735189,-0.000347890,-0.000893983,-0.000526575,0.416975766,0.066738270,9.761735916
1784149998.031755,0.006820381,-0.045369286,-0.004735189,-0.000868327,-0.000916555,-0.001010586,0.431246996,0.060597256,9.780540466
1784149998.033757,0.006819048,-0.045368455,-0.004735195,-0.001300486,-0.000824320,-0.001380714,0.410027206,0.088103458,9.794145584
1784149998.035764,0.006819048,-0.045368455,-0.004735195,-0.000623096,-0.000720803,-0.000511305,0.444231182,0.060207952,9.811934471
1784149998.037761,0.006818525,-0.045368802,-0.004735192,0.000177309,-0.000597249,0.000537998,0.442936152,0.065086007,9.821377754
1784149998.039764,0.006818525,-0.045368802,-0.004735192,0.000330202,-0.000370631,0.000327684,0.457703620,0.096904404,9.793799400
1784149998.041767,0.006818525,-0.045368802,-0.004735192,0.000411318,0.000264865,-0.000165939,0.434345216,0.092946313,9.762368202
1784149998.043773,0.006820028,-0.045368895,-0.004735191,0.000503167,0.000456260,-0.000328429,0.437934399,0.095733993,9.804982185
1784149998.045775,0.006820028,-0.045368895,-0.004735191,0.000651575,-0.000320493,-0.000885020,0.431615740,0.057528544,9.833423615
1784149998.047775,0.006819318,-0.045368101,-0.004735197,0.000577964,-0.000974275,-0.001309321,0.435643971,0.054560464,9.802474022
1784149998.049772,0.006819318,-0.045368101,-0.004735197,0.000225870,-0.000584586,-0.001415500,0.454276115,0.074419402,9.811585426
1784149998.051771,0.006819318,-0.045368101,-0.004735197,0.000263385,0.000180778,-0.001273078,0.467726916,0.071734041,9.786923409
1784149998.053776,0.006819307,-0.045368534,-0.004735194,0.000553867,0.000032425,-0.000992323,0.444943726,0.079305917,9.771257401
1784149998.055773,0.006819307,-0.045368534,-0.004735194,0.000417620,-0.000520550,-0.001007448,0.458471179,0.084115066,9.763680458
1784149998.057774,0.006819901,-0.045368966,-0.004735191,0.000054735,-0.000183683,-0.000834246,0.465928346,0.108101688,9.779532433
1784149998.059780,0.006819901,-0.045368966,-0.004735191,0.000084715,0.000491524,-0.000867675,0.452486902,0.110050112,9.781774521
1784149998.061783,0.006819901,-0.045368966,-0.004735191,0.000208341,0.000282663,-0.001274858,0.427620471,0.058730580,9.797561646
1784149998.063779,0.006819915,-0.045368459,-0.004735195,0.000096299,-0.000103071,-0.001284279,0.406644046,0.067994989,9.792669296
1784149998.065784,0.006819915,-0.045368459,-0.004735195,0.000055362,0.000099584,-0.000981503,0.440321177,0.069377899,9.789571762
1784149998.067780,0.006819787,-0.045368433,-0.004735195,0.000133020,0.000138504,-0.000833576,0.441202521,0.068429142,9.795395851
1784149998.069782,0.006819787,-0.045368433,-0.004735195,0.000330783,-0.000140983,-0.000673148,0.457844734,0.072181292,9.804850578
1784149998.071782,0.006819787,-0.045368433,-0.004735195,0.000329717,-0.000326794,-0.000267580,0.443037927,0.072374210,9.804389000
1784149998.073793,0.006819996,-0.045368522,-0.004735195,0.000022307,-0.000404519,-0.000026450,0.457473636,0.078067772,9.796817780
1784149998.075791,0.006819996,-0.045368522,-0.004735195,0.000109046,-0.000140948,0.000223696,0.431000918,0.079223409,9.808008194
1784149998.077793,0.006820539,-0.045368098,-0.004735197,0.000140990,0.000606495,0.000878317,0.420948148,0.064544924,9.811041832
1784149998.079790,0.006820539,-0.045368098,-0.004735197,-0.000013625,0.001230338,0.000470821,0.442622453,0.073857382,9.785567284
1784149998.081789,0.006820539,-0.045368098,-0.004735197,-0.000019645,0.001433876,-0.000188299,0.443819314,0.060909666,9.776968002
1784149998.083798,0.006820753,-0.045368586,-0.004735194,0.000293378,0.001033219,0.000231575,0.452210248,0.049607776,9.776006699
1784149998.085835,0.006820753,-0.045368586,-0.004735194,0.000895254,0.000109887,0.000119333,0.448689938,0.055874348,9.783216476
1784149998.087799,0.006820302,-0.045368668,-0.004735193,0.000975053,-0.000358900,-0.000286801,0.439807385,0.064411566,9.795816422
1784149998.089802,0.006820302,-0.045368668,-0.004735193,0.000619807,-0.000392176,-0.000220569,0.459124088,0.065152474,9.782837868
1784149998.091798,0.006820302,-0.045368668,-0.004735193,0.000323644,-0.000559123,-0.000317588,0.445396364,0.080952108,9.790996552
1784149998.093806,0.006821257,-0.045368373,-0.004735195,0.000344204,-0.000662523,-0.000839084,0.468421221,0.091499001,9.778532028
1784149998.095801,0.006821257,-0.045368373,-0.004735195,0.000291629,-0.000269917,-0.001090126,0.447564781,0.074251644,9.784230232
1784149998.097809,0.006821476,-0.045368742,-0.004735193,-0.000021114,-0.000164260,-0.000732894,0.448047459,0.077756442,9.794565201
1784149998.099808,0.006821476,-0.045368742,-0.004735193,0.000015707,-0.000736898,-0.000674423,0.445292294,0.073241383,9.804395676
1784149998.101809,0.006821476,-0.045368742,-0.004735193,-0.000025194,-0.000791573,-0.000918744,0.438095391,0.072383389,9.812006950
1784149998.103810,0.006821755,-0.045367926,-0.004735198,-0.000505070,-0.000506660,-0.000427719,0.447666109,0.083156817,9.791908264
1784149998.105810,0.006821755,-0.045367926,-0.004735198,-0.000951057,-0.000645915,0.000884649,0.456652761,0.084357090,9.795960426
1784149998.107817,0.006823178,-0.045369409,-0.004735188,-0.000970831,-0.001123875,0.001062854,0.422916025,0.076829910,9.781085014
1784149998.109819,0.006823178,-0.045369409,-0.004735188,-0.000667505,-0.000801441,-0.000120866,0.445353478,0.077371590,9.790524483
1784149998.111815,0.006823178,-0.045369409,-0.004735188,-0.000278385,-0.000011938,-0.000727112,0.460305005,0.052484211,9.798001289
1784149998.113819,0.006823163,-0.045369282,-0.004735189,-0.000146180,-0.000012133,-0.001009735,0.459816307,0.048121642,9.782280922
1784149998.115821,0.006823163,-0.045369282,-0.004735189,-0.000322574,-0.000188219,-0.001397554,0.475429267,0.043955158,9.836069107
1784149998.117823,0.006822446,-0.045371447,-0.004735174,-0.000520299,0.000094689,-0.001100238,0.477528274,0.066190690,9.792725563
1784149998.119819,0.006822446,-0.045371447,-0.004735174,-0.000179730,0.000024021,-0.000631692,0.452473193,0.072352029,9.790498734
1784149998.121829,0.006822446,-0.045371447,-0.004735174,0.000173556,-0.000387028,-0.000544924,0.433258116,0.080112837,9.804877281
1784149998.123831,0.006822842,-0.045370370,-0.004735182,0.000052164,-0.000540056,-0.000210722,0.445096314,0.092668436,9.782104492
1784149998.125830,0.006822842,-0.045370370,-0.004735182,0.000127353,-0.000510965,0.000304560,0.433381736,0.089599527,9.793730736
1784149998.127833,0.006824366,-0.045369826,-0.004735185,0.000061096,0.000033176,0.000736815,0.420762241,0.084861539,9.789652824
1784149998.129836,0.006824366,-0.045369826,-0.004735185,-0.000041236,0.000430604,0.000979420,0.426076919,0.078568794,9.782892227
1784149998.131834,0.006824366,-0.045369826,-0.004735185,0.000064469,0.000664295,0.001138079,0.450758904,0.079494722,9.797267914
1784149998.133862,0.006825379,-0.045370206,-0.004735183,-0.000164163,0.000999714,0.001272147,0.457091480,0.045061737,9.776431084
1784149998.135840,0.006825379,-0.045370206,-0.004735183,-0.000802600,0.000999487,0.000988614,0.464209378,0.040432904,9.784478188
1784149998.137836,0.006824852,-0.045371383,-0.004735175,-0.001413299,0.000770886,0.000130693,0.434188515,0.080362082,9.768116951
1784149998.139839,0.006824852,-0.045371383,-0.004735175,-0.001227317,0.000382667,-0.000675043,0.451483876,0.064748205,9.790450096
1784149998.141841,0.006824852,-0.045371383,-0.004735175,-0.000988816,-0.000265226,-0.000614019,0.423591137,0.060068969,9.805635452
1784149998.143851,0.006824657,-0.045370679,-0.004735180,-0.001502607,-0.000731124,-0.000354001,0.436327755,0.073026046,9.787798882
1784149998.145843,0.006824657,-0.045370679,-0.004735180,-0.001420431,-0.000661466,-0.000161576,0.439851433,0.068001606,9.794942856
1784149998.147844,0.006824314,-0.045370366,-0.004735182,-0.000202259,-0.000357539,0.000685876,0.449168116,0.058127478,9.780543327
1784149998.149846,0.006824314,-0.045370366,-0.004735182,0.000447170,-0.000508671,0.000831434,0.457362950,0.069899559,9.811559677
1784149998.151846,0.006824314,-0.045370366,-0.004735182,0.000089643,-0.000589710,0.000593330,0.465926349,0.073332667,9.817418098
1784149998.153853,0.006824572,-0.045371391,-0.004735175,-0.000237889,-0.000074595,0.000838157,0.445980608,0.055368677,9.796213150
1784149998.155852,0.006824572,-0.045371391,-0.004735175,-0.000443777,-0.000076015,0.000743688,0.451692253,0.080982901,9.775310516
1784149998.157859,0.006825785,-0.045372248,-0.004735169,-0.000702133,0.000011902,0.001036227,0.458434373,0.082609028,9.786536217
1784149998.159857,0.006825785,-0.045372248,-0.004735169,-0.000974568,0.000740170,0.001686149,0.455326915,0.050186817,9.815017700
1784149998.161858,0.006825785,-0.045372248,-0.004735169,-0.000994925,0.000946902,0.001815105,0.438974619,0.070202030,9.802129745
1784149998.163862,0.006825253,-0.045371767,-0.004735172,-0.000885473,0.000827837,0.001636966,0.435942590,0.077991158,9.783346176
1784149998.165892,0.006825253,-0.045371767,-0.004735172,-0.000572828,0.000488149,0.001253429,0.438777030,0.054863252,9.817273140
1784149998.167869,0.006824763,-0.045371652,-0.004735173,-0.000508129,0.000171558,0.000792864,0.448480368,0.076409996,9.794107437
1784149998.169867,0.006824763,-0.045371652,-0.004735173,-0.000996015,0.000735559,0.000966375,0.446808577,0.086319931,9.789687157
1784149998.171905,0.006824763,-0.045371652,-0.004735173,-0.000844022,0.001231506,0.001003798,0.456174642,0.080483817,9.774415970
1784149998.173886,0.006825580,-0.045372479,-0.004735167,-0.000031556,0.001139125,0.000397833,0.444217414,0.056046300,9.767073631
1784149998.175876,0.006825580,-0.045372479,-0.004735167,0.000181279,0.001165024,0.000100726,0.441389292,0.048118882,9.815889359
1784149998.177877,0.006825103,-0.045372464,-0.004735167,-0.000043668,0.001274664,0.000425743,0.455175668,0.072803661,9.785125732
1784149998.179877,0.006825103,-0.045372464,-0.004735167,0.000244403,0.001279548,0.000355934,0.451640546,0.077332459,9.784702301
1784149998.181882,0.006825103,-0.045372464,-0.004735167,0.000492759,0.001428676,-0.000018982,0.429108262,0.069963232,9.790461540
1784149998.183874,0.006825743,-0.045371801,-0.004735172,0.000077498,0.001649857,0.000014457,0.430368483,0.061568271,9.771579742
1784149998.185880,0.006825743,-0.045371801,-0.004735172,0.000024044,0.001430427,0.000019040,0.459201664,0.070223130,9.762695312
1784149998.187878,0.006825772,-0.045372523,-0.004735167,0.000414395,0.000816629,-0.000087779,0.449163675,0.057282433,9.773362160
1784149998.189883,0.006825772,-0.045372523,-0.004735167,0.000589179,0.000350342,0.000213212,0.436438650,0.046037704,9.802420616
1784149998.191963,0.006825772,-0.045372523,-0.004735167,0.000858739,-0.000259536,0.000214579,0.432239324,0.069440052,9.795392990
1784149998.193903,0.006826247,-0.045371503,-0.004735174,0.000855462,-0.000913679,-0.000435777,0.445252597,0.067659542,9.770287514
1784149998.195896,0.006826247,-0.045371503,-0.004735174,0.000641341,-0.000867062,-0.000726457,0.450427413,0.051346302,9.786776543
1784149998.197892,0.006825836,-0.045371357,-0.004735175,0.000563436,-0.000294190,-0.000898985,0.473143876,0.073542744,9.774835587
1784149998.199892,0.006825836,-0.045371357,-0.004735175,0.000795539,0.000101475,-0.000934072,0.454752117,0.076250009,9.805321693
1784149998.201895,0.006825836,-0.045371357,-0.004735175,0.001121337,-0.000099838,-0.000655231,0.443122268,0.079929128,9.812954903
1784149998.203897,0.006826743,-0.045371588,-0.004735173,0.000816625,-0.000292320,-0.000832302,0.433297426,0.082044594,9.785163879
1784149998.205895,0.006826743,-0.045371588,-0.004735173,-0.000161631,-0.000224072,-0.001340425,0.428259760,0.073602937,9.784207344
1784149998.207896,0.006826744,-0.045370832,-0.004735177,-0.000516940,-0.000504073,-0.001404976,0.461883545,0.071322672,9.792294502
1784149998.209895,0.006826744,-0.045370832,-0.004735177,0.000072300,-0.000756404,-0.000927419,0.438860655,0.060791679,9.802516937
1784149998.211896,0.006826744,-0.045370832,-0.004735177,0.000145384,-0.000432517,-0.000559210,0.455984026,0.066415787,9.799879074
1784149998.213898,0.006827416,-0.045371350,-0.004735174,-0.000180218,-0.000085374,-0.000146542,0.433844417,0.053735238,9.795742035
1784149998.215900,0.006827416,-0.045371350,-0.004735174,-0.000346593,0.000005423,0.000044982,0.439670414,0.051983122,9.779596329
1784149998.217898,0.006827089,-0.045371596,-0.004735172,-0.000098556,0.000524651,-0.000967700,0.453507960,0.044345357,9.757592201
1784149998.219908,0.006827089,-0.045371596,-0.004735172,0.000515151,0.000843461,-0.001578709,0.471854150,0.079678826,9.796394348
1784149998.221910,0.006827089,-0.045371596,-0.004735172,0.000571881,0.000300087,-0.001072018,0.452368289,0.063418254,9.786856651
1784149998.223906,0.006827386,-0.045372900,-0.004735163,0.000483316,-0.000382895,-0.000614446,0.453232437,0.060712628,9.787735939
1784149998.225906,0.006827386,-0.045372900,-0.004735163,0.000872581,-0.000793234,-0.000622888,0.456664741,0.047672588,9.788104057
1784149998.227908,0.006826005,-0.045374200,-0.004735154,0.001014035,-0.000909200,-0.000862917,0.448849022,0.068477675,9.774779320
1784149998.229909,0.006826005,-0.045374200,-0.004735154,0.000431931,-0.000841523,-0.001164379,0.449129492,0.056202095,9.799359322
1784149998.231912,0.006826005,-0.045374200,-0.004735154,-0.000423496,-0.000483577,-0.001058025,0.437125921,0.100905173,9.772286415
1784149998.233917,0.006827399,-0.045375120,-0.004735148,-0.000716928,0.000187167,-0.000905531,0.436498225,0.087745167,9.796859741
1784149998.235917,0.006827399,-0.045375120,-0.004735148,0.000137163,0.000667270,-0.001280191,0.427946419,0.047624364,9.783592224
1784149998.237923,0.006826556,-0.045374300,-0.004735154,0.001462262,0.000916347,-0.001047120,0.435798109,0.065908946,9.781475067
1784149998.239920,0.006826556,-0.045374300,-0.004735154,0.001719804,0.000818548,-0.001060529,0.452267855,0.055736139,9.796220779
1784149998.241922,0.006826556,-0.045374300,-0.004735154,0.001143195,0.000253004,-0.001308938,0.461700946,0.054481376,9.766632080
1784149998.243933,0.006825886,-0.045375675,-0.004735144,0.000885245,-0.000092282,-0.000911615,0.439085603,0.041593555,9.792531013
1784149998.245930,0.006825886,-0.045375675,-0.004735144,0.000776582,0.000233071,-0.000907659,0.446906030,0.058009952,9.801161766
1784149998.247924,0.006826154,-0.045376822,-0.004735137,0.000322262,0.000870668,-0.000993399,0.459140152,0.068116508,9.807066917
1784149998.249926,0.006826154,-0.045376822,-0.004735137,0.000240696,0.001200490,-0.000081417,0.431848228,0.037174139,9.796978951
1784149998.251929,0.006826154,-0.045376822,-0.004735137,0.000843797,0.000927205,0.000978284,0.448793858,0.064395145,9.781927109
1784149998.253940,0.006826530,-0.045376066,-0.004735142,0.001121612,0.000627845,0.000774652,0.466273397,0.062798418,9.785966873
1784149998.255931,0.006826530,-0.045376066,-0.004735142,0.000908262,0.000309461,0.000101586,0.449470103,0.084017009,9.793708801
1784149998.257938,0.006827366,-0.045376036,-0.004735142,0.000313170,-0.000352486,0.000059466,0.464608073,0.111159265,9.793002129
1784149998.259932,0.006827366,-0.045376036,-0.004735142,-0.000514065,-0.000400141,0.000301354,0.458665043,0.103072144,9.806841850
1784149998.261934,0.006827366,-0.045376036,-0.004735142,-0.000445141,-0.000172886,0.000606457,0.444981873,0.084064968,9.795050621
1784149998.263936,0.006829562,-0.045376424,-0.004735139,0.000199154,-0.000247728,0.000828325,0.412772179,0.053732373,9.771062851
1784149998.265939,0.006829562,-0.045376424,-0.004735139,0.000454014,-0.000171175,0.000539048,0.418453485,0.077891432,9.765844345
1784149998.267939,0.006829190,-0.045375355,-0.004735146,0.000910325,-0.000172212,0.000310375,0.434622884,0.042248446,9.771459579
1784149998.269959,0.006829190,-0.045375355,-0.004735146,0.001512004,-0.000303304,0.000378163,0.436969668,0.052760910,9.801117897
1784149998.271983,0.006829190,-0.045375355,-0.004735146,0.001917043,-0.000163569,0.000284390,0.481435478,0.055378340,9.794004440
1784149998.273978,0.006828749,-0.045377217,-0.004735134,0.001982148,0.000373681,0.000055672,0.470075786,0.080642246,9.790120125
1784149998.275976,0.006828749,-0.045377217,-0.004735134,0.001753706,0.000406061,0.000211547,0.424598187,0.067812718,9.785959244
1784149998.277963,0.006828221,-0.045375824,-0.004735143,0.001490760,-0.000057501,0.000683269,0.419455707,0.050843891,9.787191391
1784149998.279955,0.006828221,-0.045375824,-0.004735143,0.000705125,-0.000259812,0.000539325,0.435812652,0.066023402,9.765336990
1784149998.281962,0.006828221,-0.045375824,-0.004735143,0.000206764,-0.000333781,0.000073954,0.442677200,0.041563448,9.790292740
1784149998.283965,0.006827267,-0.045375519,-0.004735146,0.000567837,-0.000253030,-0.000010438,0.460320443,0.053821735,9.798905373
1784149998.285966,0.006827267,-0.045375519,-0.004735146,0.001317629,-0.000237996,0.000343804,0.458788812,0.038595583,9.800601006
1784149998.287960,0.006825664,-0.045375496,-0.004735146,0.001375376,-0.000240109,0.000655173,0.440652370,0.058313023,9.769774437
1784149998.289963,0.006825664,-0.045375496,-0.004735146,0.000642374,-0.000087305,0.000556697,0.460828096,0.057523679,9.781445503
1784149998.291970,0.006825664,-0.045375496,-0.004735146,0.000018382,0.000130985,0.000810344,0.455403924,0.091220945,9.778069496
1784149998.293967,0.006826893,-0.045376662,-0.004735138,-0.000294306,0.000053933,0.001084293,0.442172170,0.073040351,9.775250435
1784149998.295964,0.006826893,-0.045376662,-0.004735138,-0.000454717,-0.000505575,0.001064542,0.409877390,0.112353161,9.786680222
1784149998.297969,0.006829200,-0.045374934,-0.004735150,-0.000607711,-0.000860221,0.001285065,0.436366737,0.076981388,9.798583031
1784149998.299967,0.006829200,-0.045374934,-0.004735150,-0.000187630,-0.000475783,0.001359881,0.422399700,0.072654560,9.802127838
1784149998.301968,0.006829200,-0.045374934,-0.004735150,0.000065092,-0.000245273,0.000782209,0.451966584,0.065416157,9.758624077
1784149998.303974,0.006828986,-0.045375034,-0.004735149,-0.000428812,-0.000985784,-0.000005794,0.490636289,0.072047777,9.764531136
1784149998.305985,0.006828986,-0.045375034,-0.004735149,-0.000987704,-0.001558647,-0.000652555,0.467041492,0.088008873,9.767748833
1784149998.307976,0.006829587,-0.045375671,-0.004735144,-0.001045583,-0.001439984,-0.001084069,0.439413249,0.067279957,9.771177292
1784149998.309982,0.006829587,-0.045375671,-0.004735144,-0.000800886,-0.001380276,-0.000477474,0.398823887,0.088765092,9.784276009
1784149998.311982,0.006829587,-0.045375671,-0.004735144,-0.000385950,-0.001195116,-0.000070513,0.427890033,0.079095505,9.768551826
1784149998.314010,0.006830068,-0.045374844,-0.004735150,0.000337354,-0.000736467,-0.000475595,0.436682761,0.064175539,9.771602631
1784149998.315989,0.006830068,-0.045374844,-0.004735150,0.000795203,-0.000043277,-0.000498025,0.453772932,0.067105532,9.769843102
1784149998.318003,0.006829916,-0.045375269,-0.004735147,0.000680180,0.000825308,-0.000314481,0.459121048,0.064723596,9.780145645
1784149998.319994,0.006829916,-0.045375269,-0.004735147,0.000482256,0.000972319,-0.000021193,0.446736246,0.042890579,9.785373688
1784149998.321990,0.006829916,-0.045375269,-0.004735147,0.000424026,0.000699619,0.000334899,0.426658452,0.089742996,9.785654068
1784149998.323992,0.006830345,-0.045374338,-0.004735154,0.000075447,0.000699818,0.000992069,0.425703347,0.085246272,9.789660454
1784149998.325988,0.006830345,-0.045374338,-0.004735154,-0.000427873,0.001027191,0.001381979,0.452615499,0.083201677,9.776671410
1784149998.327991,0.006831091,-0.045375075,-0.004735148,-0.000554886,0.001467395,0.000638576,0.458773881,0.074041143,9.793654442
1784149998.329993,0.006831091,-0.045375075,-0.004735148,-0.000507025,0.001425695,0.000239633,0.429974407,0.104863480,9.795618057
1784149998.331990,0.006831091,-0.045375075,-0.004735148,-0.000913192,0.000874333,0.000559165,0.423381507,0.078577854,9.786476135
1784149998.333993,0.006831638,-0.045373883,-0.004735157,-0.001462493,0.000404625,0.000592590,0.441760242,0.077388972,9.794555664
1784149998.335998,0.006831638,-0.045373883,-0.004735157,-0.001675056,0.000602836,0.000223108,0.465005100,0.068292961,9.771656036
1784149998.337996,0.006832628,-0.045375653,-0.004735145,-0.001520760,0.000906000,-0.000062732,0.452018529,0.071500026,9.785114288
1784149998.339999,0.006832628,-0.045375653,-0.004735145,-0.000729291,0.000416675,-0.000129426,0.419550389,0.095664822,9.784789085
1784149998.342004,0.006832628,-0.045375653,-0.004735145,-0.000083106,-0.000139974,0.000055656,0.471767902,0.071297929,9.777957916
1784149998.344008,0.006833547,-0.045377713,-0.004735131,0.000103497,-0.000056778,0.000246914,0.453166157,0.054110859,9.771104813
1784149998.346002,0.006833547,-0.045377713,-0.004735131,0.000026885,0.000244870,-0.000388980,0.448930085,0.076007165,9.786932945
1784149998.348004,0.006834729,-0.045377526,-0.004735133,-0.000245529,0.000432837,-0.001159623,0.440386951,0.074759789,9.788709641
1784149998.350007,0.006834729,-0.045377526,-0.004735133,0.000076269,0.000221288,-0.001577730,0.441601127,0.061948813,9.760831833
1784149998.352011,0.006834729,-0.045377526,-0.004735133,0.000453770,-0.000008354,-0.001557577,0.420059741,0.063006230,9.776958466
1784149998.354006,0.006834528,-0.045376442,-0.004735139,0.000258299,-0.000154123,-0.001290798,0.435152143,0.049362380,9.778230667
1784149998.356008,0.006834528,-0.045376442,-0.004735139,0.000279958,-0.000153645,-0.001167804,0.435590208,0.086457297,9.790573120
1784149998.358010,0.006836066,-0.045375600,-0.004735145,0.000568380,-0.000100025,-0.001438511,0.468566269,0.069237903,9.821429253
1784149998.360028,0.006836066,-0.045375600,-0.004735145,0.000451138,-0.000254871,-0.001727578,0.448543698,0.080962740,9.783825874
1784149998.362019,0.006836066,-0.045375600,-0.004735145,-0.000071017,-0.000492723,-0.001325789,0.444486707,0.079651512,9.786502838
1784149998.364020,0.006836584,-0.045375470,-0.004735146,-0.000545200,-0.000901188,-0.000673513,0.462796658,0.074272014,9.816972733
1784149998.366018,0.006836584,-0.045375470,-0.004735146,-0.000182551,-0.001058739,-0.000792142,0.447806776,0.093993731,9.779873848
1784149998.368020,0.006838102,-0.045374800,-0.004735151,0.000555425,-0.000889085,-0.001128949,0.455974489,0.064719327,9.786418915
1784149998.370020,0.006838102,-0.045374800,-0.004735151,0.000347360,-0.001083763,-0.000998180,0.437408954,0.089865379,9.812117577
1784149998.372030,0.006838102,-0.045374800,-0.004735151,-0.000021618,-0.001346910,-0.001283025,0.443993211,0.075250797,9.776164055
1784149998.374049,0.006838484,-0.045374569,-0.004735153,0.000022070,-0.001161340,-0.001921177,0.433771938,0.046679150,9.780004501
1784149998.376036,0.006838484,-0.045374569,-0.004735153,-0.000377517,-0.000752621,-0.002204708,0.443140656,0.042078804,9.779984474
1784149998.378036,0.006837351,-0.045374274,-0.004735155,-0.001159207,-0.000508340,-0.001636106,0.432359308,0.042118210,9.793871880
1784149998.380034,0.006837351,-0.045374274,-0.004735155,-0.000970824,-0.000429880,-0.001004614,0.469433159,0.064527772,9.789120674
1784149998.382043,0.006837351,-0.045374274,-0.004735155,0.000180112,-0.000345441,-0.000903853,0.450253367,0.074188530,9.788267136
1784149998.384037,0.006837362,-0.045375120,-0.004735148,0.000514307,-0.000115945,-0.000920573,0.432042599,0.090887517,9.804047585
1784149998.386156,0.006837362,-0.045375120,-0.004735148,-0.000068602,0.000633690,-0.000533682,0.458234370,0.102004275,9.768726349
1784149998.388074,0.006838564,-0.045375288,-0.004735148,-0.000552510,0.000817569,0.000215399,0.423078835,0.090678550,9.786553383
1784149998.390087,0.006838564,-0.045375288,-0.004735148,-0.000821672,0.000215091,0.000359986,0.435197651,0.090148501,9.776249886
1784149998.392056,0.006838564,-0.045375288,-0.004735148,-0.000708129,-0.000098826,0.000087417,0.427236587,0.062895164,9.779654503
1784149998.394074,0.006838125,-0.045373704,-0.004735159,-0.000337078,-0.000350501,0.000196063,0.438820750,0.054803211,9.762576103
1784149998.396056,0.006838125,-0.045373704,-0.004735159,-0.000445591,-0.000510100,0.000003965,0.416808158,0.054878242,9.791698456
1784149998.398054,0.006838347,-0.045372333,-0.004735169,-0.000629735,-0.000441588,-0.000730824,0.447614223,0.079099722,9.795470238
1784149998.400055,0.006838347,-0.045372333,-0.004735169,-0.000857184,-0.000573098,-0.000870130,0.449778885,0.071153939,9.774797440
1784149998.402054,0.006838347,-0.045372333,-0.004735169,-0.001061009,-0.000796034,-0.000719656,0.453547060,0.050327461,9.798428535
1784149998.404057,0.006837585,-0.045372516,-0.004735167,-0.000500542,-0.000711219,-0.001076880,0.463903338,0.052101541,9.782309532
1784149998.406060,0.006837585,-0.045372516,-0.004735167,0.000167341,-0.000093149,-0.001514121,0.476295918,0.037621703,9.779987335
1784149998.408076,0.006836388,-0.045373667,-0.004735159,0.000092082,0.000289730,-0.001599241,0.437296271,0.078844413,9.786940575
1784149998.410069,0.006836388,-0.045373667,-0.004735159,-0.000116001,-0.000116763,-0.001159861,0.459573507,0.065963157,9.794052124
1784149998.412063,0.006836388,-0.045373667,-0.004735159,0.000109779,-0.000492829,-0.000207810,0.461937994,0.075805448,9.791875839
1784149998.414062,0.006837373,-0.045374576,-0.004735153,0.000423679,-0.000318642,0.000524587,0.451036781,0.064766668,9.788656235
1784149998.416061,0.006837373,-0.045374576,-0.004735153,0.000097269,0.000107979,0.000120224,0.422886580,0.074571021,9.783761024
1784149998.418061,0.006838195,-0.045373298,-0.004735162,-0.000443487,0.000748235,-0.000534032,0.458998084,0.056863423,9.814616203
1784149998.420063,0.006838195,-0.045373298,-0.004735162,-0.000276125,0.001508280,0.000020831,0.422558814,0.085257895,9.793692589
1784149998.422073,0.006838195,-0.045373298,-0.004735162,-0.000033193,0.001591464,0.000621183,0.423959851,0.088916548,9.780714035
1784149998.424078,0.006839485,-0.045372695,-0.004735165,-0.000114546,0.001028971,0.000386734,0.422005475,0.077143110,9.801709175
1784149998.426075,0.006839485,-0.045372695,-0.004735165,-0.000244874,0.000798188,0.000505654,0.427394629,0.075895563,9.778393745
1784149998.428125,0.006840286,-0.045372427,-0.004735167,-0.000427940,0.000899344,0.000864423,0.443198860,0.085396878,9.799989700
1784149998.430132,0.006840286,-0.045372427,-0.004735167,-0.000291516,0.000739014,0.000655561,0.450346351,0.081406772,9.781141281
1784149998.432105,0.006840286,-0.045372427,-0.004735167,0.000080292,0.000709937,0.000396017,0.445757419,0.072149292,9.768074036
1784149998.434110,0.006840586,-0.045372497,-0.004735167,0.000065585,0.001033820,0.000208411,0.425200552,0.043182425,9.783113480
1784149998.436089,0.006840586,-0.045372497,-0.004735167,-0.000511002,0.000736997,-0.000112643,0.459811509,0.048083477,9.787660599
1784149998.438097,0.006839403,-0.045373600,-0.004735159,-0.001062380,0.000002417,-0.000710661,0.435897231,0.037611686,9.791156769
1784149998.440091,0.006839403,-0.045373600,-0.004735159,-0.001133318,-0.000085196,-0.001323810,0.435317695,0.064043343,9.792671204
1784149998.442120,0.006839403,-0.045373600,-0.004735159,-0.001020901,0.000202773,-0.000721257,0.459710479,0.078391604,9.810271263
1784149998.444117,0.006839917,-0.045373518,-0.004735160,-0.000777272,0.000495828,0.000530750,0.451095849,0.069691055,9.789134979
1784149998.446126,0.006839917,-0.045373518,-0.004735160,-0.000286678,0.001175689,0.001157090,0.467907280,0.085315958,9.766836166
1784149998.448095,0.006841241,-0.045374800,-0.004735151,0.000303211,0.001434463,0.001612424,0.435611248,0.051059440,9.790796280
1784149998.450086,0.006841241,-0.045374800,-0.004735151,0.000560133,0.000653991,0.001757939,0.449031025,0.084909156,9.795059204
1784149998.452096,0.006841241,-0.045374800,-0.004735151,0.000654086,-0.000165780,0.001898500,0.452244282,0.092735067,9.822910309
1784149998.454096,0.006842621,-0.045374598,-0.004735152,0.000816935,-0.000421233,0.001876589,0.449478894,0.084897034,9.795956612
1784149998.456098,0.006842621,-0.045374598,-0.004735152,0.000400060,-0.000146482,0.001031961,0.414083421,0.053035036,9.803789139
1784149998.458095,0.006841943,-0.045372922,-0.004735163,-0.000331599,0.000598483,0.000382910,0.462005675,0.082013316,9.800881386
1784149998.460099,0.006841943,-0.045372922,-0.004735163,-0.000592573,0.001332921,0.000453138,0.435101211,0.045718279,9.786725044
1784149998.462096,0.006841943,-0.045372922,-0.004735163,-0.000100698,0.001322725,0.000159360,0.450341433,0.044588733,9.792113304
1784149998.464109,0.006841325,-0.045373000,-0.004735162,0.000346208,0.000994672,-0.000760321,0.441179067,0.064191177,9.761294365
1784149998.466097,0.006841325,-0.045373000,-0.004735162,0.000073679,0.000793378,-0.000654811,0.484140843,0.055042151,9.773381233
1784149998.468106,0.006840587,-0.045375034,-0.004735148,-0.000271485,0.000538219,-0.000235801,0.427504927,0.048497424,9.787632942
1784149998.470104,0.006840587,-0.045375034,-0.004735148,-0.000358417,0.000337656,-0.000760761,0.462564141,0.088952735,9.769095421
1784149998.472110,0.006840587,-0.045375034,-0.004735148,-0.000316002,0.000043426,-0.000656447,0.432177752,0.062469814,9.767552376
1784149998.474117,0.006841264,-0.045375384,-0.004735146,0.000132169,0.000125810,0.000198089,0.418178678,0.054648321,9.758522034
1784149998.476123,0.006841264,-0.045375384,-0.004735146,0.001129847,0.000289351,0.000370957,0.425151527,0.038337529,9.771425247
1784149998.478115,0.006840362,-0.045374956,-0.004735149,0.001489882,-0.000108316,0.000294858,0.441726118,0.037908595,9.801925659
1784149998.480116,0.006840362,-0.045374956,-0.004735149,0.001153877,-0.000483327,0.000526824,0.439901203,0.070826106,9.775682449
1784149998.482112,0.006840362,-0.045374956,-0.004735149,0.001110401,-0.000612483,0.000335894,0.449164450,0.095688827,9.791093826
1784149998.484182,0.006841394,-0.045375161,-0.004735147,0.001300146,-0.000382538,-0.000198178,0.425225645,0.082186237,9.779777527
1784149998.486141,0.006841394,-0.045375161,-0.004735147,0.001514112,0.000142924,-0.000386560,0.428193122,0.069834821,9.810185432
1784149998.488168,0.006841453,-0.045374073,-0.004735155,0.001395326,0.000274809,-0.000218748,0.427128345,0.092335984,9.798224449
1784149998.490121,0.006841453,-0.045374073,-0.004735155,0.001055054,0.000284512,-0.000241797,0.441607356,0.062403128,9.759939194
1784149998.492126,0.006841453,-0.045374073,-0.004735155,0.000864202,0.000560621,-0.000202844,0.432468057,0.051487241,9.799312592
1784149998.494122,0.006840590,-0.045373376,-0.004735159,0.000687100,0.000652298,0.000131744,0.437997639,0.061480071,9.770241737
1784149998.496128,0.006840590,-0.045373376,-0.004735159,0.000361230,0.000743854,-0.000382863,0.463191330,0.031386614,9.798316956
1784149998.498124,0.006839138,-0.045373987,-0.004735155,0.000432312,0.000880108,-0.000901286,0.464896083,0.060137443,9.784604073
1784149998.500128,0.006839138,-0.045373987,-0.004735155,0.000533236,0.000738317,-0.000215159,0.458522171,0.054222737,9.808769226
1784149998.502129,0.006839138,-0.045373987,-0.004735155,-0.000065402,0.000266503,-0.000079481,0.416792899,0.091537304,9.803140640
1784149998.504138,0.006840100,-0.045372225,-0.004735168,-0.000861137,0.000001655,-0.000468171,0.455362767,0.088869840,9.793746948
1784149998.506133,0.006840100,-0.045372225,-0.004735168,-0.001638139,0.000094846,-0.000100182,0.433297276,0.081637979,9.779332161
1784149998.508132,0.006841166,-0.045372285,-0.004735168,-0.001951693,0.000070901,0.000023369,0.438380957,0.094495647,9.789281845
1784149998.510130,0.006841166,-0.045372285,-0.004735168,-0.001603220,-0.000166982,-0.000175766,0.474235386,0.089248039,9.769556046
1784149998.512140,0.006841166,-0.045372285,-0.004735168,-0.001150489,-0.000272417,0.000004793,0.436308920,0.072066531,9.796759605
1784149998.514136,0.006842015,-0.045371946,-0.004735169,-0.000566033,-0.000155529,0.000390537,0.423178017,0.060761154,9.772014618
1784149998.516146,0.006842015,-0.045371946,-0.004735169,0.000345951,-0.000238055,0.000743593,0.430134714,0.045133241,9.814961433
1784149998.518137,0.006841722,-0.045371559,-0.004735172,0.000740975,-0.000168059,0.000802518,0.437343150,0.044866748,9.776410103
1784149998.520143,0.006841722,-0.045371559,-0.004735172,0.000232475,-0.000215480,0.000681164,0.448408961,0.068956822,9.771195412
1784149998.522139,0.006841722,-0.045371559,-0.004735172,-0.000141970,-0.000522738,0.001042529,0.435760766,0.064803161,9.811058044
1784149998.524153,0.006841700,-0.045371216,-0.004735175,-0.000066089,-0.000247129,0.001435479,0.449817330,0.074699461,9.780200958
1784149998.526154,0.006841700,-0.045371216,-0.004735175,0.000028622,0.000154094,0.001253571,0.447065562,0.069806382,9.780166626
1784149998.528156,0.006841503,-0.045371372,-0.004735174,0.000202281,0.000120491,0.001245766,0.413976043,0.078835309,9.767190933
1784149998.530150,0.006841503,-0.045371372,-0.004735174,0.000141348,-0.000566499,0.001001418,0.450518340,0.059358727,9.794000626
1784149998.532153,0.006841503,-0.045371372,-0.004735174,-0.000517106,-0.001146243,0.000154078,0.440984964,0.050501160,9.796625137
1784149998.534151,0.006840957,-0.045371365,-0.004735174,-0.001513960,-0.000827251,-0.000098855,0.460269600,0.049367558,9.795290947
1784149998.536158,0.006840957,-0.045371365,-0.004735174,-0.002151107,-0.000599259,0.000276609,0.427142769,0.055670548,9.787678719
1784149998.538150,0.006840284,-0.045370910,-0.004735176,-0.002110494,-0.000494824,0.000911626,0.429915965,0.061948851,9.781892776
1784149998.540159,0.006840284,-0.045370910,-0.004735176,-0.001748506,0.000225533,0.001396398,0.448571593,0.047645703,9.806476593
1784149998.542160,0.006840284,-0.045370910,-0.004735176,-0.001826679,0.000705638,0.000828115,0.446252495,0.077372819,9.788732529
1784149998.544173,0.006839814,-0.045371391,-0.004735173,-0.001906989,0.000447100,-0.000148905,0.424613625,0.103903368,9.751221657
1784149998.546159,0.006839814,-0.045371391,-0.004735173,-0.000902650,0.000009988,-0.000318797,0.446947902,0.061177485,9.796699524
1784149998.548168,0.006839169,-0.045371052,-0.004735176,0.000173220,-0.000187821,-0.000170566,0.457215667,0.055768292,9.782775879
1784149998.550162,0.006839169,-0.045371052,-0.004735176,0.000559433,-0.000414644,-0.000551072,0.453655839,0.061723262,9.833920479
1784149998.552172,0.006839169,-0.045371052,-0.004735176,0.000780567,-0.001049536,-0.000451891,0.458281934,0.070463188,9.793630600
1784149998.554183,0.006839513,-0.045371030,-0.004735176,0.000980220,-0.001173800,0.000163861,0.458748072,0.071000800,9.780184746
1784149998.556171,0.006839513,-0.045371030,-0.004735176,0.000828931,-0.000288947,0.000581289,0.437415779,0.087082580,9.762333870
1784149998.558172,0.006840216,-0.045370735,-0.004735178,0.000532747,-0.000058088,0.001171610,0.425627738,0.077354670,9.765398979
1784149998.560178,0.006840216,-0.045370735,-0.004735178,0.000831536,-0.000900425,0.001109441,0.440314233,0.068107150,9.779252052
1784149998.562180,0.006840216,-0.045370735,-0.004735178,0.001398040,-0.001154183,0.000471001,0.445333213,0.075995907,9.794999123
1784149998.564183,0.006840936,-0.045370884,-0.004735176,0.001546690,-0.000652891,0.000117618,0.439731687,0.057330035,9.783665657
1784149998.566179,0.006840936,-0.045370884,-0.004735176,0.001328966,-0.000303185,0.000022044,0.440179288,0.058531448,9.802951813
1784149998.568185,0.006840324,-0.045370910,-0.004735176,0.001275734,-0.000284992,0.000185943,0.452595800,0.044645827,9.780010223
1784149998.570182,0.006840324,-0.045370910,-0.004735176,0.001506887,-0.000347864,0.000503916,0.457438111,0.072924353,9.764056206
1784149998.572184,0.006840324,-0.045370910,-0.004735176,0.001548011,-0.000516628,0.000463892,0.445891976,0.048995465,9.810518265
1784149998.574200,0.006840787,-0.045370847,-0.004735177,0.001000991,-0.000524357,0.000271993,0.445860296,0.044287290,9.779552460
1784149998.576199,0.006840787,-0.045370847,-0.004735177,-0.000010190,-0.000290721,0.000349179,0.444289714,0.064722545,9.807030678
1784149998.578189,0.006840850,-0.045370951,-0.004735176,-0.000818794,-0.000188862,-0.000064435,0.440168351,0.056418814,9.785005569
1784149998.580194,0.006840850,-0.045370951,-0.004735176,-0.000594281,-0.000193436,-0.000689827,0.444257975,0.060824431,9.788174629
1784149998.582191,0.006840850,-0.045370951,-0.004735176,0.000523035,-0.000515916,-0.000676334,0.468972176,0.064031512,9.796739578
1784149998.584199,0.006841245,-0.045371726,-0.004735171,0.001385679,-0.001185559,-0.000307813,0.459182233,0.034100685,9.801918030
1784149998.586193,0.006841245,-0.045371726,-0.004735171,0.001075800,-0.001448608,0.000177034,0.417990983,0.079409219,9.805307388
1784149998.588197,0.006842216,-0.045370430,-0.004735180,0.000207151,-0.000930449,0.000388758,0.484985679,0.124527000,9.766654968
1784149998.590195,0.006842216,-0.045370430,-0.004735180,0.000193446,-0.000250897,0.000094369,0.480162054,0.097611427,9.779928207
1784149998.592201,0.006842216,-0.045370430,-0.004735180,0.000898600,-0.000501640,-0.000105058,0.451274127,0.084877230,9.795510292
1784149998.594206,0.006843685,-0.045371491,-0.004735172,0.000935365,-0.001169236,0.000414119,0.447206557,0.082266636,9.791903496
1784149998.596211,0.006843685,-0.045371491,-0.004735172,0.000571400,-0.001055946,0.000560381,0.444901496,0.075325131,9.764059067
1784149998.598203,0.006842999,-0.045371145,-0.004735175,0.000782236,-0.000595916,-0.000088386,0.435460538,0.073276021,9.754174232
1784149998.600216,0.006842999,-0.045371145,-0.004735175,0.000897997,-0.000282143,0.000052577,0.462602496,0.055718377,9.780090332
1784149998.602211,0.006842999,-0.045371145,-0.004735175,0.000832298,-0.000468251,0.000531806,0.453471243,0.079619206,9.774854660
1784149998.604225,0.006843535,-0.045371454,-0.004735173,0.000943754,-0.001086766,0.000102254,0.445088774,0.056234755,9.802044868
1784149998.606344,0.006843535,-0.045371454,-0.004735173,0.000849746,-0.001066151,-0.000424945,0.444149256,0.053482171,9.812787056
1784149998.608233,0.006842866,-0.045371793,-0.004735171,0.000607050,-0.000367389,-0.000462487,0.439754993,0.060351297,9.799825668
1784149998.610216,0.006842866,-0.045371793,-0.004735171,0.000520276,0.000157242,-0.000254932,0.443814576,0.062088218,9.800288200
1784149998.612221,0.006842866,-0.045371793,-0.004735171,0.000343753,0.000230791,0.000526183,0.449693799,0.101182610,9.773645401
1784149998.614220,0.006844517,-0.045372233,-0.004735167,-0.000257763,0.000037150,0.001147244,0.446330935,0.084476613,9.797745705
1784149998.616227,0.006844517,-0.045372233,-0.004735167,-0.000804152,-0.000224538,0.000912867,0.449862599,0.081135891,9.820142746
1784149998.618224,0.006844880,-0.045372777,-0.004735163,-0.000387234,-0.000315414,0.000653718,0.445815563,0.078687467,9.793672562
1784149998.620229,0.006844880,-0.045372777,-0.004735163,0.000333113,-0.000331557,0.000375612,0.448164195,0.051219244,9.808741570
1784149998.622234,0.006844880,-0.045372777,-0.004735163,0.000425212,-0.000352999,-0.000423436,0.441778570,0.077128612,9.768104553
1784149998.624237,0.006845449,-0.045372732,-0.004735163,0.000201760,-0.000526262,-0.001205444,0.447589755,0.077285632,9.798596382
1784149998.626228,0.006845449,-0.045372732,-0.004735163,0.000395578,-0.000984075,-0.001162648,0.429961383,0.065955065,9.785505295
1784149998.628237,0.006845143,-0.045372363,-0.004735166,0.000593908,-0.000855759,-0.000226217,0.446595699,0.067213409,9.767596245
1784149998.630234,0.006845143,-0.045372363,-0.004735166,-0.000052186,-0.000233662,0.000764533,0.446435392,0.057437390,9.819539070
1784149998.632239,0.006845143,-0.045372363,-0.004735166,-0.001070564,-0.000348215,0.001103162,0.448734790,0.059470743,9.781447411
1784149998.634235,0.006844796,-0.045372605,-0.004735164,-0.001886468,-0.000732759,0.000680138,0.440148741,0.054642875,9.782752991
1784149998.636240,0.006844796,-0.045372605,-0.004735164,-0.002059191,-0.000565027,-0.000022005,0.423755944,0.071906738,9.778812408
1784149998.638239,0.006844439,-0.045371879,-0.004735170,-0.001732514,-0.000446386,-0.000749432,0.431960642,0.081324905,9.762741089
1784149998.640262,0.006844439,-0.045371879,-0.004735170,-0.001407062,-0.000595887,-0.001118064,0.427317977,0.071237899,9.803468704
1784149998.642252,0.006844439,-0.045371879,-0.004735170,-0.001278130,-0.000475285,-0.000464859,0.425118119,0.074853510,9.803043365
1784149998.644269,0.006845030,-0.045371521,-0.004735172,-0.000802807,-0.000142097,0.000428159,0.430065572,0.037292521,9.783528328
1784149998.646256,0.006845030,-0.045371521,-0.004735172,0.000127501,0.000563415,0.000901701,0.442646384,0.039698482,9.800593376
1784149998.648267,0.006844145,-0.045371734,-0.004735171,0.000660282,0.001078161,0.001372808,0.442912281,0.060034797,9.775616646
1784149998.650267,0.006844145,-0.045371734,-0.004735171,0.000766408,0.000501014,0.001908821,0.438998222,0.069983013,9.769848824
1784149998.652267,0.006844145,-0.045371734,-0.004735171,0.000715651,-0.000166940,0.001792269,0.434675694,0.083091795,9.761408806
1784149998.654266,0.006844596,-0.045371797,-0.004735171,0.000756650,-0.000307413,0.000897082,0.434368014,0.060804658,9.808789253
1784149998.656271,0.006844596,-0.045371797,-0.004735171,0.000696750,-0.000354670,0.000227060,0.425684363,0.083070062,9.780677795
1784149998.658271,0.006845418,-0.045370951,-0.004735176,0.000111315,-0.000224250,0.000226413,0.452184409,0.084967472,9.781165123
1784149998.660273,0.006845418,-0.045370951,-0.004735176,-0.000496874,-0.000094602,0.000767400,0.439858526,0.067652218,9.781043053
1784149998.662273,0.006845418,-0.045370951,-0.004735176,-0.000903839,-0.000018212,0.001107305,0.446154773,0.068496272,9.777018547
1784149998.664276,0.006844953,-0.045371238,-0.004735174,-0.000907355,0.000288702,0.000959647,0.443055749,0.071704037,9.772553444
1784149998.666271,0.006844953,-0.045371238,-0.004735174,-0.000332113,0.000364166,0.000509189,0.442159891,0.072538331,9.782869339
1784149998.668273,0.006844786,-0.045371287,-0.004735174,0.000105157,0.000314269,-0.000361075,0.456034064,0.068836831,9.774340630
1784149998.670276,0.006844786,-0.045371287,-0.004735174,0.000369531,0.000296170,-0.000940882,0.460784495,0.055963572,9.811921120
1784149998.672283,0.006844786,-0.045371287,-0.004735174,0.000214781,0.000014419,-0.000986226,0.453671038,0.060627397,9.798943520
1784149998.674289,0.006844099,-0.045371249,-0.004735175,-0.000606256,-0.000366398,-0.000497859,0.454092145,0.059998803,9.823597908
1784149998.676289,0.006844099,-0.045371249,-0.004735175,-0.000805481,-0.000487678,0.000112140,0.437438399,0.054534290,9.802923203
1784149998.678286,0.006843083,-0.045371030,-0.004735176,-0.000169670,-0.000347914,0.000143838,0.425558269,0.073564298,9.794515610
1784149998.680288,0.006843083,-0.045371030,-0.004735176,-0.000085980,-0.000276565,-0.000068516,0.430510461,0.077278323,9.830411911
1784149998.682291,0.006843083,-0.045371030,-0.004735176,-0.000425206,-0.000454040,-0.000261232,0.426614821,0.085346051,9.773969650
1784149998.684294,0.006843105,-0.045370754,-0.004735178,-0.000328757,-0.000534365,-0.000184183,0.448540241,0.043750778,9.787173271
1784149998.686338,0.006843105,-0.045370754,-0.004735178,0.000722527,0.000021201,0.000743413,0.460891843,0.062079605,9.770714760
1784149998.688298,0.006843323,-0.045371480,-0.004735173,0.001542265,0.000529465,0.002051633,0.471888036,0.081972696,9.788785934
1784149998.690291,0.006843323,-0.045371480,-0.004735173,0.001088933,0.000521161,0.002008030,0.462225288,0.062367231,9.790892601
1784149998.692370,0.006843323,-0.045371480,-0.004735173,0.000687132,0.000395314,0.001090945,0.426958352,0.076809965,9.776604652
1784149998.694314,0.006843925,-0.045370627,-0.004735179,0.000810116,0.000403828,0.000965632,0.470662326,0.091451183,9.781224251
1784149998.696311,0.006843925,-0.045370627,-0.004735179,0.000843586,0.000248310,0.000927507,0.460686624,0.084270366,9.800895691
1784149998.698319,0.006844054,-0.045369972,-0.004735183,0.000814254,0.000031918,0.000195054,0.452772260,0.097812697,9.800974846
1784149998.700307,0.006844054,-0.045369972,-0.004735183,0.001375799,0.000299200,-0.000208874,0.436052710,0.050186392,9.786755562
1784149998.702303,0.006844054,-0.045369972,-0.004735183,0.001818524,0.000312118,-0.000269418,0.433668673,0.074537985,9.768975258
1784149998.704306,0.006844695,-0.045369767,-0.004735184,0.001737839,-0.000108096,0.000008375,0.418726414,0.064745374,9.786831856
1784149998.706310,0.006844695,-0.045369767,-0.004735184,0.001827333,-0.000021495,0.000483945,0.438965112,0.067695506,9.776557922
1784149998.708313,0.006844494,-0.045369435,-0.004735186,0.001738549,0.000643094,-0.000123246,0.462231576,0.061201416,9.765779495
1784149998.710313,0.006844494,-0.045369435,-0.004735186,0.000695099,0.000798908,-0.001074414,0.460457295,0.064223409,9.785075188
1784149998.712311,0.006844494,-0.045369435,-0.004735186,-0.000706380,0.000284932,-0.001049772,0.437121987,0.064500108,9.788192749
1784149998.714313,0.006844322,-0.045369260,-0.004735188,-0.001095696,-0.000064179,-0.000398863,0.440275341,0.065368511,9.786408424
1784149998.716307,0.006844322,-0.045369260,-0.004735188,-0.000600878,-0.000271793,-0.000103704,0.443657219,0.047877468,9.782711029
1784149998.718324,0.006843226,-0.045368820,-0.004735190,-0.000132539,-0.000530756,-0.000123786,0.430813670,0.025160635,9.787037849
1784149998.720319,0.006843226,-0.045368820,-0.004735190,-0.000091296,-0.000137211,-0.000623047,0.460866362,0.060662586,9.781018257
1784149998.722317,0.006843226,-0.045368820,-0.004735190,-0.000455616,0.000407383,-0.001256720,0.479128718,0.084797397,9.756531715
1784149998.724324,0.006844469,-0.045371544,-0.004735172,-0.000837706,0.000101852,-0.001469717,0.442568421,0.070594467,9.803479195
1784149998.726319,0.006844469,-0.045371544,-0.004735172,-0.000992662,-0.000375149,-0.001445586,0.454741091,0.075757533,9.811594009
1784149998.728324,0.006844984,-0.045371793,-0.004735171,-0.000559248,-0.000280986,-0.001027539,0.448259026,0.058046769,9.793541908
1784149998.730322,0.006844984,-0.045371793,-0.004735171,0.000189116,-0.000307824,-0.000596478,0.455235243,0.078947939,9.803097725
1784149998.732325,0.006844984,-0.045371793,-0.004735171,-0.000065510,-0.000732291,-0.000358188,0.445740342,0.070799060,9.768962860
1784149998.734330,0.006844928,-0.045371242,-0.004735174,-0.000576712,-0.001056218,-0.000149092,0.445491135,0.087779634,9.775796890
1784149998.736330,0.006844928,-0.045371242,-0.004735174,-0.000099260,-0.001231023,0.000275700,0.442037821,0.098627560,9.768690109
1784149998.738327,0.006845907,-0.045370989,-0.004735176,0.000214889,-0.001054120,0.000929783,0.452509046,0.075471871,9.792760849
1784149998.740365,0.006845907,-0.045370989,-0.004735176,-0.000310990,-0.000730367,0.000305001,0.433540255,0.064203069,9.773391724
1784149998.742339,0.006847695,-0.045372237,-0.004744763,-0.000530176,-0.000615747,-0.001215617,0.429861277,0.057059430,9.776480675
1784149998.744343,0.006851135,-0.045369927,-0.004744390,-0.000039346,-0.000400138,-0.001527322,0.424158186,0.032728661,9.805909157
1784149998.746337,0.006849564,-0.045362812,-0.004743172,0.000123803,0.000330463,-0.001011386,0.421410263,0.063834026,9.784138680
1784149998.748343,0.006848126,-0.045363240,-0.004746000,-0.000121182,0.000615851,-0.000836055,0.460944712,0.067359738,9.784198761
1784149998.750341,0.006851471,-0.045366861,-0.004738488,0.000053139,0.000097436,-0.000296622,0.451161981,0.075076140,9.787824631
1784149998.752346,0.006855399,-0.045369349,-0.004737333,0.000558604,-0.000339853,0.000349343,0.454914540,0.087258637,9.769077301
1784149998.754354,0.006858959,-0.045370396,-0.004744737,0.000823515,-0.000399112,-0.000189699,0.446257412,0.078627668,9.801293373
1784149998.756345,0.006858028,-0.045369864,-0.004747254,0.000675701,-0.000239178,-0.000816469,0.451013982,0.062155213,9.777877808
1784149998.758344,0.006860945,-0.045366611,-0.004738385,0.000658107,0.000085600,-0.000170600,0.434694320,0.049701624,9.794371605
1784149998.760350,0.006863262,-0.045363348,-0.004730084,0.000898809,0.000513028,0.001023447,0.425829083,0.058375571,9.787693024
1784149998.762352,0.006858572,-0.045363504,-0.004737840,0.000495538,0.000585406,0.000789886,0.462756932,0.068690173,9.782863617
1784149998.764352,0.006855239,-0.045363620,-0.004739614,-0.000142091,0.000465944,-0.000049683,0.409279019,0.062645368,9.784119606
1784149998.766365,0.006861752,-0.045360066,-0.004735374,0.000189950,0.000635556,0.000117623,0.419488221,0.052721590,9.775097847
1784149998.768356,0.006871657,-0.045357060,-0.004738954,0.001283128,0.000858930,0.000078946,0.456184119,0.046210445,9.805578232
1784149998.770354,0.006873164,-0.045358468,-0.004737107,0.001732632,0.000684296,-0.000096075,0.452928871,0.073617041,9.800818443
1784149998.772358,0.006867755,-0.045359608,-0.004729992,0.001025168,0.000329488,0.000549740,0.408964604,0.075463936,9.809307098
1784149998.774381,0.006864611,-0.045357537,-0.004727580,0.000167711,0.000218364,0.001074642,0.417444319,0.070941858,9.799871445
1784149998.776369,0.006863878,-0.045357369,-0.004723168,-0.000148138,0.000225295,0.001259438,0.444578499,0.086860240,9.780721664
1784149998.778362,0.006864855,-0.045358036,-0.004726978,-0.000161210,0.000140665,0.000960662,0.473629892,0.078289680,9.799524307
1784149998.780371,0.006865277,-0.045355398,-0.004729421,-0.000113611,0.000243267,0.000274665,0.490941435,0.061992917,9.791814804
1784149998.782365,0.006866083,-0.045353673,-0.004723329,0.000011608,0.000474933,0.000443859,0.476648778,0.065938644,9.766719818
1784149998.784368,0.006869168,-0.045354903,-0.004721602,0.000354314,0.000549330,0.000837766,0.450137198,0.064355634,9.785065651
1784149998.786366,0.006869568,-0.045355447,-0.004724327,0.000549411,0.000445775,0.000528047,0.444576025,0.085624464,9.765469551
1784149998.788373,0.006872839,-0.045358155,-0.004719811,0.000561386,0.000082535,0.000499180,0.449959606,0.088385940,9.808533669
1784149998.790373,0.006872748,-0.045357179,-0.004717493,0.000552376,-0.000075998,0.000821698,0.452505380,0.073416486,9.766745567
1784149998.792371,0.006869892,-0.045355324,-0.004718495,0.000206682,0.000138369,0.000696912,0.435599059,0.086527251,9.780710220
1784149998.794373,0.006868121,-0.045357943,-0.004719490,-0.000192190,0.000027459,0.000387663,0.436881989,0.082363896,9.796825409
1784149998.796378,0.006860221,-0.045357276,-0.004726859,-0.000844326,-0.000136890,-0.000253853,0.449851662,0.041433312,9.795678139
1784149998.798375,0.006856601,-0.045360703,-0.004731087,-0.001391198,-0.000254514,-0.000937915,0.434890985,0.067464262,9.816454887
1784149998.800380,0.006867878,-0.045365416,-0.004728001,-0.000456984,-0.000700541,-0.000786272,0.453702271,0.063305609,9.800306320
1784149998.802378,0.006873622,-0.045366421,-0.004719828,0.000855962,-0.000893272,0.000138271,0.455110252,0.067018323,9.779707909
1784149998.804402,0.006871147,-0.045366768,-0.004716820,0.000893416,-0.000736000,0.000848093,0.448069334,0.043581650,9.811831474
1784149998.806417,0.006872474,-0.045367170,-0.004710982,0.000614090,-0.000581239,0.001220513,0.429180712,0.076209247,9.794088364
1784149998.808395,0.006876294,-0.045362372,-0.004711678,0.000794040,-0.000182984,0.001223240,0.436179876,0.061321832,9.795792580
1784149998.810400,0.006878813,-0.045360219,-0.004719082,0.000965216,0.000274236,0.000323631,0.465513885,0.073624581,9.777070999
1784149998.812396,0.006874757,-0.045356810,-0.004716936,0.000582784,0.000575457,-0.000116087,0.480558097,0.092732161,9.772274971
1784149998.814390,0.006873380,-0.045358002,-0.004713922,-0.000005873,0.000703812,0.000284656,0.439999908,0.080115639,9.792330742
1784149998.816393,0.006869611,-0.045358472,-0.004718708,-0.000436499,0.000530227,0.000105755,0.443557382,0.112948261,9.768334389
1784149998.818392,0.006870580,-0.045361165,-0.004719410,-0.000697893,0.000170768,-0.000278513,0.443201929,0.085015684,9.790571213
1784149998.820393,0.006867228,-0.045361932,-0.004721780,-0.000852742,-0.000110473,-0.000396034,0.459008634,0.093725994,9.797367096
1784149998.822392,0.006862595,-0.045367438,-0.004726368,-0.001184036,-0.000509441,-0.000735800,0.456650198,0.045531340,9.774191856
1784149998.824402,0.006859000,-0.045368847,-0.004726849,-0.001389526,-0.000801246,-0.000856903,0.459609121,0.031896465,9.796075821
1784149998.826400,0.006864002,-0.045362011,-0.004729318,-0.000879466,-0.000175638,-0.000831096,0.462799221,0.034270909,9.771435738
1784149998.828406,0.006868964,-0.045357369,-0.004727461,0.000129453,0.000722443,-0.000682456,0.489637226,0.065177694,9.787350655
1784149998.830404,0.006868820,-0.045362741,-0.004725447,0.000529263,0.000550344,-0.000254378,0.471438885,0.081975259,9.789235115
1784149998.832404,0.006872951,-0.045368765,-0.004718177,0.000684476,-0.000367851,0.000431928,0.440882653,0.079583049,9.802639008
1784149998.834427,0.006881244,-0.045365077,-0.004714182,0.001291862,-0.000448766,0.001044266,0.445589006,0.060282912,9.798933029
1784149998.836412,0.006883134,-0.045357917,-0.004718392,0.001546883,0.000381029,0.000718774,0.442273110,0.046379127,9.806910515
1784149998.838410,0.006879946,-0.045355212,-0.004722314,0.001046084,0.000924032,-0.000025227,0.454271019,0.072757930,9.793192863
1784149998.840418,0.006876834,-0.045355886,-0.004712960,0.000384077,0.000795076,0.000368075,0.448740333,0.095888548,9.763746262
1784149998.842412,0.006876335,-0.045356516,-0.004708007,0.000079028,0.000497578,0.001249449,0.454570949,0.097414866,9.790661812
1784149998.844432,0.006880899,-0.045359392,-0.004715929,0.000237971,0.000158055,0.000700022,0.437284708,0.079968885,9.817880630
1784149998.846418,0.006888004,-0.045353837,-0.004723631,0.000830433,0.000324981,-0.000581703,0.456178248,0.081322491,9.782490730
1784149998.848466,0.006895416,-0.045349889,-0.004722894,0.001446118,0.000873038,-0.000935099,0.465270758,0.092679627,9.807230949
1784149998.850439,0.006889584,-0.045348994,-0.004728833,0.001022932,0.000956710,-0.001033222,0.461012781,0.073570788,9.792757034
1784149998.852428,0.006880193,-0.045348160,-0.004727219,-0.000300398,0.000811954,-0.000999151,0.461767137,0.061893217,9.795372963
1784149998.854425,0.006879267,-0.045346811,-0.004727049,-0.000902628,0.000808160,-0.000576050,0.432235599,0.068194732,9.781486511
1784149998.856422,0.006879267,-0.045346811,-0.004727049,-0.000761335,0.000907912,-0.000392696,0.432235599,0.068194732,9.781486511
1784149998.858426,0.006883096,-0.045353059,-0.004731627,-0.000718187,0.000477025,-0.000225920,0.454512060,0.054497052,9.777385712
1784149998.860470,0.006883096,-0.045353059,-0.004731627,-0.000746537,-0.000340426,-0.000071223,0.454512060,0.054497052,9.777385712
1784149998.862479,0.006887018,-0.045351218,-0.004740378,-0.000542633,-0.000306387,-0.000279597,0.438893646,0.061862472,9.777864456
1784149998.864479,0.006884628,-0.045353226,-0.004722015,-0.000484882,-0.000176600,0.000218912,0.443958700,0.073357195,9.790497780
1784149998.866442,0.006886652,-0.045357320,-0.004724203,-0.000485901,-0.000694334,0.000704952,0.438595563,0.074404784,9.778841972
1784149998.868443,0.006888364,-0.045353569,-0.004731104,-0.000189288,-0.000581531,-0.000111137,0.426195920,0.050833963,9.776436806
1784149998.870438,0.006883963,-0.045351692,-0.004733243,-0.000348044,-0.000045444,-0.000685665,0.436983079,0.088835679,9.768621445
1784149998.872465,0.006879888,-0.045349270,-0.004730891,-0.000882838,0.000183632,-0.000455903,0.441488385,0.089327887,9.754281044
1784149998.874464,0.006879569,-0.045340065,-0.004727472,-0.000978571,0.000849107,0.000075758,0.452436388,0.068819217,9.783304214
1784149998.876453,0.006879488,-0.045339495,-0.004727580,-0.000776881,0.001314079,0.000282869,0.441046476,0.055444624,9.794414520
1784149998.878443,0.006884200,-0.045346759,-0.004727212,-0.000298011,0.000534605,0.000211424,0.468535393,0.063726015,9.777458191
1784149998.880450,0.006889637,-0.045350261,-0.004729985,0.000463830,-0.000342455,-0.000040260,0.426052749,0.076351248,9.779739380
1784149998.882447,0.006897120,-0.045351103,-0.004727347,0.001185478,-0.000588084,-0.000076738,0.425096184,0.072248429,9.791368484
1784149998.884457,0.006899988,-0.045348290,-0.004725148,0.001552331,-0.000335432,0.000241824,0.445412219,0.043892771,9.772824287
1784149998.886455,0.006897318,-0.045341592,-0.004722883,0.001210730,0.000395164,0.000475971,0.461140573,0.046715990,9.788549423
1784149998.888457,0.006895970,-0.045342080,-0.004728087,0.000653167,0.000699723,0.000157387,0.470818996,0.031692326,9.804602623
1784149998.890467,0.006893476,-0.045343105,-0.004731752,0.000188052,0.000402684,-0.000474823,0.456823885,0.097865887,9.786183357
1784149998.892465,0.006890167,-0.045347985,-0.004728305,-0.000299381,-0.000049746,-0.000341223,0.451102078,0.107735358,9.794760704
1784149998.894468,0.006895720,-0.045350287,-0.004722012,-0.000078275,-0.000461530,0.000406426,0.453441769,0.078170396,9.789641380
1784149998.896467,0.006901816,-0.045350138,-0.004718661,0.000682817,-0.000461773,0.000917601,0.418241858,0.063658059,9.814621925
1784149998.898462,0.006896573,-0.045351159,-0.004720590,0.000479973,-0.000378578,0.000765744,0.436223537,0.062071860,9.753206253
1784149998.900461,0.006890297,-0.045354087,-0.004718051,-0.000429620,-0.000543635,0.000634599,0.455558389,0.068629533,9.804377556
1784149998.902458,0.006890485,-0.045353059,-0.004714917,-0.000711415,-0.000489985,0.000865568,0.440977305,0.085193872,9.769498825
1784149998.904479,0.006893400,-0.045356493,-0.004720737,-0.000319039,-0.000489692,0.000438850,0.433437765,0.092068255,9.761466026
1784149998.906476,0.006890680,-0.045357212,-0.004722327,-0.000305598,-0.000664651,-0.000180299,0.442617774,0.071389012,9.754617691
1784149998.908475,0.006886232,-0.045358580,-0.004718630,-0.000765915,-0.000647139,0.000036635,0.453761786,0.065396354,9.758174896
1784149998.910470,0.006887498,-0.045357592,-0.004716780,-0.000756706,-0.000495432,0.000412612,0.456687540,0.050284043,9.798878670
1784149998.912475,0.006888350,-0.045354348,-0.004717569,-0.000365846,-0.000045081,0.000364079,0.446840793,0.051821176,9.789465904
1784149998.914477,0.006881533,-0.045352172,-0.004719287,-0.000640267,0.000362350,0.000111655,0.465183824,0.045892328,9.771064758
1784149998.916475,0.006878988,-0.045354020,-0.004717038,-0.001042303,0.000408021,0.000142668,0.475259990,0.061971936,9.759967804
1784149998.918474,0.006884072,-0.045355130,-0.004700645,-0.000472385,0.000226691,0.001356856,0.446263820,0.041898653,9.799713135
1784149998.920479,0.006885903,-0.045354489,-0.004693979,0.000195795,0.000144093,0.002530885,0.453127712,0.053402167,9.807863235
1784149998.922477,0.006890297,-0.045351807,-0.004698593,0.000616594,0.000363365,0.001961513,0.429621428,0.075329840,9.790944099
1784149998.924483,0.006892007,-0.045348402,-0.004699904,0.000890235,0.000706769,0.001006147,0.438190639,0.079214096,9.796358109
1784149998.926481,0.006892688,-0.045349937,-0.004698681,0.000741370,0.000616159,0.000722914,0.439273059,0.093226098,9.777170181
1784149998.928483,0.006892092,-0.045346290,-0.004696371,0.000487876,0.000568165,0.000769176,0.468735933,0.080303766,9.777115822
1784149998.930490,0.006891747,-0.045341864,-0.004693515,0.000307626,0.000964471,0.000913598,0.432596385,0.059795376,9.764843941
1784149998.932484,0.006890555,-0.045337155,-0.004692531,0.000177118,0.001307718,0.000928855,0.417858034,0.067012571,9.784604073
1784149998.934490,0.006897628,-0.045341723,-0.004696296,0.000564687,0.000943470,0.000467966,0.421193659,0.083908997,9.796820641
1784149998.936488,0.006904173,-0.045345496,-0.004697991,0.001274975,0.000080750,-0.000069005,0.417474300,0.072393857,9.784636497
1784149998.938491,0.006904425,-0.045343369,-0.004702573,0.001327311,-0.000092516,-0.000494489,0.431328177,0.067316666,9.780582428
1784149998.940495,0.006902857,-0.045341797,-0.004702717,0.000863200,0.000181884,-0.000676653,0.453014404,0.042781468,9.789414406
1784149998.942490,0.006906161,-0.045344125,-0.004701017,0.000810057,0.000070177,-0.000395449,0.444083631,0.046480145,9.789429665
1784149998.944498,0.006909521,-0.045350045,-0.004699907,0.001109218,-0.000519264,-0.000120681,0.451016665,0.063797608,9.798961639
1784149998.946495,0.006911004,-0.045356199,-0.004693569,0.001125745,-0.001110479,0.000403195,0.450765699,0.080358848,9.801756859
1784149998.948498,0.006912493,-0.045356829,-0.004691185,0.001014911,-0.001180418,0.000876907,0.459577531,0.065994948,9.789568901
1784149998.950502,0.006912804,-0.045355085,-0.004685915,0.000884979,-0.000780414,0.001152228,0.425773740,0.054696485,9.801120758
1784149998.952501,0.006906009,-0.045353219,-0.004681492,0.000267193,-0.000340378,0.001515260,0.433656871,0.076065905,9.806196213
1784149998.954505,0.006904171,-0.045359313,-0.004683290,-0.000350291,-0.000555109,0.001307130,0.454386175,0.082987897,9.803571701
1784149998.956507,0.006908964,-0.045363098,-0.004686404,-0.000133782,-0.001075386,0.000612986,0.447717696,0.085590571,9.764575958
1784149998.958500,0.006917287,-0.045364540,-0.004687697,0.000714466,-0.001137863,0.000110170,0.463029027,0.053510979,9.774696350
1784149998.960505,0.006921959,-0.045367241,-0.004691033,0.001387467,-0.001111863,-0.000273691,0.436745375,0.070748702,9.792266846
1784149998.962520,0.006926588,-0.045363266,-0.004685037,0.001627118,-0.000751334,-0.000046375,0.442211449,0.075782150,9.767646790
1784149998.964518,0.006929244,-0.045364928,-0.004685001,0.001675362,-0.000416772,0.000354096,0.439724445,0.057272803,9.791734695
1784149998.966517,0.006924753,-0.045372833,-0.004688744,0.001161069,-0.000955214,0.000008791,0.434252888,0.049764611,9.786302567
1784149998.968515,0.006922381,-0.045370653,-0.004694249,0.000428423,-0.001089400,-0.000602928,0.433987707,0.064997844,9.786847115
1784149998.970515,0.006918536,-0.045367718,-0.004696623,-0.000133685,-0.000449434,-0.000954234,0.441165715,0.064896330,9.788198471
1784149998.972522,0.006916174,-0.045371018,-0.004697354,-0.000494398,-0.000417724,-0.000887567,0.450810909,0.081931666,9.769487381
1784149998.974573,0.006913425,-0.045374680,-0.004701842,-0.000689382,-0.000844449,-0.000985815,0.448481739,0.076826163,9.798594475
1784149998.976544,0.006915015,-0.045371376,-0.004699153,-0.000572988,-0.000619452,-0.000837369,0.449090809,0.091460027,9.818863869
1784149998.978522,0.006916517,-0.045371987,-0.004697035,-0.000179550,-0.000245539,-0.000294324,0.438652933,0.080936603,9.805335999
1784149998.980521,0.006913295,-0.045372453,-0.004702061,-0.000256425,-0.000254115,-0.000406315,0.444436938,0.076827019,9.805763245
1784149998.982523,0.006914778,-0.045370832,-0.004703732,-0.000419125,-0.000149668,-0.000740177,0.457242072,0.058408353,9.789518356
1784149998.984526,0.006913430,-0.045366563,-0.004707845,-0.000407716,0.000248674,-0.000927235,0.452560931,0.080339029,9.801310539
1784149998.986572,0.006914213,-0.045368154,-0.004714016,-0.000381757,0.000432557,-0.001370950,0.451109529,0.070609242,9.786003113
1784149998.988534,0.006916313,-0.045372196,-0.004714021,-0.000116430,0.000004222,-0.001426156,0.439598083,0.083733700,9.788318634
1784149998.990532,0.006918187,-0.045368746,-0.004718785,0.000169962,-0.000039386,-0.001374470,0.442619801,0.076268524,9.824587822
1784149998.992536,0.006912675,-0.045374408,-0.004717849,-0.000182861,-0.000137650,-0.001247821,0.424937516,0.058838207,9.787247658
1784149998.994528,0.006907471,-0.045380265,-0.004716076,-0.000899823,-0.000837125,-0.000690440,0.453850091,0.038229942,9.797904015
1784149998.996536,0.006905443,-0.045380827,-0.004717750,-0.001019807,-0.000971823,-0.000480237,0.452008098,0.070607275,9.784659386
1784149998.998529,0.006907835,-0.045384791,-0.004723863,-0.000616362,-0.000945816,-0.000885240,0.421020448,0.068357542,9.778786659
1784149999.000536,0.006905591,-0.045393307,-0.004723297,-0.000456030,-0.001538399,-0.001021434,0.440975666,0.085991226,9.783403397
1784149999.002534,0.006905160,-0.045394458,-0.004723475,-0.000609663,-0.001807727,-0.000704983,0.432986110,0.056081936,9.782306671
1784149999.004571,0.006906735,-0.045395326,-0.004722953,-0.000462776,-0.001484632,-0.000489199,0.441797376,0.041308232,9.764735222
1784149999.006550,0.006906534,-0.045397684,-0.004718733,-0.000157398,-0.001235172,-0.000042780,0.436901569,0.081302993,9.756917953
1784149999.008543,0.006907352,-0.045395881,-0.004718498,0.000012821,-0.000872777,0.000265303,0.426958352,0.076809965,9.776604652
1784149999.010545,0.006915074,-0.045389403,-0.004716581,0.000595089,-0.000072635,0.000312935,0.442603588,0.072087802,9.782418251
1784149999.012541,0.006919756,-0.045390569,-0.004712482,0.001251545,0.000308215,0.000599604,0.436419576,0.079424687,9.769906044
1784149999.014553,0.006915691,-0.045391381,-0.004711159,0.000928818,0.000090319,0.000804406,0.453803867,0.070997268,9.789595604
1784149999.016546,0.006916688,-0.045387786,-0.004708253,0.000462560,0.000276504,0.000882950,0.439055443,0.076108210,9.790511131
1784149999.018548,0.006915117,-0.045378290,-0.004706489,0.000293170,0.001112160,0.000962391,0.442644298,0.075245783,9.779300690
1784149999.020545,0.006909702,-0.045375135,-0.004703877,-0.000246637,0.001671419,0.001019325,0.440212458,0.135188803,9.797166824
1784149999.022553,0.006907431,-0.045379147,-0.004702067,-0.000848738,0.001163015,0.001073419,0.441698134,0.106788822,9.755740166
1784149999.024557,0.006900374,-0.045381531,-0.004699829,-0.001399889,0.000415989,0.001092496,0.422692686,0.095230669,9.777168274
1784149999.026550,0.006901430,-0.045385081,-0.004702817,-0.001438790,-0.000112019,0.000764076,0.449054569,0.085500188,9.774888039
1784149999.028556,0.006902163,-0.045393612,-0.004703175,-0.000946835,-0.000915041,0.000324751,0.461418182,0.069981351,9.792734146
1784149999.030553,0.006898996,-0.045393612,-0.004703670,-0.000857345,-0.001246253,0.000186212,0.450992942,0.063610010,9.825411797
1784149999.032557,0.006900560,-0.045394648,-0.004704223,-0.000750492,-0.000983899,0.000070108,0.462168157,0.057458736,9.788171768
1784149999.034558,0.006908353,-0.045397073,-0.004711405,0.000049940,-0.000959572,-0.000501652,0.464301109,0.048451696,9.790805817
1784149999.036565,0.006907674,-0.045396116,-0.004717857,0.000527474,-0.000758285,-0.001314458,0.446861535,0.054416727,9.802484512
1784149999.038563,0.006909223,-0.045400683,-0.004717623,0.000474789,-0.000754534,-0.001384509,0.440700471,0.064771719,9.806579590
1784149999.040563,0.006913789,-0.045404013,-0.004713247,0.000774670,-0.001083862,-0.000714781,0.431299657,0.065470777,9.788192749
1784149999.042567,0.006915434,-0.045401715,-0.004716151,0.001016409,-0.000890716,-0.000441062,0.432366431,0.078548722,9.774379730
1784149999.044571,0.006910514,-0.045396309,-0.004723354,0.000513560,-0.000162067,-0.000997641,0.446188569,0.072410271,9.793632507
1784149999.046569,0.006909760,-0.045398761,-0.004720301,-0.000037865,0.000062211,-0.000989913,0.434123993,0.074989729,9.767632484
1784149999.048567,0.006910998,-0.045406323,-0.004714241,0.000019005,-0.000648735,-0.000103887,0.448943198,0.078542307,9.808467865
1784149999.050573,0.006909575,-0.045405585,-0.004711986,0.000026940,-0.000931969,0.000488673,0.435906470,0.076084860,9.799474716
1784149999.052570,0.006911438,-0.045403671,-0.004711693,0.000076462,-0.000524366,0.000526696,0.429636151,0.075040862,9.768526077
1784149999.054576,0.006916007,-0.045402963,-0.004712085,0.000510761,-0.000230507,0.000356442,0.441935569,0.091336183,9.786127090
1784149999.056578,0.006917403,-0.045404371,-0.004708171,0.000698032,-0.000196584,0.000483930,0.429782361,0.088352524,9.786545753
1784149999.058578,0.006915323,-0.045407016,-0.004709695,0.000380069,-0.000400630,0.000520651,0.441114277,0.060032349,9.779200554
1784149999.060574,0.006914860,-0.045405366,-0.004716178,0.000079763,-0.000364225,-0.000155696,0.426000565,0.072697602,9.789580345
1784149999.062577,0.006917497,-0.045403033,-0.004718034,0.000117505,-0.000034263,-0.000682414,0.428062737,0.058673956,9.804734230
1784149999.064586,0.006920510,-0.045405805,-0.004714526,0.000411464,-0.000088844,-0.000399425,0.425446928,0.063769564,9.785934448
1784149999.066580,0.006924706,-0.045405097,-0.004715723,0.000823225,-0.000238954,-0.000157467,0.435975730,0.079468600,9.764525414
1784149999.068587,0.006931718,-0.045405906,-0.004722931,0.001361366,-0.000220342,-0.000720237,0.445716172,0.070608273,9.795861244
1784149999.070583,0.006929030,-0.045409635,-0.004723158,0.001262112,-0.000472028,-0.001042208,0.466404825,0.073562205,9.784243584
1784149999.072586,0.006921919,-0.045408748,-0.004722245,0.000231924,-0.000486711,-0.000681633,0.465442330,0.068601623,9.790487289
1784149999.074591,0.006916396,-0.045409840,-0.004718330,-0.000698095,-0.000317250,-0.000129410,0.435698152,0.095819987,9.796910286
1784149999.076588,0.006913195,-0.045413192,-0.004717289,-0.001144277,-0.000538278,0.000271326,0.424753070,0.077950850,9.746124268
1784149999.078591,0.006915098,-0.045414302,-0.004718084,-0.000980349,-0.000702464,0.000221034,0.428355008,0.080433637,9.768560410
1784149999.080592,0.006914119,-0.045416959,-0.004720355,-0.000660907,-0.000768793,-0.000049663,0.457388759,0.070103049,9.782867432
1784149999.082594,0.006903653,-0.045418553,-0.004717190,-0.001242310,-0.000792217,0.000058863,0.430880904,0.066928513,9.772958755
1784149999.084599,0.006899159,-0.045413524,-0.004716655,-0.001895711,-0.000286043,0.000339043,0.439900726,0.071632996,9.788239479
1784149999.086600,0.006902659,-0.045408670,-0.004712826,-0.001445568,0.000450696,0.000546674,0.428444177,0.052463524,9.795281410
1784149999.088603,0.006907468,-0.045406912,-0.004712403,-0.000487119,0.000764835,0.000661588,0.418143153,0.055178594,9.810082436
1784149999.090603,0.006912090,-0.045407243,-0.004714130,0.000280626,0.000653272,0.000364428,0.445411533,0.045103110,9.791662216
1784149999.092600,0.006915239,-0.045412064,-0.004714620,0.000726701,0.000123572,0.000091116,0.461760134,0.023842579,9.790645599
1784149999.094602,0.006910964,-0.045419727,-0.004716008,0.000449456,-0.000760125,-0.000057563,0.475601852,0.054233205,9.776506424
1784149999.096608,0.006911186,-0.045423951,-0.004715246,0.000104193,-0.001258904,-0.000075036,0.460836112,0.058397349,9.784588814
1784149999.098604,0.006916640,-0.045419868,-0.004711052,0.000529555,-0.000821697,0.000260756,0.448728204,0.096603215,9.789305687
1784149999.100609,0.006913203,-0.045418996,-0.004716880,0.000517575,-0.000263081,0.000072960,0.450944066,0.093924865,9.783911705
1784149999.102607,0.006909801,-0.045414060,-0.004722221,-0.000230147,0.000227594,-0.000678317,0.456637233,0.081802860,9.777114868
1784149999.104614,0.006904531,-0.045410417,-0.004716937,-0.000864931,0.000779359,-0.000466499,0.472120315,0.064858556,9.800782204
1784149999.106612,0.006905080,-0.045411743,-0.004716711,-0.000916698,0.000778689,0.000047254,0.495902866,0.062943250,9.775237083
1784149999.108612,0.006914547,-0.045416407,-0.004714774,0.000034562,0.000211223,0.000149152,0.463026762,0.053898524,9.783218384
1784149999.110614,0.006921152,-0.045414954,-0.004712936,0.001126633,-0.000063033,0.000315053,0.429967433,0.066002749,9.778780937
1784149999.112620,0.006917990,-0.045414086,-0.004712634,0.001058265,0.000088917,0.000364290,0.453515470,0.046025917,9.773294449
1784149999.114618,0.006915393,-0.045415416,-0.004714174,0.000374016,0.000009678,0.000199522,0.447331429,0.054172881,9.772892952
1784149999.116618,0.006918771,-0.045414537,-0.004710590,0.000381876,-0.000000726,0.000279128,0.465973675,0.073301241,9.758686066
1784149999.118624,0.006927784,-0.045410730,-0.004708361,0.001186470,0.000341737,0.000556962,0.461321115,0.060704529,9.774292946
1784149999.120627,0.006930882,-0.045409590,-0.004708648,0.001900638,0.000663604,0.000471139,0.459021837,0.092614226,9.764632225
1784149999.122630,0.006917141,-0.045412041,-0.004704958,0.001458307,0.000560401,0.000417291,0.453020036,0.093080416,9.793921471
1784149999.124630,0.006914077,-0.045412276,-0.004707846,0.000501060,0.000312847,0.000249781,0.427428335,0.077782802,9.764955521
1784149999.126628,0.006915849,-0.045416150,-0.004704130,0.000306997,-0.000119610,0.000241475,0.424810559,0.084889270,9.778448105
1784149999.128631,0.006916456,-0.045417763,-0.004706052,0.000417630,-0.000527695,0.000289462,0.454116911,0.060599383,9.802083015
1784149999.130633,0.006915641,-0.045415096,-0.004710681,0.000269997,-0.000315111,-0.000232708,0.449438512,0.042935561,9.774167061
1784149999.132633,0.006912712,-0.045411292,-0.004711083,0.000021257,0.000182597,-0.000503107,0.453800946,0.032168344,9.768273354
1784149999.134633,0.006912908,-0.045412410,-0.004709827,-0.000073236,0.000289814,-0.000304235,0.445638210,0.062697604,9.774290085
1784149999.136635,0.006912508,-0.045410413,-0.004701653,-0.000018272,0.000237049,0.000417767,0.449142605,0.056710459,9.790844917
1784149999.138639,0.006915417,-0.045409184,-0.004700789,0.000204404,0.000358855,0.000908817,0.436535448,0.055717967,9.827139854
1784149999.140640,0.006917047,-0.045414779,-0.004702686,0.000453403,-0.000035118,0.000578021,0.450087875,0.060724262,9.791767120
1784149999.142639,0.006919856,-0.045419570,-0.004700212,0.000702565,-0.000719501,0.000443245,0.454960018,0.094101682,9.814850807
1784149999.144646,0.006924589,-0.045421798,-0.004699283,0.001103128,-0.000987546,0.000527212,0.428300381,0.077570997,9.793199539
1784149999.146646,0.006925622,-0.045423988,-0.004694032,0.001178869,-0.001055707,0.000787316,0.451938778,0.065196760,9.789557457
1784149999.148651,0.006925878,-0.045424379,-0.004688242,0.000945317,-0.000978357,0.001320033,0.432284772,0.073446259,9.799005508
1784149999.150645,0.006924598,-0.045421217,-0.004688629,0.000635742,-0.000522198,0.001331029,0.448644876,0.089461282,9.785674095
1784149999.152646,0.006922728,-0.045417532,-0.004690639,0.000234000,0.000121205,0.000816990,0.440587550,0.054964263,9.799791336
1784149999.154653,0.006926925,-0.045417644,-0.004689189,0.000318401,0.000369197,0.000550199,0.439123154,0.045942795,9.810940742
1784149999.156657,0.006928596,-0.045415446,-0.004683559,0.000684850,0.000435474,0.000861142,0.461388677,0.068532534,9.807519913
1784149999.158669,0.006922775,-0.045409162,-0.004677487,0.000286722,0.000920805,0.001432023,0.449969590,0.089275517,9.809435844
1784149999.160686,0.006915662,-0.045406606,-0.004667503,-0.000618789,0.001279008,0.002171885,0.443806797,0.096374311,9.767331123
1784149999.162658,0.006917856,-0.045406256,-0.004665912,-0.000811303,0.001194924,0.002384754,0.410604298,0.098432608,9.789731026
1784149999.164670,0.006916503,-0.045405153,-0.004670841,-0.000606735,0.001028267,0.001510834,0.436261058,0.067231178,9.783724785
1784149999.166663,0.006915036,-0.045405708,-0.004671254,-0.000639758,0.000765602,0.000746753,0.436547756,0.052573074,9.765250206
1784149999.168671,0.006915141,-0.045408294,-0.004679596,-0.000575583,0.000322753,-0.000045806,0.468768299,0.081774831,9.759192467
1784149999.170662,0.006910215,-0.045407195,-0.004682296,-0.000780231,0.000129732,-0.000767269,0.471484780,0.083147809,9.750237465
1784149999.172670,0.006910123,-0.045407943,-0.004678397,-0.000946662,0.000236202,-0.000461114,0.452424943,0.068323568,9.790024757
1784149999.174664,0.006918719,-0.045409005,-0.004668758,-0.000112977,0.000172603,0.000556926,0.433092058,0.065428697,9.790884972
1784149999.176679,0.006917956,-0.045415089,-0.004659325,0.000506259,-0.000362159,0.001674944,0.456542432,0.074165270,9.780202866
1784149999.178688,0.006916805,-0.045415331,-0.004663186,0.000254789,-0.000702730,0.001604026,0.442646295,0.077288449,9.807109833
1784149999.180674,0.006916544,-0.045408148,-0.004667232,0.000065478,-0.000045161,0.000636757,0.441602439,0.063175045,9.777427673
1784149999.182673,0.006913857,-0.045405488,-0.004663676,-0.000125742,0.000629337,0.000438566,0.439532399,0.077541731,9.777070999
1784149999.184677,0.006909044,-0.045402318,-0.004662632,-0.000558106,0.000851661,0.000653258,0.439607590,0.083403371,9.771728516
1784149999.186674,0.006913905,-0.045398697,-0.004663861,-0.000492197,0.001047615,0.000467469,0.425272077,0.086605430,9.788323402
1784149999.188686,0.006917730,-0.045399290,-0.004665894,0.000132190,0.000933602,0.000096936,0.436409891,0.080158457,9.792775154
1784149999.190677,0.006918322,-0.045402415,-0.004673417,0.000366419,0.000423489,-0.000590916,0.440676063,0.062957607,9.809706688
1784149999.192744,0.006922688,-0.045406789,-0.004675988,0.000569983,-0.000254244,-0.001129765,0.467054367,0.057004396,9.843317986
1784149999.194692,0.006920001,-0.045408472,-0.004670346,0.000536483,-0.000643543,-0.000619428,0.454902768,0.088786565,9.806298256
1784149999.196689,0.006923853,-0.045409705,-0.004663905,0.000441209,-0.000660155,0.000367484,0.440445572,0.079681009,9.789638519
1784149999.198689,0.006931164,-0.045410313,-0.004666305,0.001024828,-0.000603759,0.000510200,0.413030744,0.075631581,9.778378487
1784149999.200689,0.006933888,-0.045407195,-0.004666771,0.001418079,-0.000271466,0.000146392,0.424839467,0.086738378,9.770389557
1784149999.202691,0.006931295,-0.045401517,-0.004668555,0.001021463,0.000355512,-0.000045372,0.416517586,0.067074336,9.778326035
1784149999.204691,0.006925321,-0.045400128,-0.004671569,0.000134897,0.000693595,-0.000331095,0.443808436,0.060823817,9.789072037
1784149999.206697,0.006919414,-0.045399372,-0.004677492,-0.000712102,0.000673725,-0.000811821,0.452890009,0.070878394,9.807975769
1784149999.208692,0.006916878,-0.045402519,-0.004680903,-0.001097328,0.000350985,-0.001199478,0.462179899,0.059577718,9.805221558
1784149999.210699,0.006919762,-0.045402266,-0.004685371,-0.000800181,0.000055202,-0.001409094,0.463668406,0.069600038,9.779283524
1784149999.212695,0.006918979,-0.045401569,-0.004690522,-0.000453540,0.000145085,-0.001686252,0.437819421,0.085910641,9.800435066
1784149999.214699,0.006914926,-0.045398407,-0.004688643,-0.000651939,0.000410650,-0.001436466,0.431012571,0.077288851,9.764955521
1784149999.216704,0.006911609,-0.045400560,-0.004682754,-0.000927580,0.000348887,-0.000497953,0.415499359,0.057621416,9.786334038
1784149999.218707,0.006914693,-0.045398097,-0.004674154,-0.000623592,0.000259796,0.000619544,0.404607087,0.047869273,9.791193008
1784149999.220706,0.006916543,-0.045401070,-0.004674429,-0.000094139,0.000158232,0.001000670,0.465431541,0.066895634,9.778370857
1784149999.222703,0.006921197,-0.045403205,-0.004683884,0.000345244,-0.000232795,0.000049112,0.469271630,0.051905368,9.800248146
1784149999.224705,0.006920843,-0.045398705,-0.004686616,0.000508464,-0.000010989,-0.000803980,0.448446095,0.073302887,9.790053368
1784149999.226711,0.006919491,-0.045402132,-0.004682546,0.000226196,0.000041169,-0.000488002,0.446240276,0.076060735,9.784239769
1784149999.228709,0.006923330,-0.045406152,-0.004685660,0.000303685,-0.000499639,-0.000296694,0.430041701,0.072668120,9.786444664
1784149999.230711,0.006925880,-0.045408823,-0.004689361,0.000633408,-0.000821242,-0.000698045,0.442951262,0.102390178,9.805029869
1784149999.232714,0.006927427,-0.045409806,-0.004696072,0.000641480,-0.000835594,-0.001224242,0.431253642,0.099454790,9.797825813
1784149999.234716,0.006933172,-0.045403522,-0.004697708,0.000870636,-0.000237259,-0.001477461,0.401284754,0.069477819,9.782809258
1784149999.236716,0.006937153,-0.045398768,-0.004698140,0.001274336,0.000445512,-0.001244986,0.433090657,0.065822609,9.798508644
1784149999.238718,0.006938999,-0.045394868,-0.004696780,0.001313041,0.000782338,-0.000860309,0.445712268,0.069766417,9.788234711
1784149999.240716,0.006942820,-0.045393530,-0.004703860,0.001323074,0.000922679,-0.001031984,0.452553898,0.077041499,9.760939598
1784149999.242725,0.006943902,-0.045393024,-0.004715620,0.001203616,0.000815716,-0.002042954,0.429489553,0.062536106,9.763065338
1784149999.244726,0.006936542,-0.045390934,-0.004711772,0.000392137,0.000794844,-0.002004041,0.421815157,0.059024714,9.766623497
1784149999.246729,0.006936518,-0.045391805,-0.004710787,-0.000167087,0.000575992,-0.001110289,0.436913282,0.046642076,9.779560089
1784149999.248725,0.006938785,-0.045394745,-0.004714236,0.000055856,0.000070989,-0.000983627,0.456965804,0.073149145,9.796338081
1784149999.250728,0.006936316,-0.045392580,-0.004717879,0.000005172,-0.000004734,-0.001196947,0.440254778,0.063179567,9.779220581
1784149999.252726,0.006931739,-0.045385972,-0.004720239,-0.000458658,0.000610122,-0.001259034,0.429081261,0.066913351,9.778336525
1784149999.254736,0.006935491,-0.045386311,-0.004720675,-0.000364882,0.000890174,-0.001105943,0.431867898,0.073703215,9.763587952
1784149999.256732,0.006931506,-0.045390133,-0.004721530,-0.000323290,0.000319848,-0.000890464,0.440522283,0.048775472,9.788094521
1784149999.258734,0.006929873,-0.045392811,-0.004721434,-0.000656461,-0.000254035,-0.000680795,0.439627320,0.048806049,9.785404205
1784149999.260731,0.006939977,-0.045394026,-0.004721045,0.000097637,-0.000449082,-0.000489123,0.452964604,0.037930202,9.778622627
1784149999.262736,0.006942601,-0.045398105,-0.004719062,0.001062358,-0.000614315,-0.000240650,0.407970339,0.066605240,9.796697617
1784149999.264736,0.006943373,-0.045402128,-0.004719393,0.001130270,-0.000925720,-0.000079765,0.446694016,0.076499760,9.784691811
1784149999.266737,0.006946788,-0.045397568,-0.004720645,0.001059362,-0.000627972,-0.000176452,0.424819291,0.087389469,9.804915428
1784149999.268737,0.006951919,-0.045395609,-0.004715947,0.001318757,-0.000002431,0.000080816,0.441576689,0.097724684,9.770476341
1784149999.270742,0.006954232,-0.045395441,-0.004714051,0.001485810,0.000146191,0.000483109,0.464359462,0.090149634,9.786589622
1784149999.272740,0.006949711,-0.045390066,-0.004717021,0.000852077,0.000517583,0.000289042,0.444163024,0.090370201,9.791951180
1784149999.274749,0.006951754,-0.045389030,-0.004720458,0.000355703,0.000844723,-0.000213110,0.442292362,0.082905024,9.773969650
1784149999.276746,0.006953974,-0.045392592,-0.004724218,0.000475398,0.000430324,-0.000654001,0.447379798,0.059418049,9.791308403
