time_sec,roll_rad,pitch_rad,yaw_rad,gyro_x,gyro_y,gyro_z,acc_x,acc_y,acc_z
1784150188.495428,0.001819240,-0.049090378,-1.442579746,0.000093424,-0.000907264,-0.000753753,0.475234598,0.024991725,9.793804169
1784150188.497288,0.001819240,-0.049090378,-1.442579746,0.000042202,-0.000888409,-0.000429485,0.473589391,0.037948359,9.801956177
1784150188.499254,0.001819240,-0.049090378,-1.442579746,0.000265665,-0.000157849,-0.000134695,0.487282664,0.019445062,9.796021461
1784150188.501254,0.001819280,-0.049090557,-1.442579746,0.000339251,0.000465867,-0.000009835,0.494422585,0.015801186,9.791522026
1784150188.503251,0.001819280,-0.049090557,-1.442579746,-0.000296646,0.000623790,-0.000264608,0.485571623,0.024993038,9.774984360
1784150188.505242,0.001819781,-0.049091194,-1.442579746,-0.001050587,0.000528302,-0.000830929,0.518561900,0.009101623,9.808091164
1784150188.507214,0.001819781,-0.049091194,-1.442579746,-0.001024342,0.000217218,-0.001027299,0.498230577,0.033689536,9.789399147
1784150188.509206,0.001819781,-0.049091194,-1.442579746,-0.000919441,-0.000354639,-0.000793051,0.499788970,0.014779033,9.799591064
1784150188.511185,0.001820174,-0.049091745,-1.442579746,-0.000807946,-0.000914384,-0.000821715,0.487864226,-0.005754005,9.810206413
1784150188.513191,0.001820174,-0.049091745,-1.442579746,-0.000378710,-0.000894368,-0.000767453,0.510396242,-0.000818187,9.768566132
1784150188.515203,0.001819812,-0.049092356,-1.442579746,-0.000022649,-0.000074274,-0.000073502,0.494220883,0.036803871,9.799726486
1784150188.517181,0.001819812,-0.049092356,-1.442579746,0.000042088,0.000973574,0.000705011,0.456986487,0.036938027,9.784896851
1784150188.519180,0.001819812,-0.049092356,-1.442579746,0.000099120,0.000893286,0.000870326,0.486203015,0.041018501,9.788537025
1784150188.521207,0.001821211,-0.049092475,-1.442579627,0.000310308,-0.000228099,0.000840689,0.494100839,0.027345814,9.806838036
1784150188.523190,0.001821211,-0.049092475,-1.442579627,0.000266626,-0.000934449,0.000747193,0.493791133,0.036959071,9.778655052
1784150188.525173,0.001822498,-0.049093097,-1.442579627,0.000028555,-0.000544399,0.000286656,0.499533236,0.029681973,9.783545494
1784150188.527173,0.001822498,-0.049093097,-1.442579627,-0.000244840,0.000515124,-0.000098836,0.504463851,0.027957248,9.765156746
1784150188.529172,0.001822498,-0.049093097,-1.442579627,-0.000392997,0.001085667,0.000070593,0.475992680,0.011722634,9.768164635
1784150188.531178,0.001822127,-0.049092706,-1.442579627,0.000016157,0.000934763,0.000679083,0.490347624,0.012726742,9.790153503
1784150188.533194,0.001822127,-0.049092706,-1.442579627,-0.000031518,0.000665348,0.001319495,0.484916598,0.007969906,9.775771141
1784150188.535178,0.001822034,-0.049092654,-1.442579627,-0.000695772,0.000589178,0.000919210,0.491118968,0.006046325,9.846152306
1784150188.537182,0.001822034,-0.049092654,-1.442579627,-0.000904297,0.000663909,-0.000544599,0.468076795,0.026468936,9.787978172
1784150188.539176,0.001822034,-0.049092654,-1.442579627,-0.000603445,0.000890471,-0.001121890,0.493246824,0.029320855,9.782641411
1784150188.541233,0.001822368,-0.049093403,-1.442579627,-0.000010661,0.000773533,-0.000243688,0.505360305,0.030369610,9.802385330
1784150188.543202,0.001822368,-0.049093403,-1.442579627,0.000103146,-0.000228067,0.000697342,0.511603653,0.025526887,9.779047966
1784150188.545187,0.001822528,-0.049094524,-1.442579627,-0.000446285,-0.001089806,0.000550749,0.486990064,-0.003937942,9.808424950
1784150188.547203,0.001822528,-0.049094524,-1.442579627,-0.000909216,-0.000904721,0.000087351,0.475536942,0.011267705,9.769954681
1784150188.549212,0.001822528,-0.049094524,-1.442579627,-0.000699662,-0.000239461,0.000349304,0.468859613,0.016637262,9.782984734
1784150188.551233,0.001822144,-0.049094368,-1.442579627,-0.000622767,0.000009677,0.000917789,0.467796445,0.004398011,9.804873466
1784150188.553197,0.001822144,-0.049094368,-1.442579627,-0.001183829,-0.000053278,0.001185168,0.488270640,0.025822675,9.779475212
1784150188.555224,0.001823202,-0.049094889,-1.442579627,-0.001191474,0.000150073,0.001129251,0.491582334,0.003724830,9.793684006
1784150188.557204,0.001823202,-0.049094889,-1.442579627,-0.000775606,0.000710527,0.000622136,0.509686530,0.016479379,9.794680595
1784150188.559267,0.001823202,-0.049094889,-1.442579627,-0.000796236,0.001214511,-0.000108309,0.475368857,0.000214573,9.812474251
1784150188.561222,0.001822440,-0.049095273,-1.442579746,-0.001031272,0.001348712,-0.000425456,0.472750783,0.041260932,9.778662682
1784150188.563245,0.001822440,-0.049095273,-1.442579746,-0.000863192,0.001222068,0.000119022,0.481144786,0.029577835,9.768282890
1784150188.565263,0.001823076,-0.049095653,-1.442579865,-0.000456504,0.000693878,0.000658106,0.512869716,0.019609844,9.789771080
1784150188.567278,0.001823076,-0.049095653,-1.442579865,-0.000505258,0.000098930,0.000706119,0.490100890,0.028916324,9.782187462
1784150188.569278,0.001823076,-0.049095653,-1.442579865,-0.000878173,0.000244796,0.000797943,0.492010117,0.037496798,9.769241333
1784150188.571257,0.001823888,-0.049096171,-1.442579746,-0.000981233,0.000889326,0.000850051,0.455314785,0.010474695,9.791898727
1784150188.573254,0.001823888,-0.049096171,-1.442579746,-0.000752279,0.001154602,0.001374755,0.485221714,0.033478253,9.779521942
1784150188.575243,0.001824621,-0.049096581,-1.442579746,-0.000336772,0.000861406,0.001393645,0.490257859,0.005533920,9.793694496
1784150188.577230,0.001824621,-0.049096581,-1.442579746,0.000039389,0.000632456,0.000847831,0.448813617,0.029797826,9.795603752
1784150188.579248,0.001824621,-0.049096581,-1.442579746,-0.000067400,0.000554346,0.001334639,0.494381636,0.048609842,9.777385712
1784150188.581252,0.001826408,-0.049097732,-1.442579746,-0.000069864,0.000696836,0.001329468,0.493221283,0.028713914,9.805053711
1784150188.583234,0.001826408,-0.049097732,-1.442579746,0.000258105,0.001018164,0.000497054,0.502233684,0.030927766,9.792523384
1784150188.585215,0.001827550,-0.049099218,-1.442579746,0.000291416,0.000729721,0.000338706,0.484784275,-0.001180095,9.802612305
1784150188.587215,0.001827550,-0.049099218,-1.442579746,0.000181656,-0.000180599,0.000165082,0.469317853,0.016301200,9.766394615
1784150188.589257,0.001827550,-0.049099218,-1.442579746,-0.000131471,-0.000731476,-0.000249975,0.478259474,0.015525220,9.796436310
1784150188.591223,0.001826831,-0.049098149,-1.442579746,-0.000608597,-0.000752116,-0.000550615,0.487886727,0.032824099,9.803730011
1784150188.593220,0.001826831,-0.049098149,-1.442579746,-0.000633372,-0.001004844,-0.000734336,0.500232577,0.013111811,9.781199455
1784150188.595270,0.001826557,-0.049099054,-1.442579746,-0.000092002,-0.001232644,-0.000596752,0.509638727,0.010833940,9.769536018
1784150188.597234,0.001826557,-0.049099054,-1.442579746,0.000265763,-0.001311857,0.000099612,0.509894192,0.031087585,9.756217003
1784150188.599241,0.001826557,-0.049099054,-1.442579746,-0.000160666,-0.001397267,0.000461245,0.479974657,0.045168798,9.783177376
1784150188.601234,0.001828075,-0.049098946,-1.442579627,-0.000774434,-0.001252915,-0.000141127,0.483112395,0.045103114,9.786767006
1784150188.603226,0.001828075,-0.049098946,-1.442579627,-0.001038553,-0.001004075,-0.000849635,0.465090245,0.040291037,9.802858353
1784150188.605241,0.001829770,-0.049097888,-1.442579627,-0.000746393,-0.001134673,-0.001258432,0.479267508,0.024492024,9.793806076
1784150188.607237,0.001829770,-0.049097888,-1.442579627,-0.000339844,-0.001560093,-0.000871800,0.487673998,0.014934264,9.799580574
1784150188.609237,0.001829770,-0.049097888,-1.442579627,-0.000511749,-0.001579850,-0.000119923,0.490856737,0.018871617,9.807229996
1784150188.611232,0.001829963,-0.049098514,-1.442579627,-0.000615131,-0.001269829,0.000321344,0.434125841,0.039845873,9.795205116
1784150188.613235,0.001829963,-0.049098514,-1.442579627,-0.000091595,-0.000887229,0.000446056,0.469708323,0.013404189,9.795069695
1784150188.615235,0.001829485,-0.049097653,-1.442579746,0.000309394,-0.000534841,0.000230469,0.473118812,-0.001024257,9.801705360
1784150188.617239,0.001829485,-0.049097653,-1.442579746,0.000546882,-0.000313540,0.000073132,0.496444583,-0.002997414,9.785127640
1784150188.619237,0.001829485,-0.049097653,-1.442579746,0.000754576,-0.000331473,-0.000241000,0.487739116,0.019906357,9.793334961
1784150188.621354,0.001828859,-0.049097955,-1.442579746,0.000361053,-0.000642434,-0.000833403,0.465043932,0.034251694,9.770092964
1784150188.623296,0.001828859,-0.049097955,-1.442579746,0.000090094,-0.001067681,-0.001175785,0.468073905,0.027256751,9.803227425
1784150188.625264,0.001829317,-0.049097873,-1.442579627,0.000486177,-0.001549403,-0.000847564,0.498990953,0.022869730,9.797399521
1784150188.627254,0.001829317,-0.049097873,-1.442579627,0.000381498,-0.001376993,-0.000136821,0.513846159,-0.010478039,9.797649384
1784150188.629255,0.001829317,-0.049097873,-1.442579627,-0.000193614,-0.000632161,0.000076725,0.510897577,0.004859656,9.788330078
1784150188.631261,0.001828656,-0.049098998,-1.442579627,-0.000014202,-0.000074027,-0.000416537,0.511728168,-0.001353345,9.778427124
1784150188.633263,0.001828656,-0.049098998,-1.442579627,0.000548951,0.000166686,-0.000902473,0.502064228,0.016621625,9.788396835
1784150188.635254,0.001829123,-0.049100008,-1.442579627,0.000755713,0.000069933,-0.000554291,0.483396947,0.032049254,9.794754028
1784150188.637262,0.001829123,-0.049100008,-1.442579627,0.000746068,0.000304949,0.000061840,0.486454606,0.024056995,9.779013634
1784150188.639257,0.001829123,-0.049100008,-1.442579627,0.000813590,0.000673564,0.000475799,0.500843346,0.026138270,9.775454521
1784150188.641259,0.001829630,-0.049101740,-1.442579627,0.001072605,0.000274084,0.000737872,0.486359268,0.053599562,9.783238411
1784150188.643258,0.001829630,-0.049101740,-1.442579627,0.001166374,-0.000535008,0.000456405,0.490828305,0.051778845,9.779195786
1784150188.645266,0.001830736,-0.049103223,-1.442579627,0.000728634,-0.001013518,0.000666365,0.479156077,0.050260488,9.761689186
1784150188.647268,0.001830736,-0.049103223,-1.442579627,0.000143038,-0.000910248,0.000983879,0.499286622,0.045061488,9.763469696
1784150188.649265,0.001830736,-0.049103223,-1.442579627,-0.000620891,-0.000483086,0.000187655,0.477947742,0.025122570,9.770495415
1784150188.651267,0.001831426,-0.049102634,-1.442579627,-0.000939252,0.000008509,-0.000878400,0.490022808,0.021815717,9.772727013
1784150188.653267,0.001831426,-0.049102634,-1.442579627,-0.000303152,0.000462832,-0.001255955,0.479411960,-0.037388988,9.800581932
1784150188.655271,0.001828332,-0.049103513,-1.442579865,-0.000005380,0.000613160,-0.001135130,0.466007680,0.004468705,9.798146248
1784150188.657272,0.001828332,-0.049103513,-1.442579865,-0.000375011,0.000043478,-0.000799101,0.468660295,0.000069060,9.781982422
1784150188.659269,0.001828332,-0.049103513,-1.442579865,-0.000479340,-0.000105091,-0.000263732,0.507142603,0.028221276,9.786234856
1784150188.661278,0.001828401,-0.049104661,-1.442579865,0.000086184,0.000572168,0.000059468,0.514009058,0.039340418,9.785415649
1784150188.663284,0.001828401,-0.049104661,-1.442579865,0.000546012,0.000436163,0.000110966,0.512522519,-0.009472662,9.784651756
1784150188.665277,0.001826674,-0.049107399,-1.442579865,0.000186417,-0.000322283,0.000288120,0.482475936,0.029442945,9.784873009
1784150188.667276,0.001826674,-0.049107399,-1.442579865,-0.000342836,-0.000546940,0.000256110,0.477471709,0.024102036,9.788867950
1784150188.669283,0.001826674,-0.049107399,-1.442579865,-0.000322697,0.000057885,0.000418236,0.473847389,0.021847812,9.797369003
1784150188.671284,0.001826354,-0.049106475,-1.442579865,-0.000468749,0.000750334,0.000844371,0.501018226,0.040892366,9.779583931
1784150188.673286,0.001826354,-0.049106475,-1.442579865,-0.001015590,0.000577768,0.000789298,0.464081675,0.030914433,9.800107956
1784150188.675286,0.001827170,-0.049105819,-1.442579865,-0.001202181,-0.000070986,0.000548030,0.474393517,0.029095290,9.785311699
1784150188.677291,0.001827170,-0.049105819,-1.442579865,-0.000722569,-0.000460570,0.000427865,0.489460319,0.012817728,9.778944969
1784150188.679285,0.001827170,-0.049105819,-1.442579865,-0.000046796,-0.000640454,0.000431683,0.463105053,0.023005718,9.779881477
1784150188.681293,0.001827572,-0.049103938,-1.442579865,-0.000059510,-0.000657947,0.000416243,0.490355164,0.011570452,9.763694763
1784150188.683289,0.001827572,-0.049103938,-1.442579865,-0.000827717,-0.000521501,0.000892019,0.486080617,0.029921221,9.774120331
1784150188.685294,0.001828889,-0.049104981,-1.442579865,-0.001076490,-0.000066466,0.001403558,0.481140196,0.031163005,9.797435760
1784150188.687297,0.001828889,-0.049104981,-1.442579865,-0.000570204,0.000206378,0.001325680,0.493790627,0.038576033,9.803323746
1784150188.689327,0.001828889,-0.049104981,-1.442579865,-0.000172000,-0.000225037,0.001247430,0.471579731,0.018848933,9.782104492
1784150188.691302,0.001831213,-0.049111217,-1.442596555,-0.000030566,-0.000399191,0.000998087,0.482824355,0.008820583,9.785936356
1784150188.693327,0.001831213,-0.049111217,-1.442596555,-0.000284777,-0.000196882,0.000492446,0.490619391,-0.001238937,9.800374985
1784150188.695308,0.001830517,-0.049112156,-1.442596555,-0.000900324,-0.000185364,0.000531825,0.484610379,0.019231921,9.767771721
1784150188.697307,0.001830517,-0.049112156,-1.442596555,-0.001605257,-0.000445414,0.000757180,0.490153104,-0.002993233,9.795880318
1784150188.699305,0.001830517,-0.049112156,-1.442596555,-0.001178448,-0.000749450,0.000344546,0.476234674,-0.003288407,9.799451828
1784150188.701310,0.001829982,-0.049112171,-1.442596555,-0.000050487,-0.000655871,0.000065051,0.477599531,-0.003562842,9.772551537
1784150188.703317,0.001829982,-0.049112171,-1.442596555,0.000032609,-0.000257965,0.000223143,0.470389783,-0.005332645,9.782396317
1784150188.705320,0.001828507,-0.049112409,-1.442596555,-0.000251751,-0.000072923,0.000427437,0.492195159,0.016767187,9.785697937
1784150188.707318,0.001828507,-0.049112409,-1.442596555,-0.000116696,-0.000120144,0.000305017,0.486679733,0.043665543,9.793485641
1784150188.709314,0.001828507,-0.049112409,-1.442596555,0.000329534,0.000097789,-0.000450124,0.485609472,0.028938835,9.787114143
1784150188.711317,0.001829555,-0.049112052,-1.442596555,0.000766660,0.000526991,-0.001269329,0.487899005,0.030489270,9.753951073
1784150188.713313,0.001829555,-0.049112052,-1.442596555,0.001100948,0.000676279,-0.001668426,0.474391937,0.028272495,9.774993896
1784150188.715316,0.001829781,-0.049111851,-1.442596555,0.001178898,0.000639506,-0.001418683,0.477432817,0.018526554,9.753863335
1784150188.717325,0.001829781,-0.049111851,-1.442596555,0.000633841,0.000308349,-0.000445121,0.488925308,0.042842623,9.779135704
1784150188.719326,0.001829781,-0.049111851,-1.442596555,0.000180585,-0.000077278,0.000425681,0.474569261,0.043045677,9.776433945
1784150188.721328,0.001830805,-0.049110882,-1.442596555,0.000125854,-0.000122757,0.000339729,0.477618009,0.034983467,9.770556450
1784150188.723328,0.001830805,-0.049110882,-1.442596555,0.000323984,0.000041640,-0.000064392,0.483442068,-0.002347748,9.780186653
1784150188.725325,0.001828714,-0.049110983,-1.442596674,0.000504561,0.000266239,0.000093147,0.473582596,-0.000505733,9.790948868
1784150188.727325,0.001828714,-0.049110983,-1.442596674,0.000544476,0.000410190,0.000640900,0.474742532,0.022223856,9.805891037
1784150188.729326,0.001828714,-0.049110983,-1.442596674,0.000880297,0.000405192,0.000805135,0.495740950,0.050317660,9.786812782
1784150188.731332,0.001830817,-0.049110927,-1.442596555,0.001233201,0.000329827,0.000689877,0.489346772,0.040190436,9.773291588
1784150188.733331,0.001830817,-0.049110927,-1.442596555,0.000875611,0.000334110,0.000839939,0.481784910,0.046483319,9.784085274
1784150188.735330,0.001832456,-0.049112055,-1.442596555,0.000271193,0.000252381,0.000713566,0.476068944,0.019213961,9.785697937
1784150188.737341,0.001832456,-0.049112055,-1.442596555,0.000284643,0.000262491,0.000207421,0.473345071,0.016567051,9.784781456
1784150188.739333,0.001832456,-0.049112055,-1.442596555,0.000405386,0.000519985,-0.000051419,0.489588052,-0.013226997,9.786847115
1784150188.741344,0.001831532,-0.049113043,-1.442596674,0.000492067,0.000581807,-0.000276788,0.480753690,-0.002688087,9.769871712
1784150188.743351,0.001831532,-0.049113043,-1.442596674,0.000444227,0.000341603,-0.000695458,0.481961906,0.024880048,9.797395706
1784150188.745346,0.001831286,-0.049112540,-1.442596674,-0.000134501,0.000116159,-0.000622512,0.462930292,0.047058277,9.800209045
1784150188.747341,0.001831286,-0.049112540,-1.442596674,-0.000539558,-0.000139687,-0.000335182,0.485349506,0.008650217,9.805365562
1784150188.749343,0.001831286,-0.049112540,-1.442596674,-0.000128028,-0.000224807,-0.000268592,0.489298880,-0.001424819,9.765851974
1784150188.751346,0.001830315,-0.049112458,-1.442596674,0.000607122,-0.000130292,-0.000092156,0.499415249,0.020239806,9.788417816
1784150188.753349,0.001830315,-0.049112458,-1.442596674,0.000869791,-0.000167820,0.000251971,0.469071954,0.034523912,9.787583351
1784150188.755344,0.001830032,-0.049111545,-1.442596674,0.000553642,-0.000280457,0.000627745,0.470042914,0.002771378,9.777517319
1784150188.757351,0.001830032,-0.049111545,-1.442596674,0.000363521,-0.000107636,0.000361422,0.502283216,-0.001407495,9.803075790
1784150188.759352,0.001830032,-0.049111545,-1.442596674,0.000389858,0.000161918,-0.000066202,0.488659263,0.020479545,9.774061203
1784150188.761354,0.001830178,-0.049112435,-1.442596674,0.000624543,0.000334752,0.000145991,0.458743751,0.031755708,9.754379272
1784150188.763353,0.001830178,-0.049112435,-1.442596674,0.001231644,0.000584165,-0.000059083,0.472429156,0.015622217,9.793292046
1784150188.765357,0.001829433,-0.049112260,-1.442596674,0.001420046,0.000574148,-0.000787607,0.485981107,0.021435395,9.770478249
1784150188.767357,0.001829433,-0.049112260,-1.442596674,0.001300155,0.000174305,-0.001429235,0.473793089,-0.020628396,9.784991264
1784150188.769434,0.001829433,-0.049112260,-1.442596674,0.000905099,-0.000132100,-0.001825021,0.473370731,-0.017172508,9.803843498
1784150188.771365,0.001826987,-0.049111500,-1.442596793,0.000292933,-0.000121589,-0.001498798,0.514978349,0.006358473,9.759200096
1784150188.773365,0.001826987,-0.049111500,-1.442596793,0.000022612,-0.000479019,-0.000739400,0.488107681,0.013594173,9.798226357
1784150188.775372,0.001826650,-0.049111590,-1.442596793,-0.000336462,-0.000771218,-0.000583762,0.468523145,0.027660798,9.808609009
1784150188.777370,0.001826650,-0.049111590,-1.442596793,-0.000551725,-0.000136073,-0.000880775,0.484569609,0.017694073,9.795111656
1784150188.779368,0.001826650,-0.049111590,-1.442596793,-0.000307202,0.000716507,-0.000805506,0.473459154,0.027194116,9.802335739
1784150188.781379,0.001827207,-0.049112290,-1.442596793,0.000333259,0.000665319,-0.000537063,0.474100143,0.041269116,9.775076866
1784150188.783380,0.001827207,-0.049112290,-1.442596793,0.000467902,0.000019967,-0.000399576,0.482891351,0.027553143,9.797863007
1784150188.785383,0.001827758,-0.049112163,-1.442596793,-0.000313332,0.000048615,-0.000839591,0.498379230,0.043373346,9.750455856
1784150188.787379,0.001827758,-0.049112163,-1.442596793,-0.000714041,0.000554754,-0.001337683,0.497983783,0.013909296,9.799135208
1784150188.789424,0.001827758,-0.049112163,-1.442596793,-0.000939403,0.000593012,-0.000763580,0.496005684,0.035081238,9.786715508
1784150188.791394,0.001828712,-0.049112674,-1.442596674,-0.001270994,0.000313160,0.000230326,0.496889651,-0.000194939,9.831322670
1784150188.793424,0.001828712,-0.049112674,-1.442596674,-0.001005745,0.000017814,0.000304806,0.483484864,0.002042831,9.792767525
1784150188.795395,0.001828073,-0.049112711,-1.442596793,-0.000578669,-0.000500427,-0.000526792,0.482541412,-0.002361683,9.783771515
1784150188.797386,0.001828073,-0.049112711,-1.442596793,-0.000318496,-0.000518976,-0.000877958,0.479669720,-0.017522894,9.778740883
1784150188.799389,0.001828073,-0.049112711,-1.442596793,-0.000125740,-0.000086749,-0.000445321,0.494801760,-0.027611667,9.784070969
1784150188.801398,0.001826549,-0.049113281,-1.442596793,-0.000659560,-0.000285698,-0.000278498,0.485725522,0.001991827,9.795907974
1784150188.803390,0.001826549,-0.049113281,-1.442596793,-0.001286896,-0.000751824,-0.000195241,0.472747058,0.005262492,9.800400734
1784150188.805402,0.001825948,-0.049112633,-1.442596793,-0.000910739,-0.000956492,-0.000114462,0.472428054,0.014802605,9.782526970
1784150188.807395,0.001825948,-0.049112633,-1.442596793,-0.000143739,-0.000731041,-0.000359626,0.488425165,0.040821228,9.812299728
1784150188.809397,0.001825948,-0.049112633,-1.442596793,0.000377120,-0.000640825,-0.000141559,0.468025386,0.059194919,9.785497665
1784150188.811395,0.001827954,-0.049112305,-1.442596793,0.000403390,-0.001331026,0.000626290,0.468420476,0.053092595,9.760801315
1784150188.813400,0.001827954,-0.049112305,-1.442596793,0.000229199,-0.001327546,0.001152070,0.461520195,0.040896285,9.787167549
1784150188.815396,0.001828963,-0.049111605,-1.442596674,0.000369062,-0.000137948,0.001217200,0.457063794,0.043222193,9.783143997
1784150188.817403,0.001828963,-0.049111605,-1.442596674,0.000901367,0.000417592,0.001335804,0.491797894,0.021636916,9.794694901
1784150188.819400,0.001828963,-0.049111605,-1.442596674,0.001229950,0.000267727,0.000967727,0.480133325,0.020178970,9.768671036
1784150188.821442,0.001829077,-0.049111724,-1.442596674,0.000227785,0.000572127,0.000013950,0.508045793,0.028660916,9.785789490
1784150188.823421,0.001829077,-0.049111724,-1.442596674,-0.000829856,0.000669425,-0.000357148,0.487127751,0.006470091,9.793697357
1784150188.825459,0.001828332,-0.049111497,-1.442596793,-0.000778132,-0.000132743,-0.000594943,0.500553250,0.001964266,9.773056984
1784150188.827419,0.001828332,-0.049111497,-1.442596793,-0.000235183,-0.000830003,-0.000858260,0.462985456,0.012740768,9.774435997
1784150188.829421,0.001828332,-0.049111497,-1.442596793,0.000361494,-0.001036789,-0.000614842,0.446342707,0.011415651,9.801759720
1784150188.831434,0.001827766,-0.049109381,-1.442596674,0.000036533,-0.001215015,-0.000474979,0.476409853,0.010252175,9.785192490
1784150188.833421,0.001827766,-0.049109381,-1.442596674,-0.000923502,-0.001337384,-0.000320043,0.488787830,0.032031141,9.787585258
1784150188.835441,0.001828548,-0.049110144,-1.442596674,-0.001080391,-0.001344596,0.000155181,0.515077591,0.016057808,9.781232834
1784150188.837419,0.001828548,-0.049110144,-1.442596674,-0.000433485,-0.001283294,0.000051662,0.498793393,0.006720881,9.800435066
1784150188.839455,0.001828548,-0.049110144,-1.442596674,0.000149309,-0.000969519,-0.000076229,0.483343929,0.026362488,9.775439262
1784150188.841435,0.001829205,-0.049111746,-1.442596793,0.000504060,-0.000383743,0.000410140,0.469959825,-0.002747242,9.797655106
1784150188.843426,0.001829205,-0.049111746,-1.442596793,0.000705590,-0.000155717,0.000979879,0.479031503,0.042387590,9.797953606
1784150188.845435,0.001831578,-0.049112208,-1.442596793,0.000650301,-0.000223184,0.001682135,0.495568156,0.034769394,9.768331528
1784150188.847430,0.001831578,-0.049112208,-1.442596793,0.000578699,0.000072866,0.001726247,0.494023591,0.020251565,9.796482086
1784150188.849463,0.001831578,-0.049112208,-1.442596793,0.000436580,0.000115602,0.000764426,0.468698263,0.039984692,9.776408195
1784150188.851441,0.001833201,-0.049112517,-1.442596674,-0.000015832,-0.000318258,0.000186968,0.469551295,0.037596654,9.795672417
1784150188.853432,0.001833201,-0.049112517,-1.442596674,-0.000562580,-0.000527526,0.000344203,0.481030941,0.058164075,9.781020164
1784150188.855452,0.001835000,-0.049112242,-1.442596674,-0.000522405,-0.000305502,0.000262960,0.507654607,0.032768268,9.775952339
1784150188.857439,0.001835000,-0.049112242,-1.442596674,-0.000072653,0.000161123,-0.000353464,0.481712610,0.003053966,9.779771805
1784150188.859473,0.001835000,-0.049112242,-1.442596674,-0.000451430,0.000452792,-0.000497032,0.509225786,0.014769593,9.783907890
1784150188.861458,0.001833678,-0.049114317,-1.442596674,-0.001114442,0.000090480,-0.000118039,0.506014287,0.010199860,9.802257538
1784150188.863460,0.001833678,-0.049114317,-1.442596674,-0.001095225,-0.000591640,-0.000042049,0.502662361,-0.008447079,9.784201622
1784150188.865443,0.001832554,-0.049115371,-1.442596793,-0.000862086,-0.000892818,-0.000003303,0.485830545,0.010115539,9.787442207
1784150188.867440,0.001832554,-0.049115371,-1.442596793,-0.000580240,-0.000806891,-0.000063457,0.470151275,0.012137226,9.783405304
1784150188.869443,0.001832554,-0.049115371,-1.442596793,-0.000322218,-0.000871300,-0.000035696,0.495261371,0.010058400,9.778485298
1784150188.871453,0.001831843,-0.049116153,-1.442596793,-0.000443684,-0.000990203,0.000525190,0.500327528,0.021156035,9.783940315
1784150188.873448,0.001831843,-0.049116153,-1.442596793,-0.000580472,-0.000571106,0.000737960,0.455448449,0.020850934,9.781653404
1784150188.875444,0.001831204,-0.049114197,-1.442596793,-0.000603296,0.000059906,0.000479706,0.458356708,0.002358430,9.793642998
1784150188.877455,0.001831204,-0.049114197,-1.442596793,-0.000836702,0.000557374,0.000381696,0.488667905,0.023789782,9.812638283
1784150188.879455,0.001831204,-0.049114197,-1.442596793,-0.000863358,0.000810011,0.000346016,0.516748846,0.043328036,9.786787987
1784150188.881457,0.001832985,-0.049116511,-1.442596674,-0.000668380,0.000775198,0.000409404,0.496161044,0.009659357,9.769964218
1784150188.883467,0.001832985,-0.049116511,-1.442596674,-0.000743704,0.000698625,0.000382744,0.502281308,0.032519653,9.757563591
1784150188.885455,0.001834231,-0.049118116,-1.442596674,-0.000563545,0.000640309,0.000363682,0.481367171,0.049570750,9.791725159
1784150188.887459,0.001834231,-0.049118116,-1.442596674,0.000273204,0.000643773,0.000423379,0.473553330,-0.003168060,9.787344933
1784150188.889487,0.001834231,-0.049118116,-1.442596674,0.000448103,0.000631544,0.000700769,0.502432764,0.010309446,9.793288231
1784150188.891464,0.001833026,-0.049119454,-1.442596912,-0.000294331,0.000521806,0.001261936,0.486367404,0.017289890,9.785695076
1784150188.893486,0.001833026,-0.049119454,-1.442596912,-0.000384026,0.000364891,0.001689081,0.482485801,0.029115802,9.767834663
1784150188.895495,0.001833262,-0.049119536,-1.442596912,0.000074350,0.000085929,0.001512767,0.498845518,0.010374522,9.790594101
1784150188.897475,0.001833262,-0.049119536,-1.442596912,0.000051544,0.000108964,0.000338013,0.489619762,0.026234301,9.782169342
1784150188.899470,0.001833262,-0.049119536,-1.442596912,-0.000016946,0.000254844,-0.000932337,0.492659122,0.017692337,9.780772209
1784150188.901474,0.001832826,-0.049120534,-1.442596793,0.000162057,-0.000024538,-0.001011124,0.474390507,-0.008923563,9.776100159
1784150188.903476,0.001832826,-0.049120534,-1.442596793,0.000165903,-0.000191698,-0.000906052,0.460294634,0.013191432,9.778918266
1784150188.905471,0.001832586,-0.049119409,-1.442596912,0.000135407,-0.000130796,-0.001207631,0.478624254,0.008777798,9.799531937
1784150188.907476,0.001832586,-0.049119409,-1.442596912,-0.000175064,0.000146794,-0.000794673,0.489916474,-0.022287363,9.800239563
1784150188.909492,0.001832586,-0.049119409,-1.442596912,-0.000549731,0.000060748,-0.000188799,0.496507943,0.001555328,9.774844170
1784150188.911479,0.001831653,-0.049120672,-1.442596912,-0.000319523,-0.000435247,-0.000416958,0.481255293,0.001776238,9.771244049
1784150188.913482,0.001831653,-0.049120672,-1.442596912,0.000089169,-0.000241419,-0.000543590,0.482761830,0.015588550,9.779404640
1784150188.915483,0.001830966,-0.049120415,-1.442596912,-0.000010095,0.000133516,0.000104956,0.489337385,0.004147481,9.801306725
1784150188.917481,0.001830966,-0.049120415,-1.442596912,-0.000410780,0.000087645,0.000340442,0.468197972,0.036746603,9.791631699
1784150188.919483,0.001830966,-0.049120415,-1.442596912,-0.000554313,0.000307164,0.000098445,0.474119544,0.042638443,9.771499634
1784150188.921491,0.001832173,-0.049120285,-1.442596912,-0.001199783,0.000686690,0.000283552,0.484854996,0.039399702,9.766558647
1784150188.923493,0.001832173,-0.049120285,-1.442596912,-0.001688145,0.000945699,0.000364120,0.508854091,0.020246258,9.770493507
1784150188.925487,0.001832193,-0.049122345,-1.442596912,-0.001233156,0.000803428,0.000133428,0.493359685,0.003158485,9.807131767
1784150188.927489,0.001832193,-0.049122345,-1.442596912,-0.000982987,-0.000127303,-0.000039367,0.491256863,0.014024149,9.795093536
1784150188.929496,0.001832193,-0.049122345,-1.442596912,-0.000999440,-0.000802746,-0.000237754,0.497727782,-0.008374297,9.782852173
1784150188.931496,0.001831180,-0.049123075,-1.442596912,-0.000994974,-0.001351630,0.000050676,0.498595625,-0.011861373,9.767586708
1784150188.933495,0.001831180,-0.049123075,-1.442596912,-0.000615239,-0.002026198,0.000368173,0.498511314,0.018983738,9.777647972
1784150188.935497,0.001831673,-0.049123429,-1.442596912,0.000170951,-0.002234568,0.000511594,0.473522484,0.031746864,9.792051315
1784150188.937501,0.001831673,-0.049123429,-1.442596912,0.000533184,-0.001737561,0.000854028,0.469257504,0.049767312,9.785886765
1784150188.939499,0.001831673,-0.049123429,-1.442596912,0.000364661,-0.001349515,0.000561391,0.477670640,0.040667061,9.790320396
1784150188.941501,0.001832852,-0.049123008,-1.442596912,0.000601467,-0.001303365,0.000130840,0.500624835,0.009824074,9.801800728
1784150188.943504,0.001832852,-0.049123008,-1.442596912,0.001356890,-0.000809823,0.000109505,0.460091025,0.035394918,9.807307243
1784150188.945503,0.001833869,-0.049121197,-1.442596912,0.001244187,0.000079508,-0.000012449,0.486040980,0.029202990,9.812222481
1784150188.947510,0.001833869,-0.049121197,-1.442596912,0.000855322,0.000749679,-0.000264121,0.484759122,0.032969266,9.788932800
1784150188.949507,0.001833869,-0.049121197,-1.442596912,0.001256409,0.001013748,-0.000321261,0.456188977,0.008658629,9.793682098
1784150188.951509,0.001834125,-0.049120374,-1.442596912,0.001876339,0.001541029,0.000217159,0.470902920,0.000844028,9.794989586
1784150188.953516,0.001834125,-0.049120374,-1.442596912,0.001984381,0.001876182,0.000391951,0.505063713,0.004117962,9.777111053
1784150188.955515,0.001833877,-0.049121156,-1.442596912,0.001333159,0.001410897,0.000080930,0.488584161,0.016644659,9.809454918
1784150188.957515,0.001833877,-0.049121156,-1.442596912,0.001035515,0.000709719,-0.000093228,0.494341701,0.008678321,9.785200119
1784150188.959522,0.001833877,-0.049121156,-1.442596912,0.001022085,0.000575815,-0.000398195,0.481480449,0.020574713,9.773606300
1784150188.961522,0.001833759,-0.049122144,-1.442596912,0.000671522,0.000803935,-0.000294155,0.483523339,0.004778299,9.786060333
1784150188.963524,0.001833759,-0.049122144,-1.442596912,0.000721256,0.000803617,-0.000020236,0.513975680,0.034212906,9.750412941
1784150188.965524,0.001834204,-0.049123861,-1.442596793,0.001243964,0.000531362,-0.000344933,0.498515517,0.021448925,9.809046745
1784150188.967530,0.001834204,-0.049123861,-1.442596793,0.001514543,0.000154776,-0.000672899,0.498674810,0.034458879,9.806440353
1784150188.969532,0.001834204,-0.049123861,-1.442596793,0.001694531,-0.000011938,-0.000820988,0.518024027,0.037077487,9.781369209
1784150188.971530,0.001835443,-0.049125768,-1.442596912,0.002154457,0.000186721,-0.000872407,0.501562476,0.011750676,9.781191826
1784150188.973528,0.001835443,-0.049125768,-1.442596912,0.002524452,0.000292964,-0.000567041,0.489661485,0.028995199,9.771875381
1784150188.975537,0.001836492,-0.049126644,-1.442596912,0.002368981,-0.000488576,-0.000422252,0.485538006,0.022295728,9.776311874
1784150188.977537,0.001836492,-0.049126644,-1.442596912,0.001783973,-0.001302166,-0.000752129,0.485804409,0.007072027,9.774420738
1784150188.979537,0.001836492,-0.049126644,-1.442596912,0.001473337,-0.001178017,-0.000681383,0.480461627,0.048301954,9.782751083
1784150188.981540,0.001838060,-0.049126670,-1.442596912,0.001465443,-0.000858708,-0.000176927,0.476599723,0.026340621,9.790675163
1784150188.983542,0.001838060,-0.049126670,-1.442596912,0.001081521,-0.000460689,0.000299195,0.479048908,0.041714251,9.766566277
1784150188.985545,0.001838932,-0.049126346,-1.442596912,0.000733244,0.000224547,0.000882811,0.480662882,-0.008673740,9.792696953
1784150188.987543,0.001838932,-0.049126346,-1.442596912,0.000766959,0.000488416,0.001018287,0.491252482,0.013179104,9.787915230
1784150188.989566,0.001838932,-0.049126346,-1.442596912,0.000785197,-0.000035494,0.000499217,0.491135627,0.003746481,9.791440964
1784150188.991553,0.001837800,-0.049126983,-1.442596912,0.000473405,-0.000482771,-0.000349148,0.488651395,0.020822581,9.788858414
1784150188.993592,0.001837800,-0.049126983,-1.442596912,-0.000024033,-0.000785924,-0.001256306,0.516064882,0.024455830,9.795632362
1784150188.995565,0.001837483,-0.049128715,-1.442596793,-0.000192851,-0.001284930,-0.000925553,0.513225496,0.011575758,9.784788132
1784150188.997564,0.001837483,-0.049128715,-1.442596793,0.000266448,-0.001137623,0.000113448,0.465216339,0.049796797,9.789022446
1784150188.999557,0.001837483,-0.049128715,-1.442596793,0.000843095,-0.000489957,0.000386345,0.497326970,0.033246715,9.790291786
1784150189.001559,0.001837956,-0.049129184,-1.442596793,0.001372564,-0.000051997,0.000043579,0.496008337,0.035506941,9.789856911
1784150189.003559,0.001837956,-0.049129184,-1.442596793,0.001900877,0.000015297,-0.000496128,0.464993626,-0.004545791,9.807501793
1784150189.005559,0.001836874,-0.049128041,-1.442596912,0.001628152,-0.000418331,-0.000279271,0.479555994,0.010253268,9.779366493
1784150189.007565,0.001836874,-0.049128041,-1.442596912,0.000815339,-0.000621156,0.000131087,0.492571265,0.009298724,9.764130592
1784150189.009568,0.001836874,-0.049128041,-1.442596912,0.000064747,-0.000476339,-0.000037941,0.519697070,0.026367022,9.772336006
1784150189.011570,0.001836714,-0.049130440,-1.442596912,-0.000393367,-0.000463676,0.000145429,0.501758039,0.027883636,9.780397415
1784150189.013565,0.001836714,-0.049130440,-1.442596912,-0.000388101,-0.000714634,0.001018225,0.493252218,-0.007821144,9.776125908
1784150189.015570,0.001836494,-0.049131133,-1.442596912,-0.000764818,-0.001018127,0.001454201,0.502519667,0.017480006,9.792885780
1784150189.017570,0.001836494,-0.049131133,-1.442596912,-0.001611394,-0.000919205,0.000491000,0.458354145,0.074275821,9.761375427
1784150189.019569,0.001836494,-0.049131133,-1.442596912,-0.001270062,-0.000875360,-0.000227368,0.453564316,0.050464191,9.779150963
1784150189.021575,0.001838189,-0.049128879,-1.442596912,-0.000155962,-0.000911285,-0.000009571,0.473508000,0.028795548,9.766030312
1784150189.023626,0.001838189,-0.049128879,-1.442596912,0.000135723,-0.000535647,0.000114401,0.505616188,0.012226386,9.769989967
1784150189.025599,0.001838794,-0.049132168,-1.442596793,-0.000243985,0.000105698,-0.000010801,0.510393977,0.037969396,9.795714378
1784150189.027592,0.001838794,-0.049132168,-1.442596793,-0.000210734,0.000680995,-0.000660520,0.508392453,0.020150265,9.784838676
1784150189.029630,0.001838794,-0.049132168,-1.442596793,-0.000189824,0.000724138,-0.001460867,0.497005105,0.005174608,9.769039154
1784150189.031625,0.001837600,-0.049133178,-1.442596793,-0.000879298,0.000869168,-0.001719465,0.480697036,0.029996572,9.773217201
1784150189.033599,0.001837600,-0.049133178,-1.442596793,-0.001003404,0.000984426,-0.001203176,0.482936978,0.029129131,9.765145302
1784150189.035624,0.001837829,-0.049132984,-1.442596793,-0.000435366,0.000194451,-0.000361541,0.483484715,0.001636205,9.786936760
1784150189.037598,0.001837829,-0.049132984,-1.442596793,-0.000164436,-0.000217504,0.000252266,0.479817986,-0.005005423,9.782407761
1784150189.039600,0.001837829,-0.049132984,-1.442596793,-0.000249360,0.000063291,0.000395324,0.507194459,-0.005311607,9.776155472
1784150189.041601,0.001835484,-0.049133722,-1.442596912,-0.000585164,-0.000103751,-0.000062571,0.498202622,0.031036740,9.784449577
1784150189.043608,0.001835484,-0.049133722,-1.442596912,-0.000728751,-0.000788046,0.000178542,0.487410784,0.028156644,9.767832756
1784150189.045603,0.001836451,-0.049134854,-1.442597032,-0.000324123,-0.000916823,0.000808354,0.484001368,0.009461650,9.819715500
1784150189.047600,0.001836451,-0.049134854,-1.442597032,0.000047316,-0.000632815,0.001161081,0.494603872,0.031416234,9.800589561
1784150189.049606,0.001836451,-0.049134854,-1.442597032,-0.000371319,-0.000564141,0.001686951,0.478380233,0.025799705,9.800538063
1784150189.051603,0.001837377,-0.049135067,-1.442597032,-0.000746653,-0.000543376,0.001094970,0.475340813,0.033124980,9.783993721
1784150189.053606,0.001837377,-0.049135067,-1.442597032,-0.000076833,-0.000355439,0.000178780,0.514730811,0.025378531,9.794292450
1784150189.055607,0.001838180,-0.049136523,-1.442596912,0.000254949,0.000499913,0.000038603,0.485119194,0.026590312,9.803237915
1784150189.057673,0.001838180,-0.049136523,-1.442596912,0.000084919,0.001435446,-0.000387362,0.485581487,0.025475975,9.770056725
1784150189.059627,0.001838180,-0.049136523,-1.442596912,0.000404763,0.001391002,-0.000502442,0.490564018,0.030645186,9.790267944
1784150189.061678,0.001839133,-0.049136687,-1.442596912,0.000304040,0.000693485,-0.000139217,0.480527163,0.018524092,9.811701775
1784150189.063633,0.001839133,-0.049136687,-1.442596912,-0.000007140,-0.000064183,0.000141672,0.480686069,-0.006869174,9.790914536
1784150189.065618,0.001838533,-0.049135871,-1.442597032,0.000636878,-0.000338091,0.000439488,0.467184275,-0.011881454,9.763970375
1784150189.067619,0.001838533,-0.049135871,-1.442597032,0.001130294,-0.000084591,0.000117452,0.491604596,0.005116408,9.786967278
1784150189.069618,0.001838533,-0.049135871,-1.442597032,0.000421179,-0.000085725,-0.000228191,0.515173376,0.024108395,9.783077240
1784150189.071619,0.001839003,-0.049137432,-1.442596912,-0.000439109,-0.000030840,-0.000155292,0.497688174,0.025660602,9.785312653
1784150189.073623,0.001839003,-0.049137432,-1.442596912,-0.000915900,0.000511061,-0.000026944,0.489117354,0.021763619,9.781691551
1784150189.075620,0.001840195,-0.049138080,-1.442596912,-0.001209801,0.000885706,0.000319255,0.511594534,0.062640280,9.789597511
1784150189.077622,0.001840195,-0.049138080,-1.442596912,-0.000866196,0.000848069,0.000335939,0.489922643,0.051320128,9.782330513
1784150189.079623,0.001840195,-0.049138080,-1.442596912,-0.000271314,0.000907153,0.000313019,0.476486951,0.016939793,9.789719582
1784150189.081625,0.001841195,-0.049138121,-1.442596793,-0.000596200,0.001206153,0.000982512,0.495278805,0.011411821,9.777148247
1784150189.083625,0.001841195,-0.049138121,-1.442596793,-0.001032876,0.001318244,0.001451272,0.503372729,0.011445063,9.757877350
1784150189.085630,0.001841569,-0.049138989,-1.442596793,-0.000373986,0.001268684,0.000927093,0.470622241,0.013523061,9.776689529
1784150189.087630,0.001841569,-0.049138989,-1.442596793,0.000068854,0.001125429,0.000472371,0.497605920,0.018121578,9.774502754
1784150189.089630,0.001841569,-0.049138989,-1.442596793,-0.000028722,0.000716957,0.000571993,0.469786674,0.019291271,9.786140442
1784150189.091635,0.001842063,-0.049137171,-1.442596793,-0.000010904,0.000292105,0.000698153,0.484068215,0.012826304,9.787457466
1784150189.093638,0.001842063,-0.049137171,-1.442596793,0.000041379,0.000182718,0.000376046,0.474131048,0.007570898,9.788311005
1784150189.095638,0.001842106,-0.049136512,-1.442596912,-0.000152487,0.000288401,-0.000327289,0.475679666,0.024957363,9.797839165
1784150189.097641,0.001842106,-0.049136512,-1.442596912,-0.000788464,-0.000223690,-0.000771522,0.481051803,0.021549515,9.763300896
1784150189.099643,0.001842106,-0.049136512,-1.442596912,-0.000694364,-0.000803070,-0.000716317,0.483702630,0.019567369,9.785259247
1784150189.101647,0.001842814,-0.049136572,-1.442596793,0.000234204,-0.000280568,-0.000651420,0.486348450,0.015113677,9.776713371
1784150189.103648,0.001842814,-0.049136572,-1.442596793,0.000749200,0.000175024,-0.000802552,0.488645285,0.059174914,9.814211845
1784150189.105643,0.001845915,-0.049137849,-1.442596793,0.000733719,-0.000409486,-0.000485133,0.482092351,0.072820812,9.797255516
1784150189.107643,0.001845915,-0.049137849,-1.442596793,0.000373693,-0.001264955,-0.000022171,0.470890403,-0.001281307,9.778836250
1784150189.109653,0.001845915,-0.049137849,-1.442596793,-0.000027692,-0.001435015,0.000046618,0.474751234,0.021887178,9.790196419
1784150189.111653,0.001845900,-0.049136985,-1.442596793,0.000087287,-0.000681112,0.000066165,0.489590704,0.023168523,9.772286415
1784150189.113649,0.001845900,-0.049136985,-1.442596793,0.000479416,-0.000080122,-0.000099335,0.472101390,0.026309082,9.803224564
1784150189.115653,0.001846949,-0.049136333,-1.442596793,0.000411347,-0.000574672,-0.000189554,0.483216614,0.017657267,9.802731514
1784150189.117661,0.001846949,-0.049136333,-1.442596793,0.000071384,-0.000987142,-0.000039407,0.505698740,0.020172045,9.786629677
1784150189.119656,0.001846949,-0.049136333,-1.442596793,-0.000560371,-0.000128543,-0.000411578,0.489975303,0.018603673,9.783465385
1784150189.121665,0.001847111,-0.049136579,-1.442596793,-0.001253290,0.000715436,-0.000681853,0.477612555,0.032508738,9.740503311
1784150189.123670,0.001847111,-0.049136579,-1.442596793,-0.001202468,0.000926854,-0.000645437,0.460601211,0.002742664,9.798579216
1784150189.125671,0.001846066,-0.049135726,-1.442596793,-0.000839149,0.001044564,-0.001142095,0.460584402,0.000988981,9.793188095
1784150189.127671,0.001846066,-0.049135726,-1.442596793,-0.000649348,0.000914578,-0.001414967,0.480462551,0.011935042,9.793277740
1784150189.129668,0.001846066,-0.049135726,-1.442596793,-0.000243339,0.000685690,-0.000747586,0.491680950,0.010987603,9.780280113
1784150189.131671,0.001845520,-0.049135953,-1.442596793,0.000195008,0.000424647,0.000189590,0.518173099,0.011201284,9.765511513
1784150189.133675,0.001845520,-0.049135953,-1.442596793,0.000296870,0.000130490,0.000600611,0.497099519,0.012809022,9.766399384
1784150189.135675,0.001845062,-0.049136348,-1.442596793,0.000334354,-0.000189850,0.000646661,0.487718076,0.015687471,9.756545067
1784150189.137675,0.001845062,-0.049136348,-1.442596793,0.000105340,-0.000568650,0.001364959,0.463992715,0.021701213,9.772699356
1784150189.139680,0.001845062,-0.049136348,-1.442596793,0.000247741,-0.000720614,0.001672792,0.484443337,0.007781696,9.803118706
1784150189.141683,0.001844788,-0.049136333,-1.442596793,0.001063488,-0.000488819,0.000564251,0.476734996,-0.000860393,9.772119522
1784150189.143680,0.001844788,-0.049136333,-1.442596793,0.001006895,-0.000277940,-0.000081644,0.482835233,0.023057627,9.800075531
1784150189.145682,0.001844417,-0.049136270,-1.442596793,0.000292331,-0.000355805,0.000221697,0.503060997,0.024689328,9.786207199
1784150189.147685,0.001844417,-0.049136270,-1.442596793,0.000363738,-0.000798333,0.000676142,0.485779315,0.043248150,9.790793419
1784150189.149682,0.001844417,-0.049136270,-1.442596793,0.000940535,-0.001090149,0.000972101,0.473516613,0.032105796,9.804607391
1784150189.151687,0.001845391,-0.049135547,-1.442596793,0.000609454,-0.000609004,0.000919599,0.487786829,0.023525022,9.788427353
1784150189.153686,0.001845391,-0.049135547,-1.442596793,-0.000295904,0.000110865,0.000521317,0.482290059,0.016223138,9.817068100
1784150189.155685,0.001844974,-0.049135584,-1.442596793,-0.000362165,0.000305342,0.000158071,0.475212455,0.024006778,9.806351662
1784150189.157692,0.001844974,-0.049135584,-1.442596793,0.000364417,0.000292122,0.000309009,0.482238382,0.047325801,9.790814400
1784150189.159724,0.001844974,-0.049135584,-1.442596793,0.001330923,0.000496202,0.000023712,0.501587868,0.013977769,9.782998085
1784150189.161696,0.001845209,-0.049136791,-1.442596793,0.001677154,0.000903265,-0.000598445,0.495512217,0.030680513,9.776375771
1784150189.163694,0.001845209,-0.049136791,-1.442596793,0.000664818,0.001496006,-0.000167500,0.503021240,0.022754399,9.806370735
1784150189.165695,0.001844810,-0.049137954,-1.442596912,-0.000512044,0.001516021,0.000558638,0.490012199,0.021326415,9.778552055
1784150189.167694,0.001844810,-0.049137954,-1.442596912,-0.000322438,0.001147527,0.000076250,0.481725335,0.004775855,9.789645195
1784150189.169700,0.001844810,-0.049137954,-1.442596912,0.000320937,0.000713636,-0.000600216,0.476896971,0.013791957,9.790595055
1784150189.171708,0.001844937,-0.049137369,-1.442596912,0.000368950,0.000039668,-0.000698537,0.501120925,0.012623734,9.785231590
1784150189.173703,0.001844937,-0.049137369,-1.442596912,0.000278346,-0.000324959,-0.000607192,0.483979881,0.008076424,9.825535774
1784150189.175703,0.001844456,-0.049138054,-1.442596912,0.000140041,-0.000397238,0.000344853,0.472942442,0.020178756,9.781665802
1784150189.177708,0.001844456,-0.049138054,-1.442596912,-0.000322388,-0.000411213,0.001236618,0.464052498,0.027442036,9.784394264
1784150189.179706,0.001844456,-0.049138054,-1.442596912,-0.000567474,-0.000453843,0.001146101,0.501966476,0.046145119,9.795310974
1784150189.181712,0.001846956,-0.049138639,-1.442596793,-0.000134373,-0.000761815,0.001133744,0.519990325,0.013786560,9.776739120
1784150189.183713,0.001846956,-0.049138639,-1.442596793,0.000342268,-0.001114454,0.001214543,0.485301554,0.003408238,9.786501884
1784150189.185715,0.001845602,-0.049139157,-1.442596793,0.000386960,-0.001075782,0.000570549,0.460466832,0.028329892,9.792019844
1784150189.187712,0.001845602,-0.049139157,-1.442596793,0.000041629,-0.000968993,-0.000313947,0.483813852,0.028955473,9.788008690
1784150189.189719,0.001845602,-0.049139157,-1.442596793,-0.000591233,-0.000943741,-0.000525949,0.474106401,0.005350170,9.785607338
1784150189.191722,0.001845879,-0.049138568,-1.442596793,-0.001228057,-0.000438135,-0.000569644,0.480502665,0.013873155,9.772666931
1784150189.193719,0.001845879,-0.049138568,-1.442596793,-0.001565032,-0.000000174,-0.000438419,0.486652315,0.003022515,9.775292397
1784150189.195721,0.001845006,-0.049138762,-1.442596793,-0.001269480,0.000274608,0.000054929,0.483553737,0.043013364,9.764786720
1784150189.197717,0.001845006,-0.049138762,-1.442596793,-0.000775097,0.001086958,-0.000105320,0.500761986,0.019822301,9.781689644
1784150189.199725,0.001845006,-0.049138762,-1.442596793,-0.000867923,0.001541075,-0.000458220,0.475479543,0.008382800,9.797732353
1784150189.201724,0.001844507,-0.049139068,-1.442596793,-0.001106209,0.001170881,-0.000575066,0.462394357,0.000680183,9.770322800
1784150189.203729,0.001844507,-0.049139068,-1.442596793,-0.000831347,0.000589823,-0.000570951,0.470965207,0.006603928,9.803993225
1784150189.205730,0.001843920,-0.049138431,-1.442596912,-0.000359729,0.000251606,-0.000242115,0.491501361,0.035002004,9.805989265
1784150189.207727,0.001843920,-0.049138431,-1.442596912,0.000052904,-0.000178838,0.000538077,0.487564832,0.043962102,9.813215256
1784150189.209733,0.001843920,-0.049138431,-1.442596912,0.000238830,-0.000962033,0.001572987,0.468446702,0.018546149,9.767304420
1784150189.211735,0.001844536,-0.049139038,-1.442596793,-0.000071401,-0.001074144,0.001733045,0.477343470,0.013363683,9.787007332
1784150189.213735,0.001844536,-0.049139038,-1.442596793,-0.000326471,-0.000734880,0.000768835,0.504799008,0.021381153,9.807258606
1784150189.215736,0.001844501,-0.049139928,-1.442596793,-0.000245971,-0.000940582,0.000064319,0.476550490,0.021899166,9.785266876
1784150189.217742,0.001844501,-0.049139928,-1.442596793,-0.000677748,-0.001108457,0.000416694,0.472241312,0.037139650,9.792084694
1784150189.219738,0.001844501,-0.049139928,-1.442596793,-0.001003657,-0.000653438,0.000478023,0.472017169,0.017944086,9.782547951
1784150189.221744,0.001844427,-0.049138907,-1.442596912,-0.000983004,-0.000014552,-0.000161145,0.483266920,0.021701645,9.800963402
1784150189.223744,0.001844427,-0.049138907,-1.442596912,-0.000952782,0.000233277,-0.000393287,0.482980549,-0.003253820,9.782423019
1784150189.225747,0.001843520,-0.049139567,-1.442596912,-0.000607570,0.000212121,-0.000526906,0.513339162,0.020172868,9.772739410
1784150189.227746,0.001843520,-0.049139567,-1.442596912,-0.000388260,0.000557261,-0.000658393,0.506266952,0.030431237,9.792075157
1784150189.229744,0.001843520,-0.049139567,-1.442596912,-0.000061407,0.001273098,-0.000462497,0.478351891,0.022333669,9.783926964
1784150189.231752,0.001843834,-0.049139988,-1.442596793,0.000334953,0.001431448,-0.000086887,0.480539143,0.017402787,9.780309677
1784150189.233749,0.001843834,-0.049139988,-1.442596793,0.000487223,0.000577869,-0.000071600,0.483931959,0.002024367,9.794561386
1784150189.235752,0.001843546,-0.049140036,-1.442596793,0.000490673,-0.000075252,-0.000638467,0.474063188,0.036519609,9.749939919
1784150189.237750,0.001843546,-0.049140036,-1.442596793,0.000482817,0.000203817,-0.000848664,0.481376350,0.013674056,9.799117088
1784150189.239752,0.001843546,-0.049140036,-1.442596793,0.000638159,0.000366171,-0.000478260,0.484096915,0.015078829,9.785679817
1784150189.241758,0.001843086,-0.049140371,-1.442596793,0.000837213,0.000121984,0.000042417,0.488158673,0.016428206,9.777622223
1784150189.243761,0.001843086,-0.049140371,-1.442596793,0.000944873,-0.000181052,0.000348762,0.495471150,0.027519345,9.779941559
1784150189.245762,0.001843851,-0.049141351,-1.442596793,0.000880425,-0.000378287,-0.000078031,0.502031624,0.013527234,9.782547951
1784150189.247760,0.001843851,-0.049141351,-1.442596793,0.000239957,-0.000280143,-0.000623214,0.501927614,0.005006437,9.783839226
1784150189.249764,0.001843851,-0.049141351,-1.442596793,-0.000154608,-0.000070188,-0.000243260,0.479097277,0.009369452,9.778464317
1784150189.251770,0.001843022,-0.049141396,-1.442597032,0.000586592,-0.000090654,0.000088356,0.471090674,0.016509950,9.796883583
1784150189.253771,0.001843022,-0.049141396,-1.442597032,0.001196898,-0.000408877,-0.000231250,0.456018478,0.032339547,9.803248405
1784150189.255768,0.001843423,-0.049140092,-1.442596912,0.000626673,-0.000775853,-0.000123461,0.469943821,0.031068631,9.767834663
1784150189.257770,0.001843423,-0.049140092,-1.442596912,-0.000295925,-0.001127718,-0.000046214,0.483795255,0.026782446,9.778580666
1784150189.259771,0.001843423,-0.049140092,-1.442596912,-0.000528817,-0.000937697,-0.000167274,0.473882496,0.024151213,9.788417816
1784150189.261778,0.001843754,-0.049140137,-1.442596912,-0.000549662,-0.000387667,-0.000126572,0.490452856,0.020447005,9.775408745
1784150189.263774,0.001843754,-0.049140137,-1.442596912,-0.000877024,-0.000503483,-0.000443280,0.489128381,0.022256101,9.775418282
1784150189.265779,0.001844078,-0.049140260,-1.442596912,-0.001334208,-0.000817493,-0.001000557,0.485607028,0.028919768,9.789804459
1784150189.267776,0.001844078,-0.049140260,-1.442596912,-0.001612721,-0.001011057,-0.001370142,0.497617841,0.019837104,9.785274506
1784150189.269853,0.001844078,-0.049140260,-1.442596912,-0.001402977,-0.001357164,-0.001206624,0.503297210,0.006390304,9.775778770
1784150189.271791,0.001843551,-0.049141794,-1.442597032,-0.001302578,-0.001446521,-0.001122783,0.499245554,0.006337119,9.790568352
1784150189.273787,0.001843551,-0.049141794,-1.442597032,-0.001263409,-0.001313148,-0.001078706,0.485351533,0.008666124,9.803123474
1784150189.275791,0.001843210,-0.049141522,-1.442597032,-0.000692495,-0.001221835,-0.001045767,0.481680453,0.001179446,9.791416168
1784150189.277794,0.001843210,-0.049141522,-1.442597032,-0.000089946,-0.000722358,-0.001506461,0.493568689,0.019802995,9.797374725
1784150189.279791,0.001843210,-0.049141522,-1.442597032,0.000098903,-0.000015584,-0.001551730,0.480426937,0.008411768,9.784735680
1784150189.281799,0.001842916,-0.049142025,-1.442597032,-0.000436772,0.000268025,-0.000846942,0.478985071,0.000378433,9.782889366
1784150189.283799,0.001842916,-0.049142025,-1.442597032,-0.000986989,0.000693343,-0.000495013,0.480805963,0.004209025,9.808023453
1784150189.285799,0.001842352,-0.049142297,-1.442597032,-0.000322436,0.000848366,-0.000346117,0.505644798,0.015288983,9.780320168
1784150189.287829,0.001842352,-0.049142297,-1.442597032,0.000643650,0.000467799,0.000139456,0.485590488,0.028789397,9.808184624
1784150189.289809,0.001842352,-0.049142297,-1.442597032,0.000754782,0.000504597,0.000223222,0.455391616,0.015538990,9.772652626
1784150189.291810,0.001841404,-0.049141526,-1.442597032,0.000710830,0.000676966,0.000248754,0.484277993,0.030287251,9.788914680
1784150189.293805,0.001841404,-0.049141526,-1.442597032,0.000785161,0.000760962,0.000989363,0.489963531,0.016484696,9.766415596
1784150189.295807,0.001841348,-0.049141534,-1.442597032,0.001056590,0.000768137,0.001149845,0.489397794,0.007461273,9.776221275
1784150189.297806,0.001841348,-0.049141534,-1.442597032,0.001164561,0.000583424,0.000110238,0.468254507,0.041245289,9.788969040
1784150189.299812,0.001841348,-0.049141534,-1.442597032,0.000662901,0.000345575,-0.000395877,0.482800215,0.054697290,9.761273384
1784150189.301810,0.001843296,-0.049142566,-1.442597032,0.000511145,0.000056691,0.000101606,0.482621342,0.041938160,9.791677475
1784150189.303811,0.001843296,-0.049142566,-1.442597032,0.000803061,0.000238992,0.000286326,0.508626461,0.039828755,9.789447784
1784150189.305814,0.001844907,-0.049144555,-1.442596912,0.000927166,0.000464960,0.000060236,0.492595702,0.048702791,9.767521858
1784150189.307817,0.001844907,-0.049144555,-1.442596912,0.000777673,0.000077175,-0.000595327,0.472839296,0.048444208,9.776467323
1784150189.309819,0.001844907,-0.049144555,-1.442596912,0.000883533,-0.000370738,-0.000892960,0.465388387,0.026128596,9.777662277
1784150189.311828,0.001846986,-0.049143527,-1.442596912,0.001465785,-0.000600244,-0.000169746,0.466237277,-0.014287823,9.789059639
1784150189.313819,0.001846986,-0.049143527,-1.442596912,0.001800097,-0.000852590,-0.000275323,0.465839148,-0.011451217,9.768903732
1784150189.315820,0.001845922,-0.049142849,-1.442596912,0.001391940,-0.001119059,-0.000407886,0.475905001,0.005762416,9.787404060
1784150189.317822,0.001845922,-0.049142849,-1.442596912,0.000750374,-0.001188784,0.000362176,0.459023774,0.021097092,9.803627014
1784150189.319820,0.001845922,-0.049142849,-1.442596912,0.000139211,-0.001148365,0.000977593,0.474802136,0.026341360,9.793813705
1784150189.321828,0.001846110,-0.049142439,-1.442596912,-0.000246944,-0.000809696,0.000795922,0.450732291,0.039668124,9.790287971
1784150189.323824,0.001846110,-0.049142439,-1.442596912,-0.000543600,-0.000450834,0.000014311,0.471664459,0.025596965,9.778113365
1784150189.325831,0.001846043,-0.049141787,-1.442596912,-0.000602738,-0.000678294,-0.000358988,0.453630745,0.019882616,9.795095444
1784150189.327829,0.001846043,-0.049141787,-1.442596912,0.000038181,-0.001016575,-0.000107305,0.470511079,0.004134946,9.773939133
1784150189.329831,0.001846043,-0.049141787,-1.442596912,0.000634669,-0.000871634,0.000601932,0.490004420,0.020049306,9.769128799
1784150189.331843,0.001844613,-0.049141686,-1.442596912,0.000907073,-0.000675297,0.001281318,0.499722838,0.044147089,9.765257835
1784150189.333838,0.001844613,-0.049141686,-1.442596912,0.000945101,-0.000419665,0.001307270,0.482909441,0.028506290,9.789799690
1784150189.335832,0.001844740,-0.049141712,-1.442596912,0.001065845,-0.000052680,0.001038501,0.482322156,0.016070882,9.775372505
1784150189.337837,0.001844740,-0.049141712,-1.442596912,0.001427141,0.000374706,0.000681565,0.459142745,0.030952245,9.803690910
1784150189.339839,0.001844740,-0.049141712,-1.442596912,0.001822682,0.001136929,0.000045175,0.479021162,0.003094816,9.778871536
1784150189.341841,0.001843836,-0.049141936,-1.442597032,0.001871381,0.001228464,-0.000692169,0.497884095,0.004206772,9.777552605
1784150189.343852,0.001843836,-0.049141936,-1.442597032,0.001337321,0.000525551,-0.000945680,0.513436019,0.026206229,9.743186951
1784150189.345847,0.001844143,-0.049143728,-1.442596912,0.000657561,0.000047970,-0.000372454,0.512556732,-0.008392322,9.758656502
1784150189.347844,0.001844143,-0.049143728,-1.442596912,0.000707340,-0.000019161,0.000264187,0.475546837,0.048530526,9.759433746
1784150189.349852,0.001844143,-0.049143728,-1.442596912,0.001176037,-0.000251502,0.000529068,0.468732476,0.043091793,9.780464172
1784150189.351851,0.001845261,-0.049143806,-1.442596912,0.001063718,-0.000595417,0.000648130,0.450338930,0.045379717,9.806911469
1784150189.353888,0.001845261,-0.049143806,-1.442596912,0.000858591,-0.000591309,0.000519467,0.442975909,0.031457730,9.824748993
1784150189.355856,0.001845224,-0.049142316,-1.442596912,0.000677032,-0.000367663,-0.000277106,0.468761861,0.011407623,9.825542450
1784150189.357870,0.001845224,-0.049142316,-1.442596912,0.000290337,-0.000362880,-0.001039203,0.488854498,0.035799246,9.761607170
1784150189.359863,0.001845224,-0.049142316,-1.442596912,0.000293719,-0.000600667,-0.000909306,0.507339656,0.044366948,9.783647537
1784150189.361862,0.001845613,-0.049143340,-1.442596912,0.000602898,-0.000656296,0.000016848,0.490289807,0.047428619,9.824897766
1784150189.363859,0.001845613,-0.049143340,-1.442596912,0.000718484,-0.000698627,0.001178756,0.472728997,0.038252383,9.760710716
1784150189.365864,0.001846183,-0.049143258,-1.442596912,0.000966226,-0.000729126,0.001682472,0.489932060,0.014209916,9.771332741
1784150189.367862,0.001846183,-0.049143258,-1.442596912,0.001027971,-0.000152548,0.001474913,0.483538449,0.042892534,9.781821251
1784150189.369871,0.001846183,-0.049143258,-1.442596912,0.000623635,0.000436645,0.000944849,0.454724640,-0.001172906,9.792719841
1784150189.371870,0.001845753,-0.049142562,-1.442596912,-0.000018608,0.000491411,0.000592168,0.455184281,0.035687093,9.775025368
1784150189.373871,0.001845753,-0.049142562,-1.442596912,-0.000125605,0.000543091,0.000714970,0.475429386,0.039498176,9.769688606
1784150189.375867,0.001846543,-0.049142327,-1.442596912,0.000339804,0.000629874,0.000643101,0.486735642,0.047754429,9.785442352
1784150189.377870,0.001846543,-0.049142327,-1.442596912,0.000459126,0.000408362,0.000444396,0.493320882,0.036389671,9.796584129
1784150189.379879,0.001846543,-0.049142327,-1.442596912,0.000490794,0.000227487,0.000642429,0.485158205,0.027708808,9.771862030
1784150189.381877,0.001846611,-0.049142446,-1.442596912,0.000915334,0.000415931,0.000698856,0.468557507,0.027121004,9.758393288
1784150189.383875,0.001846611,-0.049142446,-1.442596912,0.001711411,0.000229511,-0.000163657,0.456288904,0.051900763,9.761230469
1784150189.385880,0.001847733,-0.049141519,-1.442596912,0.001638303,-0.000132357,-0.000938701,0.487108439,0.041070599,9.779572487
1784150189.387864,0.001847733,-0.049141519,-1.442596912,0.000772791,-0.000051319,-0.000509833,0.514461637,0.039769918,9.787211418
1784150189.389883,0.001847733,-0.049141519,-1.442596912,0.000554457,-0.000216039,0.000343556,0.486920059,0.023778170,9.754353523
1784150189.391885,0.001848195,-0.049141966,-1.442596912,0.000321939,-0.000495686,0.000711509,0.495714784,0.008874110,9.755163193
1784150189.393884,0.001848195,-0.049141966,-1.442596912,-0.000022584,-0.000315551,0.000331554,0.485010266,0.013977819,9.749805450
1784150189.395886,0.001848195,-0.049141813,-1.442596912,0.000431225,-0.000192698,0.000182196,0.460911989,-0.010104510,9.777425766
1784150189.397885,0.001848195,-0.049141813,-1.442596912,0.000577211,-0.000355966,0.000522985,0.460279644,0.011857088,9.777565002
1784150189.399890,0.001848195,-0.049141813,-1.442596912,0.000051652,-0.000430876,0.000571917,0.480050504,0.017093753,9.824691772
1784150189.401895,0.001847787,-0.049141280,-1.442596912,-0.000257614,-0.000500476,-0.000006165,0.487973034,0.037558079,9.767893791
1784150189.403895,0.001847787,-0.049141280,-1.442596912,-0.000430905,-0.000714950,-0.000229551,0.514321148,0.028529555,9.792967796
1784150189.405894,0.001848154,-0.049142458,-1.442596912,-0.000281217,-0.000249509,0.000478103,0.495307744,0.013260902,9.769090652
1784150189.407891,0.001848154,-0.049142458,-1.442596912,0.000463379,0.000299804,0.000815285,0.471084654,0.051215384,9.767964363
1784150189.409898,0.001848154,-0.049142458,-1.442596912,0.001273472,0.000285541,0.000661895,0.495584995,0.038549852,9.803774834
1784150189.411897,0.001849161,-0.049142912,-1.442596912,0.001685744,0.000652062,0.001039368,0.491675735,0.048536237,9.792626381
1784150189.413899,0.001849161,-0.049142912,-1.442596912,0.001552262,0.000958970,0.001440249,0.519648671,0.021121854,9.753920555
1784150189.415898,0.001849141,-0.049144462,-1.442596793,0.001051389,0.000471803,0.000933405,0.484636158,0.022272257,9.781241417
1784150189.417904,0.001849141,-0.049144462,-1.442596793,0.000683567,-0.000310615,-0.000160283,0.454964578,0.016526511,9.760553360
1784150189.419901,0.001849141,-0.049144462,-1.442596793,0.000618319,-0.000540467,-0.001008963,0.480875045,0.007996211,9.779353142
1784150189.421913,0.001848524,-0.049143836,-1.442596793,0.000859530,-0.000572344,-0.000759516,0.469160765,0.041303743,9.779108047
1784150189.423908,0.001848524,-0.049143836,-1.442596793,0.001466402,-0.000764754,-0.000162862,0.484675407,0.025824150,9.785748482
1784150189.425912,0.001848191,-0.049144398,-1.442596793,0.001878649,-0.000485970,-0.000484096,0.497956634,-0.025110411,9.804711342
1784150189.427914,0.001848191,-0.049144398,-1.442596793,0.001406408,0.000157874,-0.000789090,0.462948233,0.009204773,9.767687798
1784150189.429915,0.001848191,-0.049144398,-1.442596793,0.000932424,0.000532115,-0.000001108,0.488927037,0.006482072,9.788766861
1784150189.431915,0.001847748,-0.049144402,-1.442596912,0.001049957,0.000221236,0.000985604,0.455160409,0.034282796,9.783531189
1784150189.433923,0.001847748,-0.049144402,-1.442596912,0.001098493,-0.000269734,0.000872498,0.483150572,0.049052089,9.798449516
1784150189.435920,0.001849417,-0.049144540,-1.442596793,0.000650326,-0.000277877,0.000412192,0.461587578,0.009917627,9.795935631
1784150189.437925,0.001849417,-0.049144540,-1.442596793,0.000470509,-0.000000171,0.000529973,0.468465567,0.021532422,9.788396835
1784150189.439918,0.001849417,-0.049144540,-1.442596793,0.001206737,0.000173789,0.000779461,0.492457449,0.037884954,9.776866913
1784150189.441930,0.001849843,-0.049144525,-1.442596793,0.001959525,0.000244406,0.000925139,0.521688461,0.044916734,9.806530952
1784150189.443923,0.001849843,-0.049144525,-1.442596793,0.001804153,0.000359318,0.000723618,0.512565315,0.030481121,9.773699760
1784150189.445927,0.001850109,-0.049145870,-1.442596793,0.001057345,0.000325196,0.000358527,0.504009128,0.027915310,9.771882057
1784150189.447929,0.001850109,-0.049145870,-1.442596793,0.000289961,-0.000221113,0.000396182,0.481194675,0.032808948,9.754855156
1784150189.449956,0.001850109,-0.049145870,-1.442596793,-0.000362390,-0.000958079,0.000096645,0.487253100,0.015159414,9.768646240
1784150189.451936,0.001850018,-0.049145885,-1.442596793,-0.000471702,-0.001102804,-0.000136851,0.487552673,0.004249968,9.790097237
1784150189.453936,0.001850018,-0.049145885,-1.442596793,-0.000023401,-0.000644593,0.000780138,0.489937037,0.015464764,9.783893585
1784150189.455935,0.001850925,-0.049146753,-1.442596793,0.000179725,-0.000074033,0.001214604,0.491814166,0.022170726,9.782593727
1784150189.457940,0.001850925,-0.049146753,-1.442596793,-0.000127419,-0.000134033,0.000643196,0.507556558,0.023888532,9.764686584
1784150189.460018,0.001850925,-0.049146753,-1.442596793,-0.000282338,-0.000554918,-0.000027786,0.475137562,0.014904834,9.763252258
1784150189.461990,0.001850540,-0.049146637,-1.442596793,-0.000285787,-0.000807825,-0.000660531,0.454387575,0.045004029,9.789429665
1784150189.463971,0.001850540,-0.049146637,-1.442596793,0.000051393,-0.001285486,-0.000833745,0.474968612,0.039408542,9.783135414
1784150189.465987,0.001851622,-0.049146377,-1.442596793,0.000531164,-0.001515743,-0.000020208,0.456327796,0.019886278,9.789717674
1784150189.467954,0.001851622,-0.049146377,-1.442596793,0.000634470,-0.000980630,0.000864799,0.491275370,0.014170407,9.774471283
1784150189.469982,0.001851622,-0.049146377,-1.442596793,0.000134355,-0.000436513,0.000841546,0.481622845,0.032641035,9.777719498
1784150189.471971,0.001851031,-0.049145211,-1.442596912,-0.001135734,-0.000367477,0.000027064,0.485245913,0.035695799,9.782674789
1784150189.473963,0.001851031,-0.049145211,-1.442596912,-0.002350423,-0.000314507,-0.000494516,0.479933172,0.042004447,9.787192345
1784150189.475957,0.001852563,-0.049144983,-1.442596793,-0.002564973,0.000052972,0.000085162,0.483420968,0.033860188,9.792075157
1784150189.477965,0.001852563,-0.049144983,-1.442596793,-0.001653419,0.000382155,0.000347025,0.496434003,-0.004296778,9.778841972
1784150189.479965,0.001852563,-0.049144983,-1.442596793,-0.000807956,0.000446544,-0.000527957,0.491324395,0.019015310,9.786158562
1784150189.481970,0.001852432,-0.049145151,-1.442596793,-0.000985022,0.000718434,-0.001237586,0.473342746,0.016954603,9.793303490
1784150189.483964,0.001852432,-0.049145151,-1.442596793,-0.001276471,0.001093930,-0.001049792,0.479608566,0.015936850,9.799130440
1784150189.485971,0.001852930,-0.049145497,-1.442596793,-0.001041723,0.000947566,-0.000734097,0.459177047,-0.004340688,9.789118767
1784150189.487977,0.001852930,-0.049145497,-1.442596793,-0.000766136,0.000514831,-0.000343302,0.510925412,-0.030484147,9.780929565
1784150189.490087,0.001852930,-0.049145497,-1.442596793,-0.000635439,0.000416113,-0.000021412,0.482415557,-0.012270886,9.791330338
1784150189.492019,0.001849834,-0.049146630,-1.442596912,-0.000755836,0.000419959,-0.000021513,0.480717778,0.032592129,9.786235809
1784150189.494037,0.001849834,-0.049146630,-1.442596912,-0.001085207,-0.000081600,0.000462618,0.484585315,0.019844854,9.807677269
1784150189.495999,0.001850007,-0.049145866,-1.442596912,-0.001078085,-0.000902613,0.001300556,0.484807730,0.000221020,9.794550896
1784150189.497987,0.001850007,-0.049145866,-1.442596912,-0.000796702,-0.001088380,0.001697099,0.498518854,0.020664299,9.793350220
1784150189.500020,0.001850007,-0.049145866,-1.442596912,-0.000567224,-0.000682560,0.001754357,0.496991903,0.042659640,9.790352821
1784150189.502034,0.001852170,-0.049147833,-1.442596793,-0.000582037,-0.000475512,0.001885545,0.464207858,0.039610118,9.774160385
1784150189.504042,0.001852170,-0.049147833,-1.442596793,-0.001207157,-0.000299613,0.001908070,0.466949999,0.042806733,9.760734558
1784150189.506007,0.001854828,-0.049147483,-1.442596674,-0.001714292,-0.000077046,0.001293110,0.485499740,0.055936720,9.771145821
1784150189.507989,0.001854828,-0.049147483,-1.442596674,-0.001464095,0.000406049,0.000252181,0.474800855,0.026331823,9.795157433
1784150189.509995,0.001854828,-0.049147483,-1.442596674,-0.000719922,0.000983143,-0.000052682,0.485486716,0.017838378,9.773144722
1784150189.511991,0.001854861,-0.049147617,-1.442596674,0.000050838,0.000982232,0.000517524,0.503221452,0.000118848,9.775737762
1784150189.513994,0.001854861,-0.049147617,-1.442596674,0.000170932,0.000232133,0.000639207,0.510852158,0.000043366,9.772607803
1784150189.515990,0.001854075,-0.049148723,-1.442596912,0.000200221,-0.000831339,0.000020858,0.493912697,0.009649944,9.775341988
1784150189.518001,0.001854075,-0.049148723,-1.442596912,0.000806723,-0.000965403,-0.000262637,0.444717437,0.024934713,9.793774605
1784150189.519997,0.001854075,-0.049148723,-1.442596912,0.001413277,-0.000692172,0.000399655,0.465941578,0.036673594,9.805975914
1784150189.522009,0.001855394,-0.049147245,-1.442596793,0.001469805,-0.000993502,0.000968987,0.473825753,0.020055965,9.797357559
1784150189.524002,0.001855394,-0.049147245,-1.442596793,0.001204614,-0.001259727,0.000733127,0.480423003,0.009596665,9.807161331
1784150189.526001,0.001854960,-0.049147803,-1.442596793,0.000744113,-0.001108359,0.000490597,0.481518805,0.024930315,9.791120529
1784150189.528000,0.001854960,-0.049147803,-1.442596793,0.000159605,-0.000634978,0.000243337,0.488933921,0.007752818,9.799086571
1784150189.530008,0.001854960,-0.049147803,-1.442596793,-0.000316498,0.000000508,-0.000278235,0.478170872,0.009152018,9.810741425
1784150189.532010,0.001854785,-0.049147334,-1.442596793,-0.000503912,0.000173304,-0.000587350,0.488100916,0.012730048,9.793737411
1784150189.534013,0.001854785,-0.049147334,-1.442596793,-0.000683556,-0.000225648,-0.000273976,0.484407067,0.004658693,9.801302910
1784150189.536006,0.001853689,-0.049147811,-1.442596912,-0.000888108,-0.000606478,0.000116161,0.487848222,-0.007501332,9.803919792
1784150189.538009,0.001853689,-0.049147811,-1.442596912,-0.000637705,-0.000901456,-0.000375319,0.468470156,-0.014805863,9.794888496
1784150189.540009,0.001853689,-0.049147811,-1.442596912,-0.000109442,-0.000904082,-0.000731626,0.462880075,0.004613870,9.783349991
1784150189.542015,0.001852693,-0.049146473,-1.442596912,0.000242757,-0.000354087,0.000058837,0.482697368,0.046996094,9.773328781
1784150189.544017,0.001852693,-0.049146473,-1.442596912,0.000323605,0.000551455,0.000799681,0.481746346,0.041721087,9.760740280
1784150189.546017,0.001853645,-0.049146991,-1.442596793,0.000234448,0.000783957,0.000813260,0.485708863,0.036207970,9.772814751
1784150189.548014,0.001853645,-0.049146991,-1.442596793,0.000000503,0.000379070,0.000837736,0.503571451,0.031250380,9.807769775
1784150189.550019,0.001853645,-0.049146991,-1.442596793,-0.000672830,0.000360521,0.000693841,0.478383750,0.025421701,9.790671349
1784150189.552019,0.001853894,-0.049147461,-1.442596912,-0.001181294,0.000312531,0.000372173,0.471679986,0.025314353,9.754797935
1784150189.554019,0.001853894,-0.049147461,-1.442596912,-0.001029377,0.000179397,0.000553316,0.466166377,-0.017684277,9.825802803
1784150189.556020,0.001852544,-0.049146608,-1.442597032,-0.000918770,-0.000040263,0.000143039,0.485909492,0.016412437,9.783896446
1784150189.558033,0.001852544,-0.049146608,-1.442597032,-0.000607447,-0.000773764,-0.000971004,0.489440978,0.009828265,9.758302689
1784150189.560024,0.001852544,-0.049146608,-1.442597032,-0.000254531,-0.001310578,-0.001601868,0.500550449,0.002752079,9.788306236
1784150189.562029,0.001851847,-0.049147155,-1.442597032,-0.000497636,-0.001085826,-0.001806084,0.494233191,0.036495812,9.779997826
1784150189.564030,0.001851847,-0.049147155,-1.442597032,-0.000635676,-0.000635083,-0.001862933,0.480412811,0.045890454,9.806944847
1784150189.566034,0.001852773,-0.049147207,-1.442597032,-0.000184617,-0.001000292,-0.001311624,0.475472718,0.045108635,9.799760818
1784150189.568033,0.001852773,-0.049147207,-1.442597032,0.000138446,-0.001577914,0.000008895,0.471734256,0.033037420,9.802818298
1784150189.570035,0.001852773,-0.049147207,-1.442597032,-0.000211080,-0.001017344,0.000469968,0.467610538,0.023904564,9.771373749
1784150189.572035,0.001853215,-0.049146578,-1.442596912,-0.000475093,-0.000079148,-0.000454836,0.471645623,0.023827387,9.774963379
1784150189.574040,0.001853215,-0.049146578,-1.442596912,0.000012789,-0.000015432,-0.001058710,0.472737998,0.004785909,9.804431915
1784150189.576039,0.001852535,-0.049146518,-1.442597032,0.000594135,-0.000624736,-0.000635434,0.481163383,-0.003812328,9.801245689
1784150189.578043,0.001852535,-0.049146518,-1.442597032,0.000754595,-0.000379920,-0.000630543,0.468727678,0.007490445,9.809377670
1784150189.580041,0.001852535,-0.049146518,-1.442597032,0.000514215,0.000110811,-0.001040999,0.494901717,0.019277371,9.805891037
1784150189.582048,0.001852350,-0.049146809,-1.442597032,0.000238605,-0.000291450,-0.000550125,0.499415040,0.020643260,9.794694901
1784150189.584045,0.001852350,-0.049146809,-1.442597032,0.000240686,-0.000261477,-0.000388976,0.481586576,-0.005235095,9.811551094
1784150189.586046,0.001851369,-0.049146857,-1.442597032,0.000012241,0.000125810,-0.000757309,0.474930584,0.035866186,9.777285576
1784150189.588045,0.001851369,-0.049146857,-1.442597032,-0.000411690,0.000136970,-0.000413793,0.478211105,0.010280051,9.778020859
1784150189.590054,0.001851369,-0.049146857,-1.442597032,-0.000141223,0.000228295,-0.000071902,0.505820274,0.030452883,9.789834023
1784150189.592053,0.001851527,-0.049147621,-1.442597032,0.000111090,0.000296885,-0.000255983,0.499486953,0.026479468,9.792941093
1784150189.594052,0.001851527,-0.049147621,-1.442597032,-0.000141087,0.000171230,-0.000337599,0.496186525,0.013913212,9.801822662
1784150189.596051,0.001850804,-0.049148608,-1.442597032,-0.000417880,-0.000066177,0.000071331,0.496247381,0.016420104,9.764180183
1784150189.598055,0.001850804,-0.049148608,-1.442597032,-0.000583189,-0.000239075,0.000297083,0.516871452,0.015621831,9.776298523
1784150189.600060,0.001850804,-0.049148608,-1.442597032,-0.001026310,-0.000284572,-0.000350855,0.494805783,0.010820166,9.798215866
1784150189.602059,0.001850782,-0.049148843,-1.442597032,-0.001618249,-0.000152047,-0.000948738,0.469890356,-0.008564372,9.796722412
1784150189.604055,0.001850782,-0.049148843,-1.442597032,-0.001237118,-0.000032360,-0.000714954,0.466825008,-0.002659299,9.790928841
1784150189.606065,0.001849718,-0.049148630,-1.442597032,-0.000728444,-0.000325422,-0.000582499,0.470571756,0.009072063,9.772625923
1784150189.608065,0.001849718,-0.049148630,-1.442597032,-0.000788230,-0.000315185,-0.000990895,0.494457006,0.019314917,9.801407814
1784150189.610070,0.001849718,-0.049148630,-1.442597032,-0.001044902,0.000071890,-0.001178320,0.504549205,0.035115093,9.766548157
1784150189.612068,0.001850136,-0.049148958,-1.442597032,-0.001107757,0.000206324,-0.000954445,0.497294933,0.030562133,9.789826393
1784150189.614076,0.001850136,-0.049148958,-1.442597032,-0.000593281,0.000245215,-0.000953261,0.476446241,0.013781809,9.792836189
1784150189.616069,0.001849875,-0.049148772,-1.442597032,-0.000018381,0.000292045,-0.001385220,0.496897817,-0.004588329,9.755973816
1784150189.618122,0.001849875,-0.049148772,-1.442597032,0.000598844,0.000305358,-0.001591387,0.475500226,0.008951582,9.780699730
1784150189.620082,0.001849875,-0.049148772,-1.442597032,0.000896420,-0.000244822,-0.001167281,0.467713892,0.032825634,9.776809692
1784150189.622125,0.001850532,-0.049148124,-1.442597032,0.000947150,-0.000932371,-0.000769927,0.490459859,0.021717753,9.785728455
1784150189.624318,0.001850532,-0.049148124,-1.442597032,0.001100665,-0.000801319,-0.001000255,0.479512244,0.007476463,9.791903496
1784150189.626170,0.001849348,-0.049147498,-1.442597032,0.000635996,-0.000484417,-0.001041366,0.500368953,0.024320373,9.779926300
1784150189.628099,0.001849348,-0.049147498,-1.442597032,-0.000337522,-0.000339916,-0.000549302,0.478468537,0.031359654,9.774570465
1784150189.630123,0.001849348,-0.049147498,-1.442597032,-0.000918972,-0.000145476,-0.000280399,0.480713546,0.032963779,9.796998978
1784150189.632101,0.001850096,-0.049147092,-1.442597032,-0.000835483,-0.000024639,-0.000517059,0.498957992,0.018152015,9.767780304
1784150189.634101,0.001850096,-0.049147092,-1.442597032,-0.000447000,0.000118060,-0.001374607,0.484023750,0.009233074,9.788780212
1784150189.636100,0.001849448,-0.049147353,-1.442597032,-0.000393869,0.000622690,-0.002358491,0.496024340,-0.000335692,9.789627075
1784150189.638100,0.001849448,-0.049147353,-1.442597032,-0.000826572,0.000991959,-0.002516374,0.491545469,0.001002090,9.798596382
1784150189.640108,0.001849448,-0.049147353,-1.442597032,-0.001004352,0.000751080,-0.001911939,0.495163947,0.040395137,9.797060013
1784150189.642101,0.001850145,-0.049147993,-1.442597032,-0.000811447,0.000371921,-0.001111202,0.510500550,0.046915900,9.797566414
1784150189.644121,0.001850145,-0.049147993,-1.442597032,-0.000558000,0.000438357,-0.000832665,0.480355471,0.003795431,9.803984642
1784150189.646104,0.001848955,-0.049148012,-1.442597032,-0.000403869,0.000869051,-0.001277538,0.467832953,0.007117569,9.800408363
1784150189.648108,0.001848955,-0.049148012,-1.442597032,-0.000148188,0.001125603,-0.001330937,0.476360947,0.006623968,9.791446686
1784150189.650104,0.001848955,-0.049148012,-1.442597032,0.000033803,0.001039125,-0.000811761,0.499560058,0.032325223,9.789839745
1784150189.652104,0.001849079,-0.049149044,-1.442597032,-0.000341421,0.000820052,-0.000507431,0.498028189,0.018312600,9.809922218
1784150189.654113,0.001849079,-0.049149044,-1.442597032,-0.000380688,0.000515492,-0.000538890,0.503315687,0.010183479,9.809427261
1784150189.656105,0.001848809,-0.049150180,-1.442597032,0.000402869,0.000123758,-0.000705878,0.501532078,0.010295510,9.796873093
1784150189.658108,0.001848809,-0.049150180,-1.442597032,0.000740077,0.000089571,-0.000284945,0.477769166,0.011149934,9.782508850
1784150189.660109,0.001848809,-0.049150180,-1.442597032,0.000354012,0.000266701,0.000473118,0.464733183,0.008698834,9.772618294
1784150189.662112,0.001848768,-0.049149502,-1.442597032,0.000196898,0.000143187,0.000897786,0.468037516,0.023727115,9.795582771
1784150189.664123,0.001848768,-0.049149502,-1.442597032,0.000660244,-0.000024908,0.001189583,0.472592294,0.028257331,9.780372620
1784150189.666111,0.001849219,-0.049148865,-1.442597032,0.001231671,-0.000275326,0.001311554,0.498745650,0.038665406,9.781809807
1784150189.668111,0.001849219,-0.049148865,-1.442597032,0.001016259,-0.000448175,0.000948163,0.530632079,0.042129885,9.804278374
1784150189.670121,0.001849219,-0.049148865,-1.442597032,-0.000096488,-0.000382689,0.000502466,0.511630535,0.026549999,9.761120796
1784150189.672144,0.001849424,-0.049150679,-1.442597032,-0.001361826,-0.000512065,0.000501004,0.500613987,0.006901377,9.771743774
1784150189.674130,0.001849424,-0.049150679,-1.442597032,-0.001756905,-0.000483343,0.000068217,0.512715161,0.008258185,9.811217308
1784150189.676128,0.001849074,-0.049152084,-1.442597032,-0.001187835,0.000036636,-0.000946942,0.485729426,0.001616993,9.785594940
1784150189.678129,0.001849074,-0.049152084,-1.442597032,-0.000843275,0.000684628,-0.001432360,0.479010820,0.003418771,9.796359062
1784150189.680131,0.001849074,-0.049152084,-1.442597032,-0.001178237,0.000566482,-0.001375011,0.464693338,0.005547215,9.774839401
1784150189.682131,0.001849197,-0.049151801,-1.442597032,-0.001427235,0.000012710,-0.001371949,0.469224840,0.009082950,9.773520470
1784150189.684127,0.001849197,-0.049151801,-1.442597032,-0.001641344,-0.000014032,-0.001096895,0.494256139,0.001923929,9.790087700
1784150189.686157,0.001847904,-0.049152445,-1.442597270,-0.001630948,0.000411574,-0.000388326,0.499729395,0.010661538,9.811668396
1784150189.688138,0.001847904,-0.049152445,-1.442597270,-0.000867250,0.000425262,0.000163512,0.493289530,-0.002258387,9.812924385
1784150189.690135,0.001847904,-0.049152445,-1.442597270,-0.000424078,-0.000083088,0.000165314,0.492505372,0.005536973,9.789212227
1784150189.692142,0.001847824,-0.049152724,-1.442597270,-0.000423560,-0.000249514,-0.000229890,0.513077497,0.000681613,9.804892540
1784150189.694138,0.001847824,-0.049152724,-1.442597270,0.000047851,-0.000145828,0.000134075,0.485677630,0.036366574,9.813613892
1784150189.696139,0.001848606,-0.049152747,-1.442597032,0.000263780,-0.000053797,0.000868456,0.478363186,0.022422697,9.771373749
1784150189.698144,0.001848606,-0.049152747,-1.442597032,-0.000043477,0.000452339,0.001062169,0.483886093,0.035604935,9.797914505
1784150189.700144,0.001848606,-0.049152747,-1.442597032,-0.000285151,0.000839356,0.001185308,0.478178203,0.045989145,9.797080040
1784150189.702149,0.001849785,-0.049152762,-1.442597032,-0.000306161,0.000434988,0.001379748,0.473467141,0.028067781,9.805479050
1784150189.704145,0.001849785,-0.049152762,-1.442597032,-0.000447287,0.000213653,0.001539655,0.467965454,0.054264173,9.785914421
1784150189.706148,0.001851000,-0.049151894,-1.442597032,-0.000579386,0.000647810,0.001478898,0.468364418,0.013033884,9.786546707
1784150189.708147,0.001851000,-0.049151894,-1.442597032,-0.000206682,0.000851147,0.001416701,0.472003311,0.017429352,9.791958809
1784150189.710150,0.001851000,-0.049151894,-1.442597032,-0.000216889,0.000065359,0.001528207,0.504648626,0.007631090,9.787892342
1784150189.712151,0.001850501,-0.049153306,-1.442597032,-0.001198179,-0.000420376,0.000922404,0.483985066,0.006090987,9.789656639
1784150189.714150,0.001850501,-0.049153306,-1.442597032,-0.001629607,0.000251547,0.000017902,0.465278000,0.055146892,9.792642593
1784150189.716150,0.001852129,-0.049152367,-1.442597032,-0.000860204,0.000779143,0.000046885,0.469249755,0.012927002,9.799997330
1784150189.718152,0.001852129,-0.049152367,-1.442597032,0.000330345,0.000974713,0.000392880,0.472597003,0.029915638,9.799213409
1784150189.720152,0.001852129,-0.049152367,-1.442597032,0.001202501,0.001479551,0.000249821,0.471033096,0.010381578,9.776669502
1784150189.722161,0.001851996,-0.049152181,-1.442597032,0.000916052,0.001805364,-0.000199079,0.478006393,-0.004709345,9.807065964
1784150189.724164,0.001851996,-0.049152181,-1.442597032,0.000505514,0.001827242,-0.000256842,0.503043294,0.023739353,9.793823242
1784150189.726167,0.001852699,-0.049152441,-1.442597032,0.000890920,0.001671814,0.000026143,0.494492412,0.020404799,9.774065971
1784150189.728168,0.001852699,-0.049152441,-1.442597032,0.000988964,0.001328117,-0.000022004,0.477929085,0.023759611,9.773175240
1784150189.730172,0.001852699,-0.049152441,-1.442597032,0.000717315,0.001117545,-0.000075454,0.465547681,0.001548579,9.768538475
1784150189.732174,0.001852037,-0.049152207,-1.442597032,0.000461715,0.000710898,0.000190986,0.464736104,0.010747867,9.799530983
1784150189.734185,0.001852037,-0.049152207,-1.442597032,0.000111610,0.000255873,0.000149266,0.485608846,-0.006224096,9.817376137
1784150189.736181,0.001850465,-0.049152192,-1.442597032,0.000169370,0.000354993,-0.000203163,0.471173733,-0.013534636,9.800277710
1784150189.738185,0.001850465,-0.049152192,-1.442597032,0.000320809,0.000585800,-0.000097810,0.464015186,0.025526190,9.801866531
1784150189.740181,0.001850465,-0.049152192,-1.442597032,0.000387410,0.000192564,0.000607555,0.462595552,0.053637557,9.757660866
1784150189.742185,0.001852306,-0.049151346,-1.442597032,0.000558867,-0.000436994,0.001083586,0.463477492,0.015508644,9.762348175
1784150189.744187,0.001852306,-0.049151346,-1.442597032,0.000201199,-0.000473668,0.000980658,0.471758604,0.033634827,9.781751633
1784150189.746184,0.001853241,-0.049150478,-1.442597032,-0.000582770,-0.000439969,0.000778819,0.484404624,0.040202804,9.780460358
1784150189.748181,0.001853241,-0.049150478,-1.442597032,-0.000975515,-0.000668556,0.000504291,0.469147861,0.041201990,9.793454170
1784150189.750186,0.001853241,-0.049150478,-1.442597032,-0.000697657,-0.000517174,0.000306968,0.467814654,0.041320994,9.779106140
1784150189.752184,0.001853898,-0.049149759,-1.442597032,-0.000294831,-0.000212614,0.000417346,0.467129409,0.024059391,9.813515663
1784150189.754184,0.001853898,-0.049149759,-1.442597032,-0.000439851,-0.000365217,0.000693543,0.489183366,0.025931995,9.762440681
1784150189.756181,0.001854328,-0.049149733,-1.442597032,-0.000872894,-0.000740410,0.000495618,0.477003157,0.022735283,9.792894363
1784150189.758184,0.001854328,-0.049149733,-1.442597032,-0.001074207,-0.000615441,-0.000223826,0.476912349,0.015129483,9.791500092
1784150189.760225,0.001854328,-0.049149733,-1.442597032,-0.000946053,-0.000220604,-0.000872166,0.471777052,0.035401240,9.785348892
1784150189.762194,0.001854567,-0.049149524,-1.442597032,-0.000527917,0.000026866,-0.001235873,0.485527784,0.023836385,9.811738968
1784150189.764192,0.001854567,-0.049149524,-1.442597032,0.000078859,-0.000141861,-0.000888532,0.487852722,0.027286772,9.763343811
1784150189.766192,0.001855144,-0.049149666,-1.442597032,0.000609142,-0.000463719,-0.000636466,0.479042590,0.005290107,9.785161972
1784150189.768200,0.001855144,-0.049149666,-1.442597032,0.000855342,-0.000387594,-0.000956781,0.479029328,0.004375105,9.787847519
1784150189.770272,0.001855144,-0.049149666,-1.442597032,0.000870488,-0.000456693,-0.001136927,0.505958855,0.004494008,9.785633087
1784150189.772201,0.001854025,-0.049150318,-1.442597032,0.000786944,-0.000919218,-0.001396970,0.476004928,0.015061491,9.802707672
1784150189.774210,0.001854025,-0.049150318,-1.442597032,0.000651448,-0.001453792,-0.001515422,0.477744997,0.010959152,9.809408188
1784150189.776208,0.001853814,-0.049150225,-1.442597032,0.000249246,-0.001410073,-0.001256797,0.473653764,0.042104017,9.784497261
1784150189.778203,0.001853814,-0.049150225,-1.442597032,-0.000561383,-0.000760560,-0.001083825,0.482584566,0.038405348,9.784482002
1784150189.780201,0.001853814,-0.049150225,-1.442597032,-0.001189140,-0.000307207,-0.000596949,0.456804991,0.021726422,9.782109261
1784150189.782217,0.001853775,-0.049148835,-1.442597032,-0.001229743,0.000143340,-0.000042364,0.476687968,-0.002852556,9.800352097
1784150189.784220,0.001853775,-0.049148835,-1.442597032,-0.000839053,0.000740889,-0.000267999,0.470145494,0.010876014,9.771739960
1784150189.786212,0.001853511,-0.049148045,-1.442597032,-0.000198834,0.000702059,-0.000055360,0.473114163,0.034097344,9.777272224
1784150189.788210,0.001853511,-0.049148045,-1.442597032,0.000591338,0.000631073,0.000623324,0.477116466,0.068109110,9.775700569
1784150189.790216,0.001853511,-0.049148045,-1.442597032,0.000778239,0.001271617,0.000453060,0.491861463,0.025786215,9.778134346
1784150189.792214,0.001853401,-0.049148634,-1.442597032,0.000297468,0.001476681,0.000037758,0.498503000,0.020133665,9.805004120
1784150189.794214,0.001853401,-0.049148634,-1.442597032,0.000205943,0.000541334,0.000054516,0.466786861,-0.007418347,9.767136574
1784150189.796213,0.001851765,-0.049147721,-1.442597032,0.000336864,-0.000302961,-0.000132441,0.471652359,-0.012088391,9.785044670
1784150189.798220,0.001851765,-0.049147721,-1.442597032,0.000351569,-0.000139755,-0.000824034,0.456717998,0.014555869,9.782510757
1784150189.800222,0.001851765,-0.049147721,-1.442597032,0.000237957,0.000178692,-0.001363043,0.480022222,0.012817634,9.795971870
1784150189.802222,0.001850566,-0.049147308,-1.442597032,-0.000174916,0.000052261,-0.001433293,0.483631700,0.016980983,9.834111214
1784150189.804221,0.001850566,-0.049147308,-1.442597032,-0.000567152,0.000010935,-0.000798364,0.516936243,0.022617506,9.800554276
1784150189.806228,0.001850570,-0.049148571,-1.442597032,-0.000543249,0.000263375,0.000009227,0.483591110,0.012202852,9.813008308
1784150189.808227,0.001850570,-0.049148571,-1.442597032,-0.000089744,0.000605672,0.000418605,0.453096241,0.013537422,9.806262016
1784150189.810456,0.001850570,-0.049148571,-1.442597032,0.000616808,0.000579548,0.000950569,0.476171911,0.027321780,9.779474258
1784150189.812262,0.001850830,-0.049147818,-1.442597032,0.001181234,0.000145890,0.001353920,0.469048887,0.033125978,9.795195580
1784150189.814259,0.001850830,-0.049147818,-1.442597032,0.001033407,-0.000107787,0.001286179,0.467670858,0.028838491,9.770508766
1784150189.816257,0.001851169,-0.049147114,-1.442597032,0.000569330,0.000109562,0.000859417,0.498427331,0.049832024,9.787261009
1784150189.818256,0.001851169,-0.049147114,-1.442597032,0.000161971,0.000521409,0.000423465,0.478821784,0.022089813,9.754335403
1784150189.820256,0.001851169,-0.049147114,-1.442597032,0.000239114,0.000487662,0.001043307,0.476917863,0.014767369,9.779394150
1784150189.822263,0.001850763,-0.049146932,-1.442597032,0.000689372,0.000169403,0.001728519,0.477463752,0.025255136,9.815776825
1784150189.824276,0.001850763,-0.049146932,-1.442597032,0.000712788,0.000035374,0.001487626,0.477426916,0.018885486,9.766418457
1784150189.826272,0.001850920,-0.049146809,-1.442597032,0.000115649,-0.000106874,0.000859618,0.492401630,-0.003387273,9.784224510
1784150189.828286,0.001850920,-0.049146809,-1.442597032,-0.000536161,-0.000155271,0.000582602,0.492557943,0.009193793,9.778923988
1784150189.830279,0.001850920,-0.049146809,-1.442597032,-0.000230816,0.000088162,0.000528005,0.494822294,0.010950533,9.779834747
1784150189.832324,0.001850430,-0.049147300,-1.442597032,0.000284666,0.000481983,-0.000105806,0.490350276,0.012342374,9.781184196
1784150189.834300,0.001850430,-0.049147300,-1.442597032,-0.000190601,0.000722836,-0.000370569,0.501989663,0.007522877,9.744849205
1784150189.836282,0.001849880,-0.049148213,-1.442597032,-0.001174939,0.000611543,0.000354585,0.485646427,-0.004711690,9.793622971
1784150189.838275,0.001849880,-0.049148213,-1.442597032,-0.001874069,0.000529941,0.000937033,0.487799078,0.024837106,9.792918205
1784150189.840283,0.001849880,-0.049148213,-1.442597032,-0.002256971,0.000311235,0.000692737,0.464029014,0.026040915,9.792455673
1784150189.842286,0.001850206,-0.049147740,-1.442597032,-0.001763718,-0.000412289,0.000169869,0.478356451,0.023585340,9.796936035
1784150189.844279,0.001850206,-0.049147740,-1.442597032,-0.000880783,-0.000946785,0.000078584,0.470532060,0.006327058,9.780677795
1784150189.846284,0.001850057,-0.049146902,-1.442597032,-0.000974431,-0.000844449,0.000374690,0.464997113,0.032666162,9.804154396
1784150189.848283,0.001850057,-0.049146902,-1.442597032,-0.001343872,-0.000173452,0.000719606,0.508542359,0.032680456,9.786711693
1784150189.850288,0.001850057,-0.049146902,-1.442597032,-0.001013963,0.000560117,0.001099553,0.511165738,0.025618492,9.766942978
1784150189.852284,0.001850676,-0.049148079,-1.442597032,-0.000414705,0.000821320,0.001267077,0.480124176,0.019295771,9.766872406
1784150189.854290,0.001850676,-0.049148079,-1.442597032,-0.000071404,0.000620279,0.000791078,0.463412374,0.010536547,9.768593788
1784150189.856289,0.001849692,-0.049147774,-1.442597032,-0.000116776,-0.000133857,0.000259945,0.464821637,0.017502259,9.794644356
1784150189.858288,0.001849692,-0.049147774,-1.442597032,-0.000459606,-0.000826104,0.000232768,0.457862496,-0.000831961,9.802140236
1784150189.860290,0.001849692,-0.049147774,-1.442597032,-0.000721671,-0.000825514,0.000089401,0.493474007,0.013382102,9.818406105
1784150189.862307,0.001849012,-0.049147643,-1.442597032,-0.001215729,-0.000461056,-0.000139857,0.489220887,0.031091316,9.792959213
1784150189.864301,0.001849012,-0.049147643,-1.442597032,-0.001580736,-0.000646031,-0.000219127,0.478431672,0.027826849,9.767374039
1784150189.866301,0.001849599,-0.049147826,-1.442597032,-0.001105124,-0.000858119,-0.000709371,0.510804236,-0.002361778,9.795904160
1784150189.868299,0.001849599,-0.049147826,-1.442597032,-0.000047354,-0.000584438,-0.001694807,0.490947217,0.024854094,9.784851074
1784150189.870305,0.001849599,-0.049147826,-1.442597032,0.000773429,-0.000710919,-0.002197800,0.473214358,0.006619701,9.797718048
1784150189.872302,0.001849342,-0.049147684,-1.442597032,0.000808537,-0.000890529,-0.001987949,0.461988062,0.005073336,9.783351898
1784150189.874303,0.001849342,-0.049147684,-1.442597032,0.000655766,-0.000750679,-0.001635280,0.495754153,0.013642703,9.777610779
1784150189.876308,0.001848927,-0.049148642,-1.442597270,0.000509463,-0.000557984,-0.001450121,0.488823831,-0.002032369,9.789159775
1784150189.878317,0.001848927,-0.049148642,-1.442597270,0.000495794,-0.000237179,-0.001548755,0.487104148,0.003852279,9.783816338
1784150189.880312,0.001848927,-0.049148642,-1.442597270,0.000878338,-0.000476130,-0.001550412,0.487118393,0.005180263,9.786066055
1784150189.882313,0.001848143,-0.049148984,-1.442597270,0.001239377,-0.001354167,-0.001374892,0.466970533,0.008215776,9.773512840
1784150189.884341,0.001848143,-0.049148984,-1.442597270,0.000619100,-0.001627620,-0.000704836,0.486983329,0.029140985,9.756182671
1784150189.886315,0.001848571,-0.049149372,-1.442597270,-0.000874936,-0.001116610,0.000272992,0.479952663,0.007810573,9.807147980
1784150189.888333,0.001848571,-0.049149372,-1.442597270,-0.001614553,-0.000367134,0.000500587,0.476676971,-0.004155105,9.794515610
1784150189.890328,0.001848571,-0.049149372,-1.442597270,-0.001032456,0.000044202,0.000107812,0.488521338,0.010474953,9.795068741
1784150189.892332,0.001848020,-0.049148932,-1.442597270,-0.000446295,0.000200550,-0.000576002,0.495592445,0.036176868,9.759373665
1784150189.894323,0.001848020,-0.049148932,-1.442597270,-0.000708247,0.000176887,-0.000913547,0.499790013,0.014381954,9.792414665
1784150189.896321,0.001847904,-0.049149845,-1.442597270,-0.000958495,-0.000185459,-0.000547701,0.502369225,0.042940047,9.804257393
1784150189.898331,0.001847904,-0.049149845,-1.442597270,-0.000303343,0.000011406,-0.000584169,0.490407795,0.016443972,9.771348000
1784150189.900336,0.001847904,-0.049149845,-1.442597270,0.000287496,0.000569127,-0.000860972,0.503593385,-0.006571339,9.770764351
1784150189.902330,0.001846096,-0.049150515,-1.442597270,-0.000314839,0.000823346,-0.000866538,0.476862580,0.010278219,9.780709267
1784150189.904338,0.001846096,-0.049150515,-1.442597270,-0.001132801,0.001066406,-0.000834769,0.465391129,-0.009818968,9.792226791
1784150189.906332,0.001844326,-0.049149506,-1.442597270,-0.001170494,0.001039132,-0.000757722,0.487108201,0.003884075,9.779333115
1784150189.908333,0.001844326,-0.049149506,-1.442597270,-0.000915592,0.000316021,-0.000993893,0.464792490,0.014029855,9.778928757
1784150189.910341,0.001844326,-0.049149506,-1.442597270,-0.000424998,-0.000447813,-0.001202881,0.476910204,0.014706954,9.787912369
1784150189.912341,0.001843449,-0.049147714,-1.442597270,-0.000227659,-0.000628201,-0.000757575,0.488676012,0.023043307,9.791563034
1784150189.914338,0.001843449,-0.049147714,-1.442597270,-0.001005513,-0.000643561,-0.000127112,0.487933129,-0.002373444,9.775708199
1784150189.916346,0.001842994,-0.049147986,-1.442597270,-0.001825238,-0.000686913,0.000151075,0.478462487,0.031311966,9.781294823
1784150189.918340,0.001842994,-0.049147986,-1.442597270,-0.001841066,-0.000490110,0.000247616,0.462672859,0.025978675,9.803662300
1784150189.920342,0.001842994,-0.049147986,-1.442597270,-0.001309219,-0.000350054,-0.000096402,0.488907337,0.005516196,9.798623085
1784150189.922349,0.001842158,-0.049147893,-1.442597270,-0.000492721,-0.000720076,-0.000439222,0.479760706,0.027269430,9.780372620
1784150189.924351,0.001842158,-0.049147893,-1.442597270,0.000049062,-0.000810951,-0.000381171,0.478717327,0.014375904,9.768184662
1784150189.926346,0.001842423,-0.049147990,-1.442597270,-0.000036339,-0.000116342,-0.000281250,0.468019068,0.021960704,9.791983604
1784150189.928349,0.001842423,-0.049147990,-1.442597270,-0.000066273,0.000081900,0.000024551,0.478845745,0.024710802,9.763768196
1784150189.930355,0.001842423,-0.049147990,-1.442597270,-0.000075502,-0.000242905,0.000425248,0.492921799,0.038813282,9.771492958
1784150189.932351,0.001843585,-0.049149036,-1.442597270,-0.000185933,-0.000151209,0.000195314,0.462342709,0.033809621,9.774122238
1784150189.934356,0.001843585,-0.049149036,-1.442597270,-0.000174488,0.000005924,-0.000188164,0.494629294,0.033643316,9.802396774
1784150189.936359,0.001844492,-0.049150202,-1.442597270,-0.000295353,0.000045031,0.000308080,0.464243799,0.006356677,9.787845612
1784150189.938354,0.001844492,-0.049150202,-1.442597270,-0.000345964,0.000163886,0.000543788,0.474881738,0.031427912,9.771429062
1784150189.940361,0.001844492,-0.049150202,-1.442597270,-0.000057186,0.000142506,0.000137757,0.508838356,0.020932332,9.800086975
1784150189.942367,0.001845157,-0.049150884,-1.442597270,0.000184577,-0.000200604,0.000363695,0.512254357,0.005331703,9.782505989
1784150189.944366,0.001845157,-0.049150884,-1.442597270,-0.000058658,-0.000717571,0.000778860,0.473567098,-0.003870029,9.759992599
1784150189.946362,0.001844155,-0.049150217,-1.442597270,-0.000451589,-0.001088750,0.000575541,0.459502280,0.024163475,9.812613487
1784150189.948363,0.001844155,-0.049150217,-1.442597270,-0.000302566,-0.001237850,0.000428792,0.473919600,0.026470505,9.777223587
1784150189.950366,0.001844155,-0.049150217,-1.442597270,-0.000028173,-0.001025265,0.000486406,0.473303705,0.013809336,9.794626236
1784150189.952366,0.001844576,-0.049149431,-1.442597270,-0.000295742,-0.000683707,0.000257897,0.472269475,0.000582315,9.766296387
1784150189.954371,0.001844576,-0.049149431,-1.442597270,-0.000762044,-0.000589967,-0.000559729,0.504963696,0.032002229,9.762495041
1784150189.956367,0.001845356,-0.049150229,-1.442597270,-0.000865714,-0.000381669,-0.000919532,0.486183703,0.040055797,9.797945976
1784150189.958373,0.001845356,-0.049150229,-1.442597270,-0.000396241,0.000208421,-0.000239643,0.494480997,0.019099072,9.768678665
1784150189.960371,0.001845356,-0.049150229,-1.442597270,0.000377373,0.000452765,0.000399715,0.483735144,0.021445058,9.773165703
1784150189.962372,0.001845723,-0.049149975,-1.442597270,0.000444980,-0.000031406,0.001113729,0.489737451,-0.000699985,9.789170265
1784150189.964373,0.001845723,-0.049149975,-1.442597270,-0.000156537,-0.000411883,0.001434123,0.490417957,-0.017012967,9.813723564
1784150189.966372,0.001844360,-0.049150601,-1.442597270,-0.000190704,-0.000327341,0.000677333,0.477165639,-0.001819300,9.780183792
1784150189.968376,0.001844360,-0.049150601,-1.442597270,0.000850370,-0.000331578,0.000181503,0.482485622,0.029519258,9.774112701
1784150189.970378,0.001844360,-0.049150601,-1.442597270,0.001713355,-0.000555766,0.000469095,0.487364769,0.025767399,9.788888931
1784150189.972386,0.001844715,-0.049150512,-1.442597270,0.001550071,-0.000369004,0.000751502,0.510516167,0.046633285,9.774250031
1784150189.974399,0.001844715,-0.049150512,-1.442597270,0.001666023,-0.000305819,0.000686423,0.482317835,0.054842569,9.804762840
1784150189.976391,0.001846155,-0.049150590,-1.442597270,0.001744127,-0.000906031,0.000364625,0.475840360,0.037573401,9.787608147
1784150189.978388,0.001846155,-0.049150590,-1.442597270,0.001315917,-0.001120288,-0.000158158,0.489515990,0.054900028,9.783697128
1784150189.980392,0.001846155,-0.049150590,-1.442597270,0.000831149,-0.000554098,-0.000607458,0.494086921,0.024804313,9.786199570
1784150189.982396,0.001847372,-0.049151409,-1.442597270,0.000425603,0.000091149,-0.000644726,0.482213050,0.005078532,9.746160507
1784150189.984391,0.001847372,-0.049151409,-1.442597270,0.000400511,0.000503628,-0.000563455,0.509787560,-0.013828746,9.772068977
1784150189.986408,0.001846248,-0.049152553,-1.442597270,0.000380824,0.000643022,-0.000649564,0.499519885,0.027550273,9.768288612
1784150189.988411,0.001846248,-0.049152553,-1.442597270,0.000149749,0.000677454,-0.001128204,0.502816975,0.004121269,9.780695915
1784150189.990415,0.001846248,-0.049152553,-1.442597270,-0.000019194,0.000665993,-0.001386834,0.450960428,-0.014257688,9.812358856
1784150189.992428,0.001844957,-0.049150988,-1.442597270,-0.000346298,0.000296651,-0.001054076,0.478444904,-0.006011278,9.800333023
1784150189.994407,0.001844957,-0.049150988,-1.442597270,-0.000605054,-0.000083285,-0.000306864,0.492056966,0.005139272,9.782932281
1784150189.996406,0.001844579,-0.049151905,-1.442597270,-0.000084109,0.000045936,0.000295016,0.501720250,0.025964607,9.798319817
1784150189.998402,0.001844579,-0.049151905,-1.442597270,0.000228387,0.000486874,0.000067388,0.461750746,0.021742670,9.770905495
1784150190.000407,0.001844579,-0.049151905,-1.442597270,-0.000251135,0.000635394,-0.000046367,0.487017512,0.035895012,9.814508438
1784150190.002408,0.001845958,-0.049151696,-1.442597270,-0.000422899,0.000540916,0.000321212,0.489914745,0.014073192,9.790609360
1784150190.004413,0.001845958,-0.049151696,-1.442597270,-0.000152077,0.000200710,0.000118760,0.510970950,0.011112032,9.791059494
1784150190.006422,0.001845963,-0.049153373,-1.442597270,0.000330066,-0.000516517,-0.000301665,0.487478286,0.033957880,9.771008492
1784150190.008411,0.001845963,-0.049153373,-1.442597270,0.001189839,-0.000741053,-0.000190280,0.474487692,0.036323082,9.776840210
1784150190.010414,0.001845963,-0.049153373,-1.442597270,0.001696461,-0.000185801,0.000291818,0.516781628,0.009239090,9.791950226
1784150190.012423,0.001845418,-0.049154919,-1.442597270,0.001252263,0.000263239,0.000678080,0.481492281,0.021883620,9.778547287
1784150190.014415,0.001845418,-0.049154919,-1.442597270,0.000421002,0.000259605,0.000018125,0.482304424,0.015930975,9.795098305
1784150190.016418,0.001845518,-0.049155273,-1.442597270,0.000359183,0.000342087,-0.000623774,0.510185480,0.020517996,9.792912483
1784150190.018423,0.001845518,-0.049155273,-1.442597270,0.000586743,0.000630346,-0.000620339,0.486445904,0.024393678,9.794707298
1784150190.020420,0.001845518,-0.049155273,-1.442597270,0.000173204,0.000634581,-0.001269768,0.509175062,0.011532111,9.798233986
1784150190.022427,0.001844909,-0.049156651,-1.442597389,0.000085041,0.000275494,-0.001762602,0.488182902,0.018645750,9.780774117
1784150190.024438,0.001844909,-0.049156651,-1.442597389,0.000434730,-0.000030433,-0.001489402,0.499359429,0.014530779,9.772239685
1784150190.026450,0.001845505,-0.049157318,-1.442597389,0.000073195,-0.000338197,-0.001039106,0.524031758,0.050943594,9.773842812
1784150190.028431,0.001845505,-0.049157318,-1.442597389,-0.000606959,-0.000560342,-0.000314580,0.501906753,0.040810917,9.789447784
1784150190.030434,0.001845505,-0.049157318,-1.442597389,-0.000753845,-0.000310400,-0.000036649,0.487908572,0.034212496,9.797461510
1784150190.032445,0.001847163,-0.049157869,-1.442597389,-0.000259985,0.000226070,0.000024336,0.487187922,0.010997399,9.787001610
1784150190.034435,0.001847163,-0.049157869,-1.442597389,0.000422938,0.000485080,0.000447630,0.490030557,0.023092827,9.782149315
1784150190.036435,0.001847610,-0.049157862,-1.442597389,0.000940105,0.000695095,0.000178488,0.462654769,0.022188675,9.769563675
1784150190.038436,0.001847610,-0.049157862,-1.442597389,0.000957610,0.000962946,-0.000504910,0.467071831,0.017120939,9.781193733
1784150190.040447,0.001847610,-0.049157862,-1.442597389,0.000133817,0.000804564,-0.000590865,0.446117669,0.028587004,9.781694412
1784150190.042443,0.001848081,-0.049154732,-1.442597389,-0.000668518,0.000472829,-0.000239817,0.477680594,0.038719777,9.749061584
1784150190.044443,0.001848081,-0.049154732,-1.442597389,-0.000636190,0.000404948,-0.000054341,0.495164812,0.039591424,9.784053802
1784150190.046443,0.001849463,-0.049156006,-1.442597508,0.000112873,0.000563664,0.000083088,0.513232708,0.011632994,9.776718140
1784150190.048449,0.001849463,-0.049156006,-1.442597508,0.000461181,0.000772740,-0.000033210,0.516778290,0.007186885,9.765484810
1784150190.050449,0.001849463,-0.049156006,-1.442597508,0.000586309,0.000623659,-0.000643319,0.483187199,0.014588315,9.793296814
1784150190.052452,0.001849400,-0.049156386,-1.442597508,0.001139703,-0.000052443,-0.000350079,0.468469024,0.021964500,9.790638924
1784150190.054451,0.001849400,-0.049156386,-1.442597508,0.001212474,-0.000834049,0.000619583,0.500317872,0.020269649,9.782589912
1784150190.056512,0.001849508,-0.049157895,-1.442597508,0.000673638,-0.001104867,0.000640726,0.487992734,0.003770828,9.793680191
1784150190.058462,0.001849508,-0.049157895,-1.442597508,-0.000093754,-0.000900803,0.000441148,0.493245393,-0.007875202,9.783747673
1784150190.060514,0.001849508,-0.049157895,-1.442597508,-0.000506402,-0.000591730,0.000296883,0.476885170,0.012483049,9.785655975
1784150190.062468,0.001849536,-0.049158338,-1.442597508,-0.000374233,-0.000549129,-0.000151526,0.484651566,0.023609776,9.782148361
1784150190.064466,0.001849536,-0.049158338,-1.442597508,-0.000282003,-0.000755915,0.000152294,0.487917423,0.035092510,9.799709320
1784150190.066466,0.001850506,-0.049158815,-1.442597389,-0.000340005,-0.000744210,0.000536796,0.498240113,0.033359218,9.772808075
1784150190.068467,0.001850506,-0.049158815,-1.442597389,-0.000436495,-0.000840105,0.000328835,0.479617864,0.053599950,9.795336723
1784150190.070467,0.001850506,-0.049158815,-1.442597389,-0.000583675,-0.001253332,0.000536339,0.462107480,0.014931654,9.782966614
1784150190.072472,0.001851000,-0.049156994,-1.442597508,-0.000962715,-0.001535537,0.001030160,0.498446554,0.014014832,9.783444405
1784150190.074466,0.001851000,-0.049156994,-1.442597508,-0.000888901,-0.001150919,0.001393748,0.491212249,0.011240990,9.808526039
1784150190.076468,0.001850912,-0.049157549,-1.442597508,-0.000125118,-0.000393292,0.001806821,0.479581386,0.012480353,9.781174660
1784150190.078479,0.001850912,-0.049157549,-1.442597508,-0.000037642,0.000096560,0.001312369,0.493097693,0.017607093,9.791980743
1784150190.080485,0.001850912,-0.049157549,-1.442597508,-0.000879698,0.000108508,0.000082319,0.484848022,0.003375828,9.791882515
1784150190.082485,0.001849966,-0.049157370,-1.442597508,-0.001099046,-0.000123904,-0.000345130,0.511395097,0.007265411,9.764134407
1784150190.084488,0.001849966,-0.049157370,-1.442597508,-0.000303302,-0.000397830,0.000048434,0.496413440,-0.004458938,9.801705360
1784150190.086483,0.001848794,-0.049157370,-1.442597508,0.000115083,-0.000469537,0.000317545,0.496124029,0.008556761,9.799098969
1784150190.088491,0.001848794,-0.049157370,-1.442597508,-0.000210177,-0.000227991,0.000676692,0.491669536,0.010491942,9.787002563
1784150190.090488,0.001848794,-0.049157370,-1.442597508,-0.000430129,-0.000124983,0.001064310,0.497404158,0.039124254,9.782708168
1784150190.092494,0.001850540,-0.049159214,-1.442597389,-0.000501153,-0.000246461,0.000948593,0.497748286,0.030187899,9.778615952
1784150190.094487,0.001850540,-0.049159214,-1.442597389,-0.000515326,-0.000279261,0.000521679,0.474666834,0.013115563,9.763689041
1784150190.096496,0.001849411,-0.049159244,-1.442597508,0.000126723,-0.000236311,-0.000094794,0.492083639,0.006565828,9.771286011
1784150190.098490,0.001849411,-0.049159244,-1.442597508,0.000952460,-0.000480531,-0.000274078,0.512503803,0.027564416,9.805961609
1784150190.100499,0.001849411,-0.049159244,-1.442597508,0.000993672,-0.000652069,-0.000459694,0.478826851,0.024561370,9.784836769
1784150190.102499,0.001850832,-0.049159050,-1.442597389,0.000397548,-0.000228313,-0.000917784,0.450813532,0.009204199,9.789645195
1784150190.104503,0.001850832,-0.049159050,-1.442597389,0.000158746,-0.000087918,-0.000566156,0.462367117,0.000870595,9.806638718
1784150190.106501,0.001848785,-0.049158093,-1.442597508,0.000341036,-0.000353118,0.000284229,0.464265972,0.008558325,9.793239594
1784150190.108502,0.001848785,-0.049158093,-1.442597508,0.000334722,-0.000093174,0.000635253,0.484104067,0.015946133,9.789719582
1784150190.110528,0.001848785,-0.049158093,-1.442597508,0.000537316,0.000710248,0.000190700,0.498641998,0.030957866,9.794761658
1784150190.112515,0.001850130,-0.049157996,-1.442597508,0.000697440,0.000756197,-0.000262500,0.514957070,0.007406653,9.800902367
1784150190.114509,0.001850130,-0.049157996,-1.442597508,0.000387017,-0.000057001,0.000268439,0.483041167,0.002493362,9.793218613
1784150190.116509,0.001848781,-0.049158368,-1.442597508,0.000034946,-0.000418929,0.001450587,0.487842441,0.026800647,9.768721581
1784150190.118514,0.001848781,-0.049158368,-1.442597508,-0.000110177,-0.000483918,0.002006172,0.500280619,0.016733654,9.775841713
1784150190.120509,0.001848781,-0.049158368,-1.442597508,0.000205090,-0.000347619,0.001076768,0.491452157,0.029750481,9.788469315
1784150190.122519,0.001849163,-0.049159575,-1.442597508,0.000312713,0.000009516,-0.000339174,0.492382944,0.031623036,9.775481224
1784150190.124517,0.001849163,-0.049159575,-1.442597508,-0.000150898,0.000363975,-0.001118284,0.507460058,0.017048288,9.781679153
1784150190.126517,0.001849132,-0.049159925,-1.442597508,0.000086696,0.000432790,-0.001162496,0.501242697,0.022501133,9.782155991
1784150190.128519,0.001849132,-0.049159925,-1.442597508,0.001011681,-0.000121706,-0.000781686,0.495429426,0.024758451,9.790234566
1784150190.130521,0.001849132,-0.049159925,-1.442597508,0.001197316,-0.000538053,-0.000559271,0.457606196,0.014471239,9.792822838
1784150190.132528,0.001849539,-0.049158636,-1.442597508,0.000631616,-0.000473152,-0.000504616,0.475848883,0.001266910,9.789618492
1784150190.134526,0.001849539,-0.049158636,-1.442597508,-0.000160308,-0.000474667,-0.000646195,0.496612281,0.010889380,9.785216331
1784150190.136527,0.001848439,-0.049159817,-1.442597508,-0.000774521,-0.000635812,-0.001003009,0.499606609,-0.002465693,9.767647743
1784150190.138527,0.001848439,-0.049159817,-1.442597508,-0.000246943,-0.000871934,-0.001225954,0.499839574,0.019636661,9.809484482
1784150190.140546,0.001848439,-0.049159817,-1.442597508,0.000935002,-0.000697101,-0.000645042,0.470634967,0.049998071,9.750920296
1784150190.142546,0.001850441,-0.049159333,-1.442597389,0.001402752,-0.000064065,0.000195529,0.501293838,0.026551865,9.779493332
1784150190.144540,0.001850441,-0.049159333,-1.442597389,0.001037805,0.000263146,0.000408870,0.461086124,0.006670000,9.812503815
1784150190.146535,0.001850106,-0.049158201,-1.442597508,0.000656301,-0.000233101,0.000217025,0.468151301,-0.004859123,9.782846451
1784150190.148538,0.001850106,-0.049158201,-1.442597508,0.000662930,-0.001169780,-0.000557298,0.485318035,0.003538602,9.768120766
1784150190.150539,0.001850106,-0.049158201,-1.442597508,0.000779591,-0.001477245,-0.000812236,0.504908085,0.028726595,9.782199860
1784150190.152544,0.001850625,-0.049159374,-1.442597389,0.000398105,-0.001126979,0.000105662,0.489266157,-0.002899067,9.784223557
1784150190.154541,0.001850625,-0.049159374,-1.442597389,-0.000275815,-0.000793111,0.000377011,0.474546373,0.004464396,9.783359528
1784150190.156545,0.001849925,-0.049158532,-1.442597508,-0.000330922,-0.000532165,-0.000146595,0.488950521,0.007073117,9.768595695
1784150190.158542,0.001849925,-0.049158532,-1.442597508,-0.000249300,-0.000758137,-0.000403799,0.515285671,0.031479269,9.754430771
1784150190.160542,0.001849925,-0.049158532,-1.442597508,-0.000842165,-0.001164501,-0.001117055,0.489218146,0.029448913,9.771877289
1784150190.162547,0.001850854,-0.049159236,-1.442597389,-0.001482995,-0.000807764,-0.002048541,0.495418102,0.024669420,9.802787781
1784150190.164554,0.001850854,-0.049159236,-1.442597389,-0.001064212,-0.000383087,-0.001804152,0.509375274,0.027296606,9.786230087
1784150190.166550,0.001851754,-0.049160186,-1.442597389,0.000157626,-0.000482127,-0.001211744,0.521355450,0.014325389,9.761500359
1784150190.168556,0.001851754,-0.049160186,-1.442597389,0.000524919,-0.000492318,-0.001159754,0.509432316,-0.005384867,9.782433510
1784150190.170553,0.001851754,-0.049160186,-1.442597389,-0.000053192,-0.000077749,-0.000940355,0.482863754,-0.012686441,9.785947800
1784150190.172584,0.001850914,-0.049160685,-1.442597389,-0.000253295,0.000634862,-0.000615419,0.472556949,-0.011232585,9.789085388
1784150190.174565,0.001850914,-0.049160685,-1.442597389,0.000119947,0.000714865,-0.000127604,0.464556307,-0.006071160,9.770730972
1784150190.176560,0.001849476,-0.049160209,-1.442597508,0.000527666,-0.000003390,0.000404172,0.483362317,-0.008651002,9.784628868
1784150190.178566,0.001849476,-0.049160209,-1.442597508,0.000826008,-0.000470766,0.000484998,0.471885681,0.007990373,9.796381950
1784150190.180563,0.001849476,-0.049160209,-1.442597508,0.000864094,-0.000752879,0.000146779,0.474624187,0.009131604,9.756937981
1784150190.182580,0.001849091,-0.049160089,-1.442597508,0.000278225,-0.000879008,-0.000226505,0.479116470,0.011142221,9.781165123
1784150190.184570,0.001849091,-0.049160089,-1.442597508,-0.000127875,-0.000666899,-0.000207883,0.480326921,0.038322803,9.800170898
1784150190.186601,0.001850240,-0.049159743,-1.442597508,-0.000077542,-0.000316793,-0.000409299,0.473756969,0.050618459,9.784104347
1784150190.188585,0.001850240,-0.049159743,-1.442597508,-0.000870118,0.000145852,-0.000664501,0.501262248,0.023870453,9.778578758
1784150190.190575,0.001850240,-0.049159743,-1.442597508,-0.002007683,0.000612152,-0.000399287,0.460172892,0.002503957,9.769883156
1784150190.192577,0.001849661,-0.049158618,-1.442597508,-0.002075383,0.000965404,-0.000818558,0.459772140,0.008561766,9.800857544
1784150190.194574,0.001849661,-0.049158618,-1.442597508,-0.001348112,0.001072259,-0.001430478,0.487256050,0.016398363,9.783450127
1784150190.196579,0.001849456,-0.049158543,-1.442597508,-0.000736142,0.000568150,-0.001048984,0.518573105,0.010000724,9.807646751
1784150190.198580,0.001849456,-0.049158543,-1.442597508,-0.000476258,-0.000177723,-0.000340231,0.487390071,0.027587853,9.784865379
1784150190.200578,0.001849456,-0.049158543,-1.442597508,-0.000208683,-0.000181730,0.000143114,0.483810127,-0.007853039,9.797636986
1784150190.202584,0.001848372,-0.049158894,-1.442597628,-0.000281937,0.000123454,0.000622878,0.470520139,0.044228259,9.806476593
1784150190.204606,0.001848372,-0.049158894,-1.442597628,-0.000932353,0.000316106,0.000989320,0.470550537,0.044873368,9.778683662
1784150190.206592,0.001849221,-0.049157858,-1.442597508,-0.001368088,0.000618476,0.001185025,0.463483959,0.018396346,9.797337532
1784150190.208592,0.001849221,-0.049157858,-1.442597508,-0.001091995,0.000561920,0.001399201,0.463190556,0.030570183,9.787102699
1784150190.210589,0.001849221,-0.049157858,-1.442597508,-0.000420929,0.000375310,0.000959454,0.499002695,0.022151871,9.772289276
1784150190.212589,0.001849502,-0.049159355,-1.442597508,0.000106326,0.000437165,0.000604162,0.498039395,0.019211696,9.809478760
1784150190.214593,0.001849502,-0.049159355,-1.442597508,0.000196256,0.000227875,0.001246041,0.486852437,0.019597074,9.775399208
1784150190.216592,0.001849703,-0.049159355,-1.442597508,0.000238255,-0.000480763,0.001457782,0.444528282,0.008852630,9.787394524
1784150190.218597,0.001849703,-0.049159355,-1.442597508,-0.000019462,-0.001061459,0.000889143,0.450292945,0.003373735,9.791400909
1784150190.220594,0.001849703,-0.049159355,-1.442597508,-0.000819108,-0.001278241,0.000204296,0.478931159,-0.003694555,9.788692474
1784150190.222604,0.001847548,-0.049159709,-1.442597628,-0.000947645,-0.001243400,-0.000238657,0.485544175,0.022750052,9.775418282
1784150190.224612,0.001847548,-0.049159709,-1.442597628,-0.000566804,-0.000756816,-0.000287244,0.487040043,0.034046303,9.759351730
1784150190.226602,0.001848172,-0.049160007,-1.442597628,-0.000652035,-0.000471206,-0.000197236,0.512550712,0.029149953,9.771898270
1784150190.228601,0.001848172,-0.049160007,-1.442597628,-0.000592920,-0.000715646,0.000064576,0.485700697,0.000174551,9.799483299
1784150190.230604,0.001848172,-0.049160007,-1.442597628,0.000116156,-0.001205890,0.000092155,0.476000607,0.013406373,9.783418655
1784150190.232605,0.001847947,-0.049159627,-1.442597628,0.000869562,-0.001420924,0.000005104,0.451298624,0.013538160,9.809399605
1784150190.234611,0.001847947,-0.049159627,-1.442597628,0.001243552,-0.001035491,-0.000091673,0.481488138,0.022661895,9.795140266
1784150190.236611,0.001848362,-0.049159702,-1.442597628,0.000886754,-0.000441382,-0.000251688,0.490340620,0.012266058,9.791942596
1784150190.238608,0.001848362,-0.049159702,-1.442597628,0.000081980,-0.000149023,0.000009183,0.475960582,0.009848120,9.779809952
1784150190.240621,0.001848362,-0.049159702,-1.442597628,-0.000545845,-0.000316899,0.000738591,0.483598351,0.010233318,9.774887085
1784150190.242616,0.001847414,-0.049160309,-1.442597628,-0.000714200,-0.000442975,0.001378707,0.482730985,0.012913506,9.777593613
1784150190.244617,0.001847414,-0.049160309,-1.442597628,-0.000476641,-0.000822263,0.001121922,0.470140487,0.010431235,9.771288872
1784150190.246626,0.001846865,-0.049159843,-1.442597628,0.000041661,-0.001062864,0.000375999,0.465724677,0.017535271,9.788368225
1784150190.248620,0.001846865,-0.049159843,-1.442597628,0.001055717,-0.000833013,0.000160803,0.495064110,-0.003657064,9.817401886
1784150190.250662,0.001846865,-0.049159843,-1.442597628,0.001596717,-0.000397986,0.000745335,0.485858500,-0.024011564,9.797984123
1784150190.252631,0.001844764,-0.049159754,-1.442597628,0.001339518,-0.000092714,0.001278372,0.494281530,0.004151017,9.791895866
1784150190.254624,0.001844764,-0.049159754,-1.442597628,0.000643549,-0.000185951,0.001194771,0.473478258,0.027750183,9.787095070
1784150190.256625,0.001845397,-0.049159255,-1.442597628,-0.000550016,-0.000192804,0.001187272,0.483506829,0.004647935,9.804440498
1784150190.258636,0.001845397,-0.049159255,-1.442597628,-0.001476506,-0.000361720,0.001595998,0.467252761,0.031922739,9.778597832
1784150190.260632,0.001845397,-0.049159255,-1.442597628,-0.001157905,-0.000567594,0.001912919,0.491744965,0.015140084,9.763270378
1784150190.262639,0.001845263,-0.049159676,-1.442597628,0.000259056,0.000029492,0.001518024,0.505880594,0.035386819,9.788968086
1784150190.264639,0.001845263,-0.049159676,-1.442597628,0.001239897,0.000699783,0.001105214,0.490106344,0.029364282,9.782189369
1784150190.266638,0.001845864,-0.049159788,-1.442597628,0.001204576,0.000491653,0.001214607,0.483255774,0.019182391,9.777186394
1784150190.268636,0.001845864,-0.049159788,-1.442597628,0.000940523,0.000019170,0.001201872,0.501213849,0.055405177,9.754570961
1784150190.270715,0.001845864,-0.049159788,-1.442597628,0.000753625,0.000038880,0.000544767,0.506787002,0.035041824,9.772827148
1784150190.272641,0.001847226,-0.049161054,-1.442597628,0.000116667,0.000492501,-0.000239157,0.478054374,-0.002304194,9.783768654
1784150190.274653,0.001847226,-0.049161054,-1.442597628,-0.000963651,0.000755504,-0.000468608,0.497728318,-0.009991261,9.758182526
1784150190.276654,0.001845967,-0.049161825,-1.442597628,-0.001520390,0.000617421,-0.000113729,0.502020836,0.013848008,9.800483704
1784150190.278648,0.001845967,-0.049161825,-1.442597628,-0.001402447,0.000439187,0.000145196,0.488470525,0.042800669,9.785861015
1784150190.280646,0.001845967,-0.049161825,-1.442597628,-0.001226107,0.000220920,-0.000081721,0.500714302,0.015393558,9.774488449
1784150190.282665,0.001845799,-0.049162522,-1.442597628,-0.001188864,-0.000044212,-0.000392178,0.476086617,0.019353874,9.765972137
1784150190.284660,0.001845799,-0.049162522,-1.442597628,-0.001015992,-0.000183603,-0.000834433,0.475405604,0.001720612,9.789620399
1784150190.286649,0.001845084,-0.049162280,-1.442597628,-0.001034390,-0.000212812,-0.000957868,0.463996083,0.022133276,9.774945259
1784150190.288658,0.001845084,-0.049162280,-1.442597628,-0.001210270,-0.000144225,-0.000740665,0.490055978,0.025319910,9.783957481
1784150190.290669,0.001845084,-0.049162280,-1.442597628,-0.001085525,-0.000080093,-0.000401437,0.473831087,0.056877188,9.785936356
1784150190.292659,0.001845999,-0.049161624,-1.442597628,-0.001142774,-0.000233199,0.000403945,0.488124937,0.052130938,9.797576904
1784150190.294673,0.001845999,-0.049161624,-1.442597628,-0.001785409,-0.000681790,0.001240550,0.487010330,0.032190859,9.768306732
1784150190.296667,0.001846287,-0.049161281,-1.442597628,-0.002142635,-0.000916021,0.001236938,0.489139557,0.023965275,9.787085533
1784150190.298671,0.001846287,-0.049161281,-1.442597628,-0.001724835,-0.000370678,0.000697819,0.474750757,0.022694075,9.802755356
1784150190.300685,0.001846287,-0.049161281,-1.442597628,-0.001417655,0.000243776,0.000107721,0.487080306,0.002447984,9.792325974
1784150190.302672,0.001845986,-0.049161762,-1.442597628,-0.001397816,0.000120613,-0.000813062,0.493996829,0.016798243,9.778079033
1784150190.304671,0.001845986,-0.049161762,-1.442597628,-0.001059775,-0.000239821,-0.001936133,0.508619547,0.000157964,9.760499954
1784150190.306684,0.001845986,-0.049161762,-1.442597628,-0.000505537,-0.000486608,-0.002934218,0.508619547,0.000157964,9.760499954
1784150190.308684,0.001844620,-0.049163230,-1.442597628,0.000114753,-0.000477264,-0.002594859,0.485844731,0.009416760,9.759640694
1784150190.310682,0.001844814,-0.049162693,-1.442597628,0.000186418,-0.000450239,-0.002041250,0.458453327,0.009605298,9.782482147
1784150190.312682,0.001844814,-0.049162693,-1.442597628,0.000094665,-0.000444786,-0.001999295,0.467466265,0.012228955,9.775333405
1784150190.314682,0.001844885,-0.049162485,-1.442597628,0.000628338,-0.000017299,-0.001640486,0.493993878,0.018396130,9.805437088
1784150190.316679,0.001844885,-0.049162485,-1.442597628,0.000998125,0.000186994,-0.001488035,0.498971671,0.021096969,9.794698715
1784150190.318687,0.001844885,-0.049162485,-1.442597628,0.000759186,0.000248426,-0.000908923,0.474499524,0.036821917,9.769668579
1784150190.320687,0.001844916,-0.049162243,-1.442597628,0.000457783,0.000362565,0.000163003,0.460276932,0.047804642,9.763002396
1784150190.322696,0.001844916,-0.049162243,-1.442597628,0.000523238,0.000046768,0.000924068,0.485307634,0.040235825,9.774185181
1784150190.324688,0.001846012,-0.049162339,-1.442597628,0.000575281,0.000020303,0.000558995,0.502137780,0.023687255,9.802787781
1784150190.326690,0.001846012,-0.049162339,-1.442597628,0.000419891,0.000384854,-0.000318887,0.487840205,0.026378125,9.765131950
1784150190.328692,0.001846012,-0.049162339,-1.442597628,0.000391086,0.000196657,-0.000491462,0.479947060,0.042519182,9.777781487
