time_sec,roll_rad,pitch_rad,yaw_rad,gyro_x,gyro_y,gyro_z,acc_x,acc_y,acc_z
1784147609.024827,-0.001448139,-0.055922631,-0.002775553,-0.000556035,0.000129518,0.000574153,0.559723854,-0.002495968,9.789674759
1784147609.026631,-0.001448139,-0.055922631,-0.002775553,-0.000222129,0.000131078,0.000516471,0.547459006,-0.014870928,9.787788391
1784147609.028622,-0.001447542,-0.055922534,-0.002775553,-0.000082026,0.000531965,0.000043270,0.552416205,-0.012738883,9.794084549
1784147609.030621,-0.001447542,-0.055922534,-0.002775553,-0.000086097,0.000971137,-0.000625734,0.560890615,-0.017302291,9.790476799
1784147609.032614,-0.001447758,-0.055923246,-0.002775554,0.000267126,0.000940927,-0.000410460,0.555576563,-0.012219873,9.778399467
1784147609.034628,-0.001447758,-0.055923246,-0.002775554,0.000504936,0.000810471,-0.000145960,0.533806741,0.006386905,9.784325600
1784147609.036646,-0.001447758,-0.055923246,-0.002775554,0.000462269,0.000685417,-0.000549494,0.539918184,0.029583884,9.787617683
1784147609.038642,-0.001445698,-0.055922981,-0.002775554,0.000211203,0.000343925,-0.000718846,0.561538815,-0.001143284,9.785202026
1784147609.040614,-0.001445698,-0.055922981,-0.002775554,0.000006562,-0.000176484,-0.000536885,0.553822815,-0.008225641,9.786941528
1784147609.042597,-0.001445357,-0.055923246,-0.002775554,0.000222493,-0.000235768,-0.000365863,0.549338222,-0.008149075,9.784247398
1784147609.044590,-0.001445357,-0.055923246,-0.002775554,0.000525623,-0.000224981,-0.000493468,0.518387794,-0.007672886,9.773013115
1784147609.046652,-0.001445357,-0.055923246,-0.002775554,0.000527614,-0.000412090,-0.000696171,0.554702461,-0.011213887,9.764506340
1784147609.048596,-0.001445203,-0.055923972,-0.002775555,0.000709013,-0.000604999,-0.000735558,0.572441816,-0.028491816,9.768000603
1784147609.050587,-0.001445203,-0.055923972,-0.002775555,0.001057290,-0.000854972,-0.000908931,0.550411880,-0.030580277,9.786346436
1784147609.052589,-0.001446282,-0.055923324,-0.002775554,0.000974906,-0.000349481,-0.001031934,0.525516331,-0.012622497,9.763124466
1784147609.054588,-0.001446282,-0.055923324,-0.002775554,0.000830230,0.000681884,-0.000504219,0.565234780,-0.029429298,9.786816597
1784147609.056600,-0.001446282,-0.055923324,-0.002775554,0.000447729,0.000983574,0.000310513,0.547610879,-0.003134914,9.775310516
1784147609.058585,-0.001445483,-0.055923905,-0.002775555,-0.000202229,0.000289950,0.000808099,0.540816367,-0.006391080,9.804425240
1784147609.060589,-0.001445483,-0.055923905,-0.002775555,0.000102455,-0.000274305,0.000611887,0.540246606,-0.016256370,9.806603432
1784147609.062601,-0.001445638,-0.055923656,-0.002775554,0.001002015,0.000029517,0.000112972,0.540739417,-0.016318988,9.751459122
1784147609.064595,-0.001445638,-0.055923656,-0.002775554,0.000950722,0.000254593,0.000380229,0.535643041,-0.028061710,9.773794174
1784147609.066607,-0.001445638,-0.055923656,-0.002775554,0.000273602,-0.000117397,0.001040268,0.542393327,0.012434660,9.800512314
1784147609.068598,-0.001443860,-0.055923171,-0.002775554,0.000053190,-0.000369567,0.000907876,0.540939212,0.003089234,9.794175148
1784147609.070595,-0.001443860,-0.055923171,-0.002775554,0.000367994,-0.000212316,0.000146168,0.520143688,-0.011244596,9.768060684
1784147609.072663,-0.001443706,-0.055922512,-0.002775553,0.000454834,0.000171772,-0.000082521,0.545899153,0.004433475,9.785221100
1784147609.074604,-0.001443706,-0.055922512,-0.002775553,-0.000151665,0.000491697,0.000255492,0.530338705,0.016713744,9.787527084
1784147609.076606,-0.001443706,-0.055922512,-0.002775553,-0.000815427,0.000294397,0.000625343,0.549821079,-0.005047713,9.788303375
1784147609.078614,-0.001442845,-0.055922445,-0.002775552,-0.000635820,-0.000378793,0.000947035,0.541942298,-0.025572084,9.790404320
1784147609.080617,-0.001442845,-0.055922445,-0.002775552,0.000273844,-0.000821503,0.000839903,0.538450003,-0.018679487,9.772512436
1784147609.082609,-0.001443084,-0.055921752,-0.002775552,0.000707237,-0.000759350,0.000077668,0.567985117,-0.025762457,9.770254135
1784147609.084613,-0.001443084,-0.055921752,-0.002775552,0.000751896,-0.000605811,-0.000044196,0.549712420,-0.015226810,9.770751953
1784147609.086612,-0.001443084,-0.055921752,-0.002775552,0.001017899,-0.000535463,0.000354566,0.544240355,0.017282000,9.808614731
1784147609.088616,-0.001441812,-0.055922437,-0.002775553,0.001141836,-0.000372148,0.000104019,0.542188883,-0.004578324,9.799057961
1784147609.090617,-0.001441812,-0.055922437,-0.002775553,0.000873137,-0.000102653,-0.000511477,0.540657401,-0.020614544,9.788642883
1784147609.092622,-0.001442361,-0.055921908,-0.002775552,0.000350492,-0.000046576,-0.000997264,0.549641490,-0.020650040,9.777442932
1784147609.094631,-0.001442361,-0.055921908,-0.002775552,-0.000308395,-0.000528023,-0.000812952,0.545792758,-0.003296329,9.801312447
1784147609.096700,-0.001442361,-0.055921908,-0.002775552,-0.000827711,-0.001096421,-0.000336973,0.531006157,-0.000917677,9.808486938
1784147609.098665,-0.001442073,-0.055921651,-0.002775551,-0.000586561,-0.001189977,-0.000510961,0.526735783,-0.019718461,9.813741684
1784147609.100663,-0.001442073,-0.055921651,-0.002775551,-0.000064735,-0.001080101,-0.000924996,0.528934240,-0.024966933,9.791741371
1784147609.102660,-0.001443082,-0.055921286,-0.002775551,0.000187056,-0.001125774,-0.001047002,0.548693299,-0.023876015,9.791767120
1784147609.104672,-0.001443082,-0.055921286,-0.002775551,0.000117089,-0.001139533,-0.000937606,0.558507681,-0.028100917,9.801165581
1784147609.106683,-0.001443082,-0.055921286,-0.002775551,-0.000021658,-0.000879396,-0.000730184,0.527696908,-0.017200802,9.772960663
1784147609.108646,-0.001443621,-0.055920754,-0.002775550,0.000076227,-0.000761818,-0.000940200,0.546959698,-0.018912727,9.790003777
1784147609.110690,-0.001443621,-0.055920754,-0.002775550,0.000634986,-0.000788197,-0.001291615,0.562757969,-0.012699416,9.769885063
1784147609.112664,-0.001443419,-0.055921007,-0.002775550,0.000428007,-0.000641567,-0.001096372,0.563318789,-0.004120771,9.759628296
1784147609.114655,-0.001443419,-0.055921007,-0.002775550,-0.001260061,-0.000467053,-0.000486859,0.549909472,0.001728936,9.780277252
1784147609.116652,-0.001443419,-0.055921007,-0.002775550,-0.002144237,-0.000110875,0.000157560,0.533730626,-0.000697803,9.772624016
1784147609.118655,-0.001442597,-0.055920463,-0.002775549,-0.002007018,0.000482710,0.000539857,0.530445039,-0.012336346,9.777029037
1784147609.120648,-0.001442597,-0.055920463,-0.002775549,-0.001963652,0.000647192,0.000582100,0.531711042,-0.018660022,9.781921387
1784147609.122648,-0.001442637,-0.055919468,-0.002775548,-0.001973610,0.000141144,0.000013610,0.525429666,-0.018169731,9.787299156
1784147609.124694,-0.001442637,-0.055919468,-0.002775548,-0.001912010,-0.000657130,-0.000908263,0.520446837,-0.022532048,9.779644966
1784147609.126652,-0.001442637,-0.055919468,-0.002775548,-0.001703599,-0.001098316,-0.001271916,0.560515881,-0.012254503,9.774369240
1784147609.128659,-0.001442701,-0.055919629,-0.002775548,-0.001092060,-0.000652367,-0.001261050,0.550971031,-0.022824425,9.765773773
1784147609.130655,-0.001442701,-0.055919629,-0.002775548,-0.000516930,-0.000006016,-0.001070619,0.538462639,-0.017364219,9.776556015
1784147609.132655,-0.001442928,-0.055919439,-0.002775548,-0.000444670,0.000285380,-0.000409941,0.522619724,-0.027980840,9.785887718
1784147609.134655,-0.001442928,-0.055919439,-0.002775548,-0.000015463,0.000293172,0.000467956,0.534960985,-0.010544755,9.768974304
1784147609.136651,-0.001442928,-0.055919439,-0.002775548,0.000477074,0.000102017,0.000601232,0.564934075,-0.018529398,9.766711235
1784147609.138655,-0.001443585,-0.055919770,-0.002775548,0.000257714,-0.000082565,0.000300012,0.572132647,-0.015631922,9.787360191
1784147609.140735,-0.001443585,-0.055919770,-0.002775548,-0.000119020,-0.000127132,0.000477872,0.554298639,-0.007611727,9.762736320
1784147609.142657,-0.001443825,-0.055919379,-0.002775548,-0.000572527,-0.000013231,0.000535765,0.554608047,-0.018038228,9.779257774
1784147609.144660,-0.001443825,-0.055919379,-0.002775548,-0.001065918,0.000000723,0.000378726,0.548897386,-0.007269661,9.787390709
1784147609.146682,-0.001443825,-0.055919379,-0.002775548,-0.001029595,-0.000208484,0.000119317,0.540339828,-0.009441568,9.793196678
1784147609.148676,-0.001444049,-0.055919845,-0.002775548,-0.000570616,-0.000509103,-0.000142006,0.522233188,-0.020595042,9.819111824
1784147609.150670,-0.001444049,-0.055919845,-0.002775548,0.000180848,-0.000641828,-0.000457596,0.548686266,-0.024336692,9.793558121
1784147609.152666,-0.001444337,-0.055920392,-0.002775549,0.000658890,-0.000502783,-0.000848763,0.539257050,-0.027103685,9.758562088
1784147609.154670,-0.001444337,-0.055920392,-0.002775549,0.000500505,-0.000414580,-0.001044343,0.540273309,-0.015639888,9.782845497
1784147609.156665,-0.001444337,-0.055920392,-0.002775549,0.000815429,-0.000609168,-0.000826543,0.530956388,-0.006579012,9.785585403
1784147609.158667,-0.001444381,-0.055919580,-0.002775548,0.001277038,-0.000848181,0.000108176,0.551468849,-0.016768569,9.795403481
1784147609.160666,-0.001444381,-0.055919580,-0.002775548,0.000716086,-0.000452879,0.000502028,0.556887567,-0.014540520,9.787352562
1784147609.162675,-0.001444763,-0.055919770,-0.002775548,0.000275921,0.000057290,-0.000166614,0.551773429,0.007519898,9.781660080
1784147609.164675,-0.001444763,-0.055919770,-0.002775548,0.000651802,-0.000352975,-0.000584754,0.508239031,0.007591453,9.786999702
1784147609.166672,-0.001444763,-0.055919770,-0.002775548,0.000883792,-0.001085925,-0.000476659,0.531414151,-0.006108185,9.781554222
1784147609.168679,-0.001444350,-0.055919454,-0.002775548,0.000679022,-0.001145758,-0.000738849,0.544880807,-0.008262917,9.745238304
1784147609.170691,-0.001444350,-0.055919454,-0.002775548,0.000338929,-0.000554438,-0.001395965,0.555684805,-0.004070729,9.766346931
1784147609.172687,-0.001444137,-0.055919789,-0.002775548,0.000033014,-0.000395574,-0.001461083,0.563057423,-0.023205403,9.797614098
1784147609.174700,-0.001444137,-0.055919789,-0.002775548,0.000258607,-0.000486212,-0.000931299,0.541181862,-0.015158908,9.776573181
1784147609.176710,-0.001444137,-0.055919789,-0.002775548,0.000806862,-0.000230513,-0.000849836,0.571140587,-0.022851387,9.796278954
1784147609.178693,-0.001444646,-0.055920597,-0.002775550,0.001132774,-0.000186445,-0.000953867,0.581540465,-0.015870301,9.803956032
1784147609.180705,-0.001444646,-0.055920597,-0.002775550,0.001313445,-0.000300158,-0.000633414,0.560564995,-0.008219670,9.773946762
1784147609.182736,-0.001444726,-0.055921283,-0.002775551,0.001876016,-0.000535180,0.000177526,0.550736904,-0.003292799,9.791900635
1784147609.184707,-0.001444726,-0.055921283,-0.002775551,0.002810944,-0.000587497,0.001004459,0.552437186,-0.010546769,9.800823212
1784147609.186700,-0.001444726,-0.055921283,-0.002775551,0.002649971,-0.000001901,0.001175764,0.556120276,-0.004991472,9.769031525
1784147609.188701,-0.001444534,-0.055921234,-0.002775551,0.001327586,0.000943553,0.000994653,0.556459308,-0.012752467,9.788707733
1784147609.190693,-0.001444534,-0.055921234,-0.002775551,0.000544450,0.001611368,0.001025351,0.568106949,-0.015074980,9.779288292
1784147609.192698,-0.001444025,-0.055921972,-0.002775552,0.000508309,0.001336579,0.000972115,0.522505760,-0.037391201,9.786275864
1784147609.194704,-0.001444025,-0.055921972,-0.002775552,0.000586151,0.000581726,0.000208336,0.532329440,-0.003546381,9.797711372
1784147609.196705,-0.001444025,-0.055921972,-0.002775552,0.000629415,0.000393835,-0.000652954,0.525710642,-0.030442126,9.811429977
1784147609.198704,-0.001444437,-0.055920586,-0.002775550,0.000300165,0.000507967,-0.000485290,0.532122254,-0.019771552,9.811505318
1784147609.200701,-0.001444437,-0.055920586,-0.002775550,-0.000014460,0.000533161,0.000412637,0.553608418,-0.026128190,9.784584999
1784147609.202712,-0.001444585,-0.055920769,-0.002775550,0.000207391,0.000491767,0.001211567,0.565337598,-0.021728106,9.774761200
1784147609.204705,-0.001444585,-0.055920769,-0.002775550,0.000819084,0.000241876,0.001612551,0.550642252,0.023012659,9.747237206
1784147609.206714,-0.001444585,-0.055920769,-0.002775550,0.000868321,0.000015090,0.001091453,0.539352655,0.018940317,9.773203850
1784147609.208710,-0.001443384,-0.055920333,-0.002775549,-0.000104351,0.000115731,0.000224319,0.547577679,-0.005829040,9.776190758
1784147609.210713,-0.001443384,-0.055920333,-0.002775549,-0.000919030,0.000581303,0.000388917,0.536899984,0.001107850,9.765018463
1784147609.212713,-0.001442839,-0.055919431,-0.002775548,-0.001102846,0.000515309,0.001283446,0.567740083,-0.009560158,9.760494232
1784147609.214710,-0.001442839,-0.055919431,-0.002775548,-0.001059317,0.000089218,0.001626397,0.575493157,0.001461644,9.771781921
1784147609.216716,-0.001442839,-0.055919431,-0.002775548,-0.000842541,0.000015237,0.001155771,0.580069959,0.008596969,9.768244743
1784147609.218751,-0.001441369,-0.055920437,-0.002775549,-0.000773392,0.000053955,0.000542523,0.566627264,-0.026244039,9.777423859
1784147609.220733,-0.001441369,-0.055920437,-0.002775549,-0.001116953,0.000516176,0.000458607,0.542788804,-0.032064520,9.756739616
1784147609.222724,-0.001441673,-0.055920519,-0.002775550,-0.001580891,0.001073628,0.000001226,0.519888759,0.004474765,9.763229370
1784147609.224770,-0.001441673,-0.055920519,-0.002775550,-0.001432955,0.001276274,-0.000296230,0.559020519,0.013232324,9.784394264
1784147609.226753,-0.001441673,-0.055920519,-0.002775550,-0.000628716,0.000799325,0.000315087,0.538061559,-0.012929739,9.783759117
1784147609.228738,-0.001441792,-0.055920571,-0.002775550,-0.000298394,0.000185858,0.000559967,0.572752237,-0.001725434,9.783863068
1784147609.230730,-0.001441792,-0.055920571,-0.002775550,-0.000451777,0.000102744,0.000811967,0.557372510,-0.011423261,9.789165497
1784147609.232750,-0.001441972,-0.055920437,-0.002775550,-0.000270522,0.000398578,0.001070205,0.545058191,-0.027836239,9.788152695
1784147609.234740,-0.001441972,-0.055920437,-0.002775550,0.000444329,0.000916228,0.000863798,0.540240407,0.018852508,9.783963203
1784147609.236737,-0.001441972,-0.055920437,-0.002775550,0.001089045,0.001075338,0.000820726,0.567901433,-0.031287432,9.791290283
1784147609.238733,-0.001442667,-0.055921379,-0.002775551,0.001120650,0.000870326,0.001057642,0.557967544,-0.034490637,9.818608284
1784147609.240736,-0.001442667,-0.055921379,-0.002775551,0.000781071,0.000564776,0.000921906,0.557036221,-0.002829943,9.778461456
1784147609.242741,-0.001442059,-0.055922143,-0.002775552,-0.000061211,0.000335470,0.000027761,0.547821105,0.014329209,9.776320457
1784147609.244748,-0.001442059,-0.055922143,-0.002775552,-0.000909812,0.000118509,-0.000876991,0.560911477,-0.016326874,9.779274940
1784147609.246741,-0.001442059,-0.055922143,-0.002775552,-0.000988555,-0.000280347,-0.001374112,0.561775029,-0.018632235,9.786881447
1784147609.248767,-0.001442667,-0.055923257,-0.002775554,-0.000718022,-0.000323121,-0.001626047,0.558275938,-0.011387064,9.782441139
1784147609.250759,-0.001442667,-0.055923257,-0.002775554,-0.000444577,0.000162777,-0.001138660,0.555831313,-0.027535794,9.789509773
1784147609.252749,-0.001442091,-0.055923462,-0.002775554,-0.000247825,0.000388013,-0.000333029,0.557048738,0.000105471,9.806724548
1784147609.254750,-0.001442091,-0.055923462,-0.002775554,0.000051030,-0.000168000,-0.000002626,0.579000175,0.033490185,9.797993660
1784147609.256748,-0.001442091,-0.055923462,-0.002775554,0.000684789,-0.000681990,-0.000339534,0.545118034,0.013467783,9.776313782
1784147609.258748,-0.001440929,-0.055923834,-0.002775555,0.001097415,-0.000605142,-0.000708895,0.516284823,0.004812922,9.785195351
1784147609.260753,-0.001440929,-0.055923834,-0.002775555,0.001031849,-0.000854407,-0.000456750,0.541878879,-0.031341527,9.782747269
1784147609.262756,-0.001442327,-0.055923451,-0.002775554,0.000912202,-0.001069114,-0.000616349,0.578240752,-0.030456970,9.781889915
1784147609.264757,-0.001442327,-0.055923451,-0.002775554,0.000491001,-0.000445192,-0.001180093,0.570024550,-0.004807596,9.781151772
1784147609.266766,-0.001442327,-0.055923451,-0.002775554,-0.000123972,0.000080664,-0.000941001,0.551194251,-0.002825155,9.788318634
1784147609.268763,-0.001442341,-0.055922929,-0.002775554,-0.000398851,-0.000117749,-0.000174081,0.544639230,0.010804849,9.773604393
1784147609.270759,-0.001442341,-0.055922929,-0.002775554,-0.000309459,-0.000246972,0.000312951,0.540155232,-0.025488673,9.781886101
1784147609.272770,-0.001442413,-0.055922221,-0.002775553,-0.000545318,0.000203441,0.000453683,0.554357469,-0.001473821,9.781605721
1784147609.274768,-0.001442413,-0.055922221,-0.002775553,-0.000910290,0.000968281,0.000125087,0.564274907,0.002815712,9.790609360
1784147609.276770,-0.001442413,-0.055922221,-0.002775553,-0.000927499,0.001143910,0.000028392,0.557185590,-0.027082823,9.786375046
1784147609.278765,-0.001442155,-0.055921957,-0.002775552,-0.000714625,0.000509804,0.000549773,0.561623931,-0.032388665,9.768412590
1784147609.280768,-0.001442155,-0.055921957,-0.002775552,-0.000453497,-0.000204493,0.000801994,0.555057406,-0.018444249,9.772530556
1784147609.282807,-0.001441838,-0.055922154,-0.002775553,-0.000551799,-0.000754860,0.000515761,0.556712329,0.008292168,9.790187836
1784147609.284773,-0.001441838,-0.055922154,-0.002775553,-0.000384047,-0.000762285,0.000291765,0.554794073,-0.001574957,9.795056343
1784147609.286772,-0.001441838,-0.055922154,-0.002775553,0.000083006,-0.000522965,0.000708155,0.554814339,-0.000199276,9.790580750
1784147609.288779,-0.001441664,-0.055921879,-0.002775552,0.000112652,-0.000703598,0.000738242,0.560410500,-0.020381389,9.783282280
1784147609.290785,-0.001441664,-0.055921879,-0.002775552,-0.000207628,-0.000879853,-0.000161274,0.553882122,-0.039674528,9.798845291
1784147609.292784,-0.001442599,-0.055921700,-0.002775552,-0.000421266,-0.000899364,-0.000996442,0.535257816,-0.021069825,9.799394608
1784147609.294783,-0.001442599,-0.055921700,-0.002775552,-0.000633871,-0.000989940,-0.000793037,0.538273394,0.004953733,9.788805008
1784147609.296787,-0.001442599,-0.055921700,-0.002775552,-0.000445420,-0.000955062,-0.000084146,0.553428769,-0.003330479,9.792351723
1784147609.298790,-0.001441997,-0.055922356,-0.002775553,-0.000195303,-0.000657230,-0.000161739,0.563925326,0.010494037,9.782588005
1784147609.300789,-0.001441997,-0.055922356,-0.002775553,-0.000281945,-0.000221374,-0.000217472,0.527890682,0.001349653,9.810290337
1784147609.302790,-0.001440449,-0.055920806,-0.002775550,-0.000325688,0.000379274,0.000501712,0.563451767,0.009492577,9.798272133
1784147609.304832,-0.001440449,-0.055920806,-0.002775550,-0.000826985,0.000736000,0.000356516,0.566163182,0.010014151,9.783035278
1784147609.306815,-0.001440449,-0.055920806,-0.002775550,-0.001897264,0.000828463,-0.000563642,0.559405208,-0.028515868,9.794887543
1784147609.308799,-0.001441063,-0.055921376,-0.002775551,-0.002589352,0.000800232,-0.000476185,0.553633213,-0.023500837,9.793120384
1784147609.310791,-0.001441063,-0.055921376,-0.002775551,-0.002157827,0.000443266,-0.000033773,0.551723897,-0.033298012,9.788123131
1784147609.312803,-0.001441654,-0.055921488,-0.002775551,-0.001623001,0.000329818,-0.000522645,0.560885012,-0.018156879,9.784643173
1784147609.314793,-0.001441654,-0.055921488,-0.002775551,-0.001487144,0.000108239,-0.001259048,0.549890280,-0.000043832,9.777575493
1784147609.316799,-0.001441654,-0.055921488,-0.002775551,-0.000976446,-0.000295592,-0.001146341,0.523762763,-0.007411564,9.789608955
1784147609.318807,-0.001439641,-0.055919122,-0.002775548,-0.000296583,-0.000486873,-0.000774344,0.548636317,-0.029594585,9.776935577
1784147609.320804,-0.001439641,-0.055919122,-0.002775548,0.000105587,-0.000929651,-0.000757912,0.558756471,-0.009114856,9.777077675
1784147609.322843,-0.001439257,-0.055919886,-0.002775549,0.000036154,-0.001320411,-0.000728846,0.554788888,-0.002426364,9.788772583
1784147609.324811,-0.001439257,-0.055919886,-0.002775549,-0.000189632,-0.001098877,-0.000759285,0.545614421,-0.020509265,9.764885902
1784147609.326806,-0.001439257,-0.055919886,-0.002775549,-0.000479176,-0.000809817,-0.000835102,0.542333007,-0.030899310,9.782750130
1784147609.328809,-0.001440964,-0.055919599,-0.002775548,-0.001055917,-0.000938608,-0.000676184,0.506371677,0.000151737,9.765428543
1784147609.330812,-0.001440964,-0.055919599,-0.002775548,-0.001134705,-0.001199100,-0.000398334,0.531194866,0.012324385,9.773153305
1784147609.332813,-0.001438615,-0.055919182,-0.002775548,-0.000286490,-0.001184412,0.000095484,0.536679268,0.020744400,9.776350975
1784147609.334812,-0.001438615,-0.055919182,-0.002775548,0.000227738,-0.000757837,0.000331014,0.539168715,0.003709636,9.773106575
1784147609.336812,-0.001438615,-0.055919182,-0.002775548,-0.000314841,-0.000144777,-0.000219250,0.542612493,-0.008024680,9.778861046
1784147609.338815,-0.001437932,-0.055919297,-0.002775548,-0.000688235,0.000678803,-0.000491613,0.568392694,-0.029335998,9.767991066
1784147609.340815,-0.001437932,-0.055919297,-0.002775548,-0.000113099,0.001070540,-0.000509324,0.561557353,-0.037776913,9.770171165
1784147609.342827,-0.001439497,-0.055920593,-0.002775550,0.000610092,0.000942085,-0.001083654,0.564476490,-0.018593606,9.776574135
1784147609.344825,-0.001439497,-0.055920593,-0.002775550,0.000360944,0.001105542,-0.000960294,0.540574908,0.009839839,9.790631294
1784147609.346827,-0.001439497,-0.055920593,-0.002775550,0.000049439,0.001094714,-0.000004871,0.524229944,-0.007271048,9.768985748
1784147609.348820,-0.001438835,-0.055918884,-0.002775548,0.000848551,0.000556774,0.000202423,0.550113440,-0.018851226,9.775662422
1784147609.350823,-0.001438835,-0.055918884,-0.002775548,0.001431958,0.000063081,-0.000658032,0.577569485,-0.010423947,9.801297188
1784147609.352827,-0.001438632,-0.055922002,-0.002775552,0.000810939,0.000018813,-0.000977889,0.576009870,-0.028302886,9.798043251
1784147609.354825,-0.001438632,-0.055922002,-0.002775552,-0.000183333,0.000273752,-0.000127053,0.547707140,0.004918846,9.776708603
1784147609.356827,-0.001438632,-0.055922002,-0.002775552,-0.000460585,0.000074566,0.000834322,0.550204337,-0.010838803,9.782886505
1784147609.358830,-0.001437546,-0.055921700,-0.002775551,-0.000160386,-0.000558833,0.001027300,0.544958949,0.000054391,9.772639275
1784147609.360842,-0.001437546,-0.055921700,-0.002775551,-0.000373213,-0.000904511,0.000662391,0.532390893,0.000990461,9.789669991
1784147609.362840,-0.001437621,-0.055920653,-0.002775550,-0.000507253,-0.000816567,0.000723418,0.542758763,0.004476895,9.784770966
1784147609.364841,-0.001437621,-0.055920653,-0.002775550,0.000011464,-0.000597374,0.000805823,0.539178371,0.005406097,9.786566734
1784147609.366843,-0.001437621,-0.055920653,-0.002775550,0.000049284,-0.000197714,0.000487562,0.519723892,-0.005742853,9.814271927
1784147609.368837,-0.001436371,-0.055919513,-0.002775548,-0.000278275,0.000726350,0.000403089,0.517714679,-0.025649175,9.781863213
1784147609.370845,-0.001436371,-0.055919513,-0.002775548,-0.000011632,0.001356636,0.000576789,0.573772848,-0.029843407,9.766647339
1784147609.372847,-0.001437430,-0.055921279,-0.002775551,0.000104061,0.001170660,0.000374676,0.555255532,-0.001885586,9.774877548
1784147609.374874,-0.001437430,-0.055921279,-0.002775551,-0.001042439,0.000939900,0.000315211,0.538462996,-0.017361043,9.776106834
1784147609.376849,-0.001437430,-0.055921279,-0.002775551,-0.002640260,0.000649152,0.001064276,0.561751664,-0.022463571,9.758612633
1784147609.378847,-0.001435269,-0.055914793,-0.002749467,-0.002828992,0.000290018,0.001514981,0.563643217,-0.015238631,9.747303963
1784147609.380870,-0.001435269,-0.055914793,-0.002749467,-0.001802703,0.000452955,0.001107970,0.573202372,-0.002125099,9.776239395
1784147609.382863,-0.001434581,-0.055915780,-0.002749468,-0.001018421,0.000636664,0.000908164,0.540789127,-0.012684421,9.744309425
1784147609.384855,-0.001434581,-0.055915780,-0.002749468,-0.000762162,0.000106593,0.000975030,0.528625727,-0.015344149,9.762212753
1784147609.386863,-0.001434581,-0.055915780,-0.002749468,-0.000848030,-0.000542623,0.000371977,0.552139401,0.001592086,9.795521736
1784147609.388858,-0.001433668,-0.055916023,-0.002749469,-0.001066950,-0.000455134,-0.000190829,0.547466218,-0.014813695,9.779720306
1784147609.390860,-0.001433668,-0.055916023,-0.002749469,-0.001372543,-0.000393587,0.000012689,0.555507421,-0.016413691,9.801237106
1784147609.392864,-0.001433815,-0.055915948,-0.002749469,-0.001566739,-0.001016356,0.000373898,0.542431772,-0.020393079,9.817339897
1784147609.394866,-0.001433815,-0.055915948,-0.002749469,-0.001307322,-0.001238820,0.000386234,0.524307847,0.000233004,9.784725189
1784147609.396860,-0.001433815,-0.055915948,-0.002749469,-0.000690271,-0.000446671,-0.000393062,0.544431627,-0.005423502,9.787847519
1784147609.398865,-0.001432913,-0.055915575,-0.002749468,-0.000621418,0.000026954,-0.001034159,0.537200034,-0.010608479,9.773907661
1784147609.400878,-0.001432913,-0.055915575,-0.002749468,-0.001137853,-0.000005091,-0.000655758,0.529920399,0.019391358,9.789786339
1784147609.402870,-0.001431444,-0.055914942,-0.002749467,-0.001424950,-0.000225174,-0.000742088,0.544379056,-0.010297019,9.780193329
1784147609.404902,-0.001431444,-0.055914942,-0.002749467,-0.001581980,-0.000601501,-0.000896358,0.559449434,-0.025735889,9.781903267
1784147609.406885,-0.001431444,-0.055914942,-0.002749467,-0.001331197,-0.000380371,-0.000229174,0.563591599,-0.015646687,9.804835320
1784147609.408873,-0.001431114,-0.055915274,-0.002749468,-0.000566022,0.000064530,-0.000083615,0.549660802,-0.017660573,9.798085213
1784147609.410875,-0.001431114,-0.055915274,-0.002749468,0.000242434,0.000100598,-0.000412027,0.544846535,-0.008533181,9.783344269
1784147609.412880,-0.001430352,-0.055914965,-0.002749468,0.000649074,0.000089963,-0.000182420,0.547389567,-0.022308212,9.762635231
1784147609.414882,-0.001430352,-0.055914965,-0.002749468,0.000262947,0.000609004,0.000401889,0.503865480,-0.019723764,9.792648315
1784147609.416876,-0.001430352,-0.055914965,-0.002749468,-0.000215005,0.001169896,0.000719947,0.544574738,-0.030537330,9.790824890
1784147609.418900,-0.001431013,-0.055914842,-0.002749468,-0.000206040,0.001090774,0.000606515,0.556914926,-0.013514234,9.768978119
1784147609.420892,-0.001431013,-0.055914842,-0.002749468,-0.000043184,0.000402584,0.000340098,0.535464585,-0.004847841,9.786047935
1784147609.422887,-0.001431204,-0.055914123,-0.002749467,0.000561408,-0.000267094,0.000326368,0.544274926,-0.020034518,9.763543129
1784147609.424926,-0.001431204,-0.055914123,-0.002749467,0.001242574,-0.000235456,0.000301591,0.560560226,-0.009067901,9.767216682
1784147609.426905,-0.001431204,-0.055914123,-0.002749467,0.001003419,0.000178042,-0.000455576,0.548272967,0.014348896,9.772734642
1784147609.428898,-0.001429574,-0.055914540,-0.002749467,0.000105116,0.000379748,-0.001117180,0.535374820,-0.012447283,9.783759117
1784147609.430894,-0.001429574,-0.055914540,-0.002749467,-0.000193774,0.000227341,-0.000372731,0.540190816,-0.021155328,9.802537918
1784147609.432898,-0.001430034,-0.055914428,-0.002749467,0.000365901,0.000037927,-0.000154542,0.555823207,-0.029626157,9.768424988
1784147609.434893,-0.001430034,-0.055914428,-0.002749467,0.000723999,0.000104777,-0.001023485,0.538105130,-0.010559564,9.765392303
1784147609.436900,-0.001430034,-0.055914428,-0.002749467,0.000581900,-0.000153036,-0.000864569,0.535774052,0.020288857,9.779036522
1784147609.438904,-0.001429195,-0.055914387,-0.002749467,0.000205523,-0.000394672,-0.000298238,0.566877067,-0.006034918,9.770380020
1784147609.440905,-0.001429195,-0.055914387,-0.002749467,0.000352754,-0.000245947,-0.000749680,0.550218046,-0.010730694,9.767643929
1784147609.442902,-0.001429475,-0.055914659,-0.002749468,0.000979611,-0.000627744,-0.001315130,0.555730581,-0.036841232,9.775102615
1784147609.444907,-0.001429475,-0.055914659,-0.002749468,0.001069915,-0.001194123,-0.001043273,0.551648974,-0.039563108,9.787186623
1784147609.446926,-0.001429475,-0.055914659,-0.002749468,0.000386114,-0.000663679,-0.000678699,0.551153898,-0.008006727,9.760936737
1784147609.448918,-0.001429011,-0.055915739,-0.002749469,-0.000235616,0.000029176,-0.000267185,0.533228397,-0.004761861,9.777976990
1784147609.450928,-0.001429011,-0.055915739,-0.002749469,-0.000356927,-0.000427603,0.000677633,0.549275696,-0.012695457,9.793633461
1784147609.452919,-0.001429287,-0.055915661,-0.002749469,-0.000355683,-0.000903330,0.001040337,0.552209616,0.008225649,9.807668686
1784147609.454919,-0.001429287,-0.055915661,-0.002749469,-0.000527422,-0.000632184,0.000675917,0.546006143,0.014193229,9.798733711
1784147609.456911,-0.001429287,-0.055915661,-0.002749469,-0.000724524,-0.000415549,0.000356277,0.522068441,0.001510240,9.798182487
1784147609.458915,-0.001428425,-0.055914778,-0.002749468,-0.000400212,-0.000513327,-0.000111932,0.534539700,-0.008296024,9.768541336
1784147609.460914,-0.001428425,-0.055914778,-0.002749468,0.000235197,-0.000392752,-0.000144433,0.536408126,-0.000443316,9.795043945
1784147609.462920,-0.001428277,-0.055914216,-0.002749467,0.000428279,-0.000053447,0.000392469,0.547538817,-0.008567678,9.783346176
1784147609.464919,-0.001428277,-0.055914216,-0.002749467,0.000029787,0.000400305,0.000332595,0.527045727,0.003801275,9.782060623
1784147609.466924,-0.001428277,-0.055914216,-0.002749467,-0.000277569,0.000716142,-0.000216582,0.548126936,0.003064022,9.784766197
1784147609.468921,-0.001427800,-0.055914905,-0.002749468,-0.000487359,0.000603424,-0.000510229,0.538447857,-0.017075244,9.798974991
1784147609.470921,-0.001427800,-0.055914905,-0.002749468,-0.000513134,0.000538715,-0.000850211,0.546476841,-0.021607464,9.791780472
1784147609.472929,-0.001427882,-0.055915583,-0.002749469,0.000012763,0.000736584,-0.000915136,0.558302224,-0.047553658,9.764724731
1784147609.474924,-0.001427882,-0.055915583,-0.002749469,0.000356572,0.000680616,-0.000548419,0.555835187,-0.028720699,9.767085075
1784147609.476927,-0.001427882,-0.055915583,-0.002749469,0.000096480,0.000249255,-0.000266205,0.574825346,-0.017283382,9.762695312
1784147609.478930,-0.001428649,-0.055918083,-0.002749472,0.000051899,-0.000030884,-0.000006039,0.540466607,-0.000336078,9.772633553
1784147609.480935,-0.001428649,-0.055918083,-0.002749472,0.000053695,-0.000327652,0.000562115,0.552895308,-0.010882834,9.784234047
1784147609.482937,-0.001428913,-0.055917408,-0.002749472,-0.000054513,-0.000615324,0.001083748,0.543521821,-0.006320644,9.789633751
1784147609.484933,-0.001428913,-0.055917408,-0.002749472,0.000340256,-0.000698468,0.000562618,0.539931834,-0.044677876,9.771450996
1784147609.486941,-0.001428913,-0.055917408,-0.002749472,0.001062332,-0.000779730,-0.000141377,0.569744527,-0.030928871,9.737495422
1784147609.488935,-0.001429506,-0.055919349,-0.002749474,0.001412001,-0.000318150,-0.000146158,0.563342273,-0.040309627,9.745049477
1784147609.490937,-0.001429506,-0.055919349,-0.002749474,0.001338658,-0.000125117,0.000300336,0.536325157,-0.007582080,9.790964127
1784147609.492946,-0.001429005,-0.055919237,-0.002749474,0.000988874,-0.000541931,0.001055268,0.540021598,0.000914985,9.786538124
1784147609.494946,-0.001429005,-0.055919237,-0.002749474,0.000269305,-0.000389477,0.001426513,0.564999819,-0.011120736,9.795900345
1784147609.496948,-0.001429005,-0.055919237,-0.002749474,0.000253064,-0.000244464,0.001138351,0.563751757,-0.003440456,9.789222717
1784147609.498951,-0.001429525,-0.055919629,-0.002749474,0.000799527,-0.000395393,0.000693212,0.544342339,-0.012613137,9.790939331
1784147609.500948,-0.001429525,-0.055919629,-0.002749474,0.001094016,-0.000019244,0.000533943,0.554088593,-0.023859160,9.779668808
1784147609.502950,-0.001429986,-0.055919673,-0.002749474,0.001058277,0.000422235,-0.000032842,0.556239247,-0.032726299,9.762576103
1784147609.504953,-0.001429986,-0.055919673,-0.002749474,0.000812062,0.000475459,-0.000321222,0.536759675,-0.044479016,9.812247276
1784147609.506977,-0.001429986,-0.055919673,-0.002749474,0.000795408,0.000582482,-0.000205733,0.555277407,-0.036060385,9.792144775
1784147609.508956,-0.001431265,-0.055920083,-0.002749475,0.000762644,0.000304117,-0.000683224,0.562110722,-0.027635364,9.792204857
1784147609.510955,-0.001431265,-0.055920083,-0.002749475,0.000572028,-0.000082176,-0.000165871,0.550595224,-0.016569477,9.768951416
1784147609.512957,-0.001431498,-0.055920407,-0.002749475,0.000565806,0.000263074,0.000521597,0.584455907,0.002067700,9.796451569
1784147609.514965,-0.001431498,-0.055920407,-0.002749475,0.000549936,0.000899442,-0.000076623,0.559011281,-0.021593932,9.830348969
1784147609.516965,-0.001431498,-0.055920407,-0.002749475,0.000568294,0.000856736,-0.000190261,0.529212296,-0.002508466,9.783367157
1784147609.518970,-0.001431452,-0.055920471,-0.002749476,0.000647224,0.000317621,0.000265783,0.551132679,-0.006958554,9.802639008
1784147609.520968,-0.001431452,-0.055920471,-0.002749476,0.000991178,-0.000365420,0.000470481,0.534294009,0.009523237,9.783451080
1784147609.522971,-0.001430807,-0.055919815,-0.002749475,0.000897241,-0.000931843,0.000708930,0.551459372,0.020341640,9.806401253
1784147609.525004,-0.001430807,-0.055919815,-0.002749475,0.000020114,-0.000955781,0.000558585,0.583685756,0.011594493,9.781270027
1784147609.526978,-0.001430807,-0.055919815,-0.002749475,-0.000380496,-0.000687250,0.000360774,0.572376668,-0.033463906,9.774244308
1784147609.528981,-0.001431446,-0.055921052,-0.002749477,-0.000380535,-0.000190781,0.000543743,0.538040698,-0.013905153,9.794960976
1784147609.530980,-0.001431446,-0.055921052,-0.002749477,-0.000450495,0.000282741,0.000172095,0.540436447,-0.002194699,9.782034874
1784147609.532978,-0.001430585,-0.055920828,-0.002749476,-0.000325906,0.000052374,-0.000516765,0.526979387,-0.001180354,9.789650917
1784147609.534975,-0.001430585,-0.055920828,-0.002749476,0.000047256,-0.000643566,-0.000515635,0.523764431,-0.008208917,9.775704384
1784147609.536977,-0.001430585,-0.055920828,-0.002749476,-0.000332190,-0.001109633,-0.000172634,0.567297161,-0.008293195,9.772159576
1784147609.538981,-0.001430568,-0.055921771,-0.002749478,-0.000876985,-0.001264059,-0.000283193,0.558846474,-0.000705342,9.791478157
1784147609.540978,-0.001430568,-0.055921771,-0.002749478,-0.000600288,-0.001091959,-0.000992891,0.533780575,-0.032219809,9.794838905
1784147609.542986,-0.001431418,-0.055921029,-0.002749477,-0.000144398,-0.000721213,-0.000876315,0.529320836,-0.030325959,9.788570404
1784147609.544982,-0.001431418,-0.055921029,-0.002749477,0.000294017,-0.000422806,0.000273994,0.537864864,-0.029882304,9.773785591
1784147609.547003,-0.001431418,-0.055921029,-0.002749477,0.000504708,-0.000309808,0.000714087,0.544784307,-0.013483011,9.786450386
1784147609.548985,-0.001431738,-0.055920556,-0.002749476,0.000389109,-0.000201719,0.000240127,0.556494892,-0.009229193,9.797248840
1784147609.550990,-0.001431738,-0.055920556,-0.002749476,0.000377082,-0.000089086,0.000111777,0.540225029,-0.020885052,9.764431000
1784147609.552990,-0.001432460,-0.055920534,-0.002749476,0.000583493,-0.000013891,0.000758704,0.545386553,-0.038113292,9.783602715
1784147609.554994,-0.001432460,-0.055920534,-0.002749476,0.000911123,-0.000302567,0.001156144,0.554982007,-0.062302489,9.765523911
1784147609.556991,-0.001432460,-0.055920534,-0.002749476,0.000860145,-0.000755752,0.000469063,0.558995545,-0.024554783,9.805671692
1784147609.558991,-0.001432755,-0.055920620,-0.002749476,0.000178654,-0.000642316,-0.000788196,0.559539139,-0.015706234,9.820523262
1784147609.560997,-0.001432755,-0.055920620,-0.002749476,-0.000242329,-0.000097383,-0.000907121,0.539199352,0.007598205,9.793306351
1784147609.563001,-0.001431908,-0.055920079,-0.002749475,-0.000173531,0.000092352,-0.000145879,0.569942474,-0.011939992,9.776173592
1784147609.565006,-0.001431908,-0.055920079,-0.002749475,-0.000031278,0.000234007,-0.000313230,0.564624608,-0.005266054,9.792349815
1784147609.567009,-0.001431908,-0.055920079,-0.002749475,0.000056875,0.000484018,-0.000867593,0.540816665,-0.007604598,9.786035538
1784147609.569005,-0.001431728,-0.055920776,-0.002749476,0.000367984,0.000210074,-0.000713983,0.539061189,-0.005649851,9.766321182
1784147609.571005,-0.001431728,-0.055920776,-0.002749476,0.000971080,-0.000141750,0.000083638,0.563523591,0.015732240,9.802795410
1784147609.573008,-0.001430746,-0.055920817,-0.002749476,0.001248799,-0.000323535,0.000538493,0.542104661,-0.012133250,9.790491104
1784147609.575012,-0.001430746,-0.055920817,-0.002749476,0.001039560,-0.000178107,0.000311138,0.541929424,0.009079294,9.769107819
1784147609.577011,-0.001430746,-0.055920817,-0.002749476,0.000874943,0.000538058,0.000455773,0.556133330,-0.004483102,9.760516167
1784147609.579012,-0.001430145,-0.055921081,-0.002749476,0.000862586,0.001021291,0.000777717,0.539773643,-0.019684868,9.785510063
1784147609.581016,-0.001430145,-0.055921081,-0.002749476,0.000753265,0.000544004,0.001404609,0.559930205,-0.023867127,9.770258904
1784147609.583049,-0.001430131,-0.055921935,-0.002749478,0.000869639,-0.000058129,0.001914343,0.560356081,0.011915714,9.778111458
1784147609.585018,-0.001430131,-0.055921935,-0.002749478,0.001066230,-0.000279447,0.001871876,0.532433331,0.004567791,9.790589333
1784147609.587019,-0.001430131,-0.055921935,-0.002749478,0.000933834,-0.000764012,0.002217787,0.531301260,-0.014698935,9.792706490
1784147609.589026,-0.001429874,-0.055921108,-0.002749476,0.000550545,-0.001002715,0.001946459,0.542151511,-0.008520948,9.786480904
1784147609.591034,-0.001429874,-0.055921108,-0.002749476,0.000317147,-0.000487376,0.000814017,0.562475145,0.001583857,9.778045654
1784147609.593026,-0.001429070,-0.055922583,-0.002749478,0.000076512,0.000085688,0.000170553,0.557669282,-0.026001874,9.759482384
1784147609.595029,-0.001429070,-0.055922583,-0.002749478,-0.000246544,0.000321771,0.000187949,0.560783386,-0.027875302,9.765301704
1784147609.597034,-0.001429070,-0.055922583,-0.002749478,0.000004694,0.000379518,0.000363225,0.549378872,-0.042581055,9.774611473
1784147609.599041,-0.001430365,-0.055923022,-0.002749479,0.000526653,0.000073732,0.000850549,0.545840740,-0.038481154,9.771495819
1784147609.601031,-0.001430365,-0.055923022,-0.002749479,0.000593741,-0.000685518,0.001184021,0.532175541,-0.018135140,9.770268440
1784147609.603041,-0.001429763,-0.055922385,-0.002749478,0.000014542,-0.000957326,0.000687396,0.532252610,-0.010637444,9.786905289
1784147609.605041,-0.001429763,-0.055922385,-0.002749478,-0.000582342,-0.000648474,0.000165690,0.553630769,-0.022709845,9.807920456
1784147609.607046,-0.001429763,-0.055922385,-0.002749478,-0.000528009,-0.000268643,0.000094154,0.550008476,-0.025758240,9.802068710
1784147609.609045,-0.001431006,-0.055922102,-0.002749478,0.000326463,0.000160160,0.000224700,0.569642603,0.000993035,9.785223007
1784147609.611050,-0.001431006,-0.055922102,-0.002749478,0.000947225,0.000310675,0.000300846,0.544688046,-0.020726703,9.797163963
1784147609.613051,-0.001431139,-0.055921461,-0.002749477,0.000620344,0.000249397,0.000245816,0.546060085,-0.019323757,9.786416054
1784147609.615045,-0.001431139,-0.055921461,-0.002749477,0.000037712,0.000065916,-0.000030267,0.519403338,0.002974475,9.786083221
1784147609.617042,-0.001431139,-0.055921461,-0.002749477,-0.000171378,-0.000319181,-0.000701797,0.581381738,0.007092752,9.788410187
1784147609.619052,-0.001430793,-0.055922441,-0.002749478,-0.000050061,-0.000333901,-0.000990513,0.566603541,0.011158331,9.810392380
1784147609.621050,-0.001430793,-0.055922441,-0.002749478,0.000144733,-0.000438534,-0.000749899,0.558022022,0.003935208,9.770435333
1784147609.623066,-0.001430111,-0.055922613,-0.002749478,-0.000005881,-0.000764922,-0.000359851,0.541641772,-0.014265555,9.776131630
1784147609.625056,-0.001430111,-0.055922613,-0.002749478,-0.000490958,-0.000550103,0.000160894,0.551834822,0.011246669,9.761509895
1784147609.627070,-0.001430111,-0.055922613,-0.002749478,-0.000228119,-0.000221370,0.000722708,0.576732934,-0.005878784,9.793704987
1784147609.629097,-0.001430185,-0.055923522,-0.002749480,0.000472524,0.000230159,0.000881248,0.575100064,0.007579866,9.794237137
1784147609.631068,-0.001430185,-0.055923522,-0.002749480,0.000848616,0.001321931,0.000116241,0.548532128,-0.000932038,9.778912544
1784147609.633070,-0.001429579,-0.055923183,-0.002749479,0.001177074,0.002064793,-0.000784248,0.568417013,-0.025901752,9.789083481
1784147609.635075,-0.001429579,-0.055923183,-0.002749479,0.000881392,0.001709445,-0.001067003,0.534428835,-0.016060803,9.789562225
1784147609.637077,-0.001429579,-0.055923183,-0.002749479,0.000028514,0.001077918,-0.001023350,0.534428835,-0.016060803,9.789562225
1784147609.639078,-0.001430761,-0.055923168,-0.002749479,-0.000665010,0.000671416,-0.000792796,0.533932567,-0.019267097,9.800302505
1784147609.641137,-0.001430761,-0.055923168,-0.002749479,-0.001242446,0.000428843,-0.000426086,0.533932567,-0.019267097,9.800302505
1784147609.643084,-0.001429491,-0.055923373,-0.002749480,-0.001319550,0.000248536,-0.000176467,0.544537485,0.003516637,9.790595055
1784147609.645078,-0.001429491,-0.055923373,-0.002749480,-0.001032169,0.000113592,-0.000012149,0.544537485,0.003516637,9.790595055
1784147609.647087,-0.001429491,-0.055923373,-0.002749480,-0.000821469,0.000018702,-0.000452030,0.553252935,-0.019307636,9.771179199
1784147609.649089,-0.001429491,-0.055923373,-0.002749480,-0.000666630,-0.000047007,-0.001332063,0.553252935,-0.019307636,9.771179199
1784147609.651084,-0.001429984,-0.055923846,-0.002749480,-0.000789969,-0.000147655,-0.001757206,0.542326152,-0.030953364,9.790370941
1784147609.653085,-0.001430430,-0.055923428,-0.002749480,-0.000715268,0.000044470,-0.001613882,0.528332293,-0.003170312,9.751979828
1784147609.655083,-0.001430430,-0.055923428,-0.002749480,-0.000332171,0.000469207,-0.001561519,0.552560091,-0.001876530,9.778462410
1784147609.657089,-0.001429724,-0.055923250,-0.002749480,-0.000288074,0.000676261,-0.002029767,0.558912754,0.003466207,9.771778107
1784147609.659089,-0.001429724,-0.055923250,-0.002749480,-0.000333209,0.000500293,-0.001777115,0.559601307,-0.014809945,9.757314682
1784147609.661088,-0.001430006,-0.055923220,-0.002749480,0.000005015,-0.000231297,-0.000711294,0.517082036,-0.003284140,9.788283348
1784147609.663089,-0.001430006,-0.055923220,-0.002749480,0.000832331,-0.000624419,-0.000276137,0.559521973,-0.020299943,9.773419380
1784147609.665090,-0.001430006,-0.055923220,-0.002749480,0.001117567,-0.000256976,-0.000353131,0.559815705,-0.031660527,9.795315742
1784147609.667102,-0.001431466,-0.055923864,-0.002749481,0.000617211,-0.000286984,-0.000520315,0.549980342,0.008772313,9.797805786
1784147609.669095,-0.001431466,-0.055923864,-0.002749481,0.000139055,-0.000828379,-0.000843752,0.557584107,0.005646951,9.782550812
1784147609.671093,-0.001430683,-0.055924814,-0.002749482,-0.000116198,-0.000831896,-0.000409129,0.533985615,-0.013580330,9.819617271
1784147609.673094,-0.001430683,-0.055924814,-0.002749482,-0.000082232,-0.000356717,0.000867246,0.532061100,-0.026738608,9.783214569
1784147609.675097,-0.001430683,-0.055924814,-0.002749482,0.000284917,-0.000244584,0.001200602,0.549881458,-0.037703749,9.780920982
1784147609.677093,-0.001432285,-0.055925209,-0.002749483,0.000523268,0.000222927,0.000218028,0.555127680,-0.013430820,9.760457993
1784147609.679101,-0.001432285,-0.055925209,-0.002749483,0.000446392,0.000817862,-0.000442591,0.557954431,-0.000245879,9.791479111
1784147609.681111,-0.001431368,-0.055925369,-0.002749483,0.000291498,0.000635600,-0.000151205,0.549874067,0.000232431,9.801785469
1784147609.683109,-0.001431368,-0.055925369,-0.002749483,0.000336564,0.000103811,0.000275716,0.558120489,0.013628193,9.793361664
1784147609.685103,-0.001431368,-0.055925369,-0.002749483,0.000498334,-0.000138885,0.000244750,0.535555482,0.001947891,9.775331497
1784147609.687108,-0.001431257,-0.055924643,-0.002749482,0.000494327,0.000100162,0.000134056,0.537348330,0.001098925,9.765464783
1784147609.689104,-0.001431257,-0.055924643,-0.002749482,0.000294310,0.000490982,0.000288984,0.556045890,-0.010846769,9.773476601
1784147609.691110,-0.001430075,-0.055925701,-0.002749484,-0.000070432,0.000597728,0.000454664,0.574328303,0.017904013,9.792957306
1784147609.693112,-0.001430075,-0.055925701,-0.002749484,-0.000214699,0.000241094,0.000753650,0.528457344,-0.028830675,9.768852234
1784147609.695119,-0.001430075,-0.055925701,-0.002749484,0.000183198,-0.000329899,0.000934421,0.567693710,-0.011952584,9.782000542
1784147609.697108,-0.001429430,-0.055926457,-0.002749484,0.000638919,-0.000547113,0.000652289,0.573912442,-0.016989261,9.786007881
1784147609.699112,-0.001429430,-0.055926457,-0.002749484,0.000868993,-0.000074945,0.000558420,0.548595428,-0.033159196,9.774223328
1784147609.701113,-0.001430110,-0.055926509,-0.002749484,0.000784700,0.000484854,0.000960187,0.541972220,-0.023310022,9.787281990
1784147609.703117,-0.001430110,-0.055926509,-0.002749484,-0.000166881,0.000401270,0.000761319,0.541980982,-0.023646697,9.771588326
1784147609.705121,-0.001430110,-0.055926509,-0.002749484,-0.001133429,0.000075332,0.000289603,0.545505226,-0.026234562,9.814166069
1784147609.707142,-0.001430772,-0.055925447,-0.002749483,-0.000932591,0.000040692,0.000508136,0.552204967,0.004947206,9.764608383
1784147609.709133,-0.001430772,-0.055925447,-0.002749483,0.000098131,-0.000102849,0.000794444,0.561565757,-0.000120177,9.767273903
1784147609.711131,-0.001430305,-0.055926569,-0.002749485,0.000704148,-0.000136405,0.001418373,0.550652623,-0.010037653,9.795445442
1784147609.713129,-0.001430305,-0.055926569,-0.002749485,0.000426458,0.000259668,0.002072669,0.558618844,-0.019522887,9.791804314
1784147609.715129,-0.001430305,-0.055926569,-0.002749485,0.000243568,0.000533868,0.001917455,0.570326984,-0.015694773,9.799462318
1784147609.717129,-0.001430303,-0.055927787,-0.002749487,0.000379644,0.000428382,0.001207400,0.535935938,-0.002648756,9.790995598
1784147609.719129,-0.001430303,-0.055927787,-0.002749487,0.000569430,0.000351223,0.000581964,0.537618518,-0.011662776,9.795422554
1784147609.721128,-0.001430107,-0.055927280,-0.002749486,0.000758999,0.000129479,0.000612899,0.524344146,0.004572713,9.804480553
1784147609.723137,-0.001430107,-0.055927280,-0.002749486,0.000446284,0.000080797,0.000635347,0.539397955,-0.013833365,9.782407761
1784147609.725137,-0.001430107,-0.055927280,-0.002749486,0.000366249,0.000384286,0.000888497,0.529029489,-0.016919529,9.794034958
1784147609.727136,-0.001430230,-0.055925962,-0.002749484,0.000430729,0.000314403,0.001342265,0.541710138,0.028321937,9.772818565
1784147609.729139,-0.001430230,-0.055925962,-0.002749484,-0.000287778,-0.000409011,0.001144365,0.556594551,-0.002363513,9.776669502
1784147609.731138,-0.001429809,-0.055926792,-0.002749485,-0.000972701,-0.000931171,0.000494516,0.549486220,0.004771846,9.794194221
1784147609.733153,-0.001429809,-0.055926792,-0.002749485,-0.001043986,-0.000288334,-0.000279392,0.521612167,-0.000164563,9.782478333
1784147609.735177,-0.001429809,-0.055926792,-0.002749485,-0.000889700,0.000844044,-0.000893304,0.525988460,0.028793054,9.797911644
1784147609.737170,-0.001427575,-0.055925477,-0.002749484,-0.000801189,0.001199368,-0.001036306,0.549551606,0.009340490,9.781669617
1784147609.739161,-0.001427575,-0.055925477,-0.002749484,-0.000672584,0.000841568,-0.000493950,0.571667552,-0.017376678,9.781519890
1784147609.741189,-0.001427058,-0.055926677,-0.002749485,-0.000444713,0.001158984,-0.000673073,0.572173595,-0.013687456,9.765852928
1784147609.743155,-0.001427058,-0.055926677,-0.002749485,-0.000361265,0.002006180,-0.001305713,0.545259774,-0.049245548,9.774116516
1784147609.745158,-0.001427058,-0.055926677,-0.002749485,-0.000491321,0.001829683,-0.001157548,0.526020169,-0.043298844,9.791622162
1784147609.747156,-0.001427984,-0.055926107,-0.002749484,-0.000325510,0.000708563,-0.001090831,0.528790712,-0.038662948,9.764754295
1784147609.749149,-0.001427984,-0.055926107,-0.002749484,0.000068008,0.000050338,-0.000950652,0.552844405,-0.014526937,9.792728424
1784147609.751213,-0.001427517,-0.055926472,-0.002749485,0.000070870,0.000147870,-0.000520837,0.563877523,0.005252054,9.763724327
1784147609.753182,-0.001427517,-0.055926472,-0.002749485,-0.000177379,0.000298708,-0.001038058,0.544398904,-0.008924523,9.776167870
1784147609.755172,-0.001427517,-0.055926472,-0.002749485,-0.000286319,0.000354262,-0.001487244,0.550120175,-0.017177029,9.792261124
1784147609.757164,-0.001427863,-0.055926714,-0.002749485,0.000101688,0.000417832,-0.000531921,0.559692919,-0.007197785,9.757812500
1784147609.759159,-0.001427863,-0.055926714,-0.002749485,0.000566203,0.000517397,-0.000033963,0.524450600,-0.024477379,9.793982506
1784147609.761158,-0.001428008,-0.055925645,-0.002749484,0.000108482,0.000404397,-0.000305317,0.509546578,-0.034777988,9.757138252
1784147609.763164,-0.001428008,-0.055925645,-0.002749484,-0.000444905,0.000106798,-0.000233768,0.530047178,-0.007066353,9.792755127
1784147609.765168,-0.001428008,-0.055925645,-0.002749484,-0.000035318,-0.000173424,-0.000072396,0.529684603,-0.037486367,9.786730766
1784147609.767166,-0.001428974,-0.055923965,-0.002749482,0.000517668,-0.000288983,-0.000170562,0.552900434,-0.049648158,9.753946304
1784147609.769161,-0.001428974,-0.055923965,-0.002749482,0.000182640,-0.000111562,-0.000512567,0.569772959,-0.025436061,9.784155846
1784147609.771225,-0.001429770,-0.055925541,-0.002749484,-0.000477095,-0.000029946,-0.001069520,0.546996057,-0.016193163,9.785539627
1784147609.773214,-0.001429770,-0.055925541,-0.002749484,-0.000364273,-0.000212540,-0.001204884,0.539440930,-0.010252857,9.782878876
1784147609.775177,-0.001429770,-0.055925541,-0.002749484,0.000135189,-0.000118834,-0.000850273,0.534098029,-0.005802822,9.796802521
1784147609.777203,-0.001429454,-0.055925459,-0.002749484,0.000432011,0.000418685,-0.000679694,0.514782310,-0.008967594,9.772551537
1784147609.779184,-0.001429454,-0.055925459,-0.002749484,0.000666016,0.000879301,-0.000103721,0.543053746,-0.008494292,9.781102180
1784147609.781181,-0.001428606,-0.055926051,-0.002749485,0.000220989,0.001131937,0.000242222,0.544100344,0.004424672,9.789704323
1784147609.783187,-0.001428606,-0.055926051,-0.002749485,-0.000523017,0.000855294,0.000039709,0.554318130,-0.004215644,9.789209366
1784147609.785181,-0.001428606,-0.055926051,-0.002749485,-0.000329139,0.000282081,0.000505041,0.552061439,-0.005911969,9.779781342
1784147609.787196,-0.001427355,-0.055926349,-0.002749485,0.000341382,0.000326552,0.000883548,0.548242033,-0.024295969,9.788625717
1784147609.789183,-0.001427355,-0.055926349,-0.002749485,0.000671341,0.000581408,0.000384047,0.557415545,-0.008246198,9.783357620
1784147609.791182,-0.001427015,-0.055927075,-0.002749486,0.000691859,0.000517006,0.000090631,0.541810036,0.000031038,9.781603813
1784147609.793189,-0.001427015,-0.055927075,-0.002749486,0.000417425,0.000560439,0.000328218,0.507794917,-0.028741090,9.793490410
1784147609.795190,-0.001427015,-0.055927075,-0.002749486,-0.000343951,0.000455579,0.000264973,0.546407104,-0.027021153,9.797124863
1784147609.797190,-0.001427754,-0.055925988,-0.002749485,-0.001319455,-0.000084141,0.000197597,0.558099985,-0.027770849,9.755436897
1784147609.799192,-0.001427754,-0.055925988,-0.002749485,-0.001647079,-0.000070347,0.000620737,0.539171696,-0.030614603,9.811442375
1784147609.801191,-0.001428171,-0.055925328,-0.002749484,-0.001118619,0.000581394,0.000608852,0.559558570,-0.016363680,9.786894798
1784147609.803192,-0.001428171,-0.055925328,-0.002749484,-0.000575104,0.000536257,-0.000016213,0.551926374,-0.015894299,9.797649384
1784147609.805197,-0.001428171,-0.055925328,-0.002749484,-0.000367969,-0.000145105,-0.000060287,0.530765414,0.014102902,9.775855064
1784147609.807206,-0.001426788,-0.055924658,-0.002749483,-0.000180311,-0.000465306,0.000468251,0.543322504,-0.022888845,9.788630486
1784147609.809227,-0.001426788,-0.055924658,-0.002749483,0.000086266,-0.000393982,0.000855189,0.530445457,-0.009496320,9.818742752
1784147609.811205,-0.001426220,-0.055923950,-0.002749482,0.000371902,-0.000305351,0.000866642,0.528912842,0.009617674,9.779858589
1784147609.813239,-0.001426220,-0.055923950,-0.002749482,0.000903703,-0.000441159,0.000693865,0.547156155,-0.002366782,9.794145584
1784147609.815207,-0.001426220,-0.055923950,-0.002749482,0.001417626,-0.000541568,0.000586243,0.558560550,0.011932347,9.779006004
1784147609.817211,-0.001425462,-0.055924203,-0.002749483,0.001611243,-0.000630212,0.000417209,0.554342747,-0.004021682,9.761862755
1784147609.819236,-0.001425462,-0.055924203,-0.002749483,0.001609606,-0.000513258,0.000294855,0.559497893,-0.022110863,9.776097298
1784147609.821210,-0.001426016,-0.055924196,-0.002749482,0.001321050,-0.000245078,0.000224335,0.551752388,-0.031452108,9.780512810
1784147609.823221,-0.001426016,-0.055924196,-0.002749482,0.001056539,-0.000136798,-0.000206697,0.530119359,-0.001633582,9.784718513
1784147609.825210,-0.001426016,-0.055924196,-0.002749482,0.001317495,0.000133965,-0.000320339,0.544793963,-0.014216774,9.763580322
1784147609.827217,-0.001426275,-0.055924185,-0.002749482,0.001432223,0.000201715,0.000300053,0.556923449,-0.012230767,9.777503967
1784147609.829233,-0.001426275,-0.055924185,-0.002749482,0.001316928,0.000288216,0.000914359,0.560145259,-0.005148143,9.783828735
1784147609.831220,-0.001425793,-0.055924993,-0.002749484,0.001761853,0.000724840,0.001148175,0.555307686,0.002984754,9.782979965
1784147609.833220,-0.001425793,-0.055924993,-0.002749484,0.001581771,0.001141004,0.000885009,0.536860466,-0.035983648,9.814543724
1784147609.835221,-0.001425793,-0.055924993,-0.002749484,0.000741700,0.001074611,0.000563747,0.536100447,-0.026377367,9.788152695
1784147609.837232,-0.001426873,-0.055924647,-0.002749483,0.000394969,0.000553191,0.000688534,0.543991923,-0.006157876,9.765873909
1784147609.839228,-0.001426873,-0.055924647,-0.002749483,0.000142899,0.000244670,0.000888149,0.543149054,-0.000446887,9.783393860
1784147609.841221,-0.001425930,-0.055924218,-0.002749483,-0.000200628,0.000203845,0.000673300,0.557971478,0.001104359,9.790591240
1784147609.843226,-0.001425930,-0.055924218,-0.002749483,-0.000124608,0.000155244,0.000083956,0.539638698,-0.029260579,9.809208870
1784147609.845221,-0.001425930,-0.055924218,-0.002749483,0.000270444,-0.000191139,-0.000129947,0.543478668,-0.010714407,9.777500153
1784147609.847231,-0.001425245,-0.055924609,-0.002749483,0.000049845,-0.000478530,0.000453348,0.550054729,-0.024582513,9.762622833
1784147609.849226,-0.001425245,-0.055924609,-0.002749483,-0.000489575,-0.000506362,0.001293874,0.534569144,-0.005227067,9.777976036
1784147609.851232,-0.001424600,-0.055923346,-0.002749481,-0.000557800,-0.000636915,0.001707520,0.527311981,-0.011829062,9.774339676
1784147609.853232,-0.001424600,-0.055923346,-0.002749481,-0.000060894,-0.000499610,0.001306999,0.544325352,-0.014773452,9.779716492
1784147609.855233,-0.001424600,-0.055923346,-0.002749481,0.000193122,-0.000484652,0.000400817,0.546071172,-0.017614579,9.798080444
1784147609.857229,-0.001425399,-0.055923928,-0.002749482,-0.000110449,-0.000504708,-0.000224172,0.545106947,-0.023804586,9.788177490
1784147609.859234,-0.001425399,-0.055923928,-0.002749482,-0.000308798,0.000017535,-0.000207096,0.557828844,-0.010558532,9.792758942
1784147609.861240,-0.001425704,-0.055924546,-0.002749483,-0.000148546,0.000213044,0.000075575,0.569267392,-0.030742252,9.775155067
1784147609.863245,-0.001425704,-0.055924546,-0.002749483,0.000251357,-0.000223225,0.000224568,0.556025982,-0.011409193,9.789613724
1784147609.865245,-0.001425704,-0.055924546,-0.002749483,-0.000052786,-0.000479185,0.000097833,0.555911779,-0.020416109,9.796278954
1784147609.867246,-0.001426371,-0.055925772,-0.002749484,-0.001300238,-0.000222719,0.000024397,0.523657262,-0.015538449,9.798521996
1784147609.869249,-0.001426371,-0.055925772,-0.002749484,-0.002100843,-0.000055383,0.000025118,0.541975737,-0.023688033,9.777416229
1784147609.871243,-0.001427467,-0.055925719,-0.002749484,-0.001854136,-0.000139314,-0.000154702,0.542192578,-0.042949740,9.776394844
1784147609.873243,-0.001427467,-0.055925719,-0.002749484,-0.001059868,-0.000224971,-0.000302911,0.549724221,-0.013917903,9.775692940
1784147609.875249,-0.001427467,-0.055925719,-0.002749484,-0.000515009,0.000051656,0.000132509,0.572834432,0.004596892,9.776730537
1784147609.877251,-0.001426330,-0.055927433,-0.002749487,-0.000551925,0.000310523,0.000665960,0.569907546,-0.013026695,9.803066254
1784147609.879249,-0.001426330,-0.055927433,-0.002749487,-0.000689089,0.000233183,0.000583570,0.552416503,0.023637565,9.782213211
1784147609.881251,-0.001424339,-0.055927604,-0.002749487,-0.000965035,0.000505935,0.000001601,0.545215428,-0.016868951,9.757736206
1784147609.883297,-0.001424339,-0.055927604,-0.002749487,-0.000998906,0.001151703,-0.000239083,0.513113320,0.002584744,9.789214134
1784147609.885261,-0.001424339,-0.055927604,-0.002749487,-0.000715864,0.001672265,-0.000323391,0.535351813,-0.016275432,9.755040169
1784147609.887266,-0.001424109,-0.055927061,-0.002749487,-0.000924822,0.002075182,-0.000583907,0.555704951,-0.001884977,9.773983002
1784147609.889262,-0.001424109,-0.055927061,-0.002749487,-0.001386672,0.002243722,-0.000395790,0.571713328,-0.014583984,9.766742706
1784147609.891266,-0.001423946,-0.055927966,-0.002749488,-0.001746467,0.001880775,-0.000261492,0.558988214,-0.026638780,9.783690453
1784147609.893267,-0.001423946,-0.055927966,-0.002749488,-0.001706162,0.001110462,-0.000382617,0.555462122,-0.020823348,9.791345596
1784147609.895267,-0.001423946,-0.055927966,-0.002749488,-0.001352346,0.000385798,-0.000796183,0.535867989,-0.010479947,9.758216858
1784147609.897279,-0.001423565,-0.055926945,-0.002749486,-0.000402793,0.000300187,-0.001057795,0.537972569,-0.020116193,9.786401749
1784147609.899265,-0.001423565,-0.055926945,-0.002749486,0.000691215,0.000787585,-0.000612861,0.520425498,-0.024320705,9.779184341
1784147609.901267,-0.001424263,-0.055925760,-0.002749485,0.000657016,0.001187831,-0.000325904,0.567621768,-0.054162066,9.795178413
1784147609.903275,-0.001424263,-0.055925760,-0.002749485,0.000301477,0.000944656,-0.000391140,0.550851882,-0.030249353,9.802040100
1784147609.905267,-0.001424263,-0.055925760,-0.002749485,0.000611323,-0.000015915,0.000099429,0.563990116,-0.058906920,9.775866508
1784147609.907294,-0.001426406,-0.055926342,-0.002749485,0.001200966,-0.000433609,0.000783886,0.554696858,-0.046821605,9.794317245
1784147609.909270,-0.001426406,-0.055926342,-0.002749485,0.001010067,0.000262845,0.000619179,0.549476802,0.003482017,9.786563873
1784147609.911279,-0.001425552,-0.055926424,-0.002749485,0.000382511,0.000739585,0.000480193,0.558694184,-0.013254617,9.792294502
1784147609.913279,-0.001425552,-0.055926424,-0.002749485,0.000261202,0.000451188,0.000718919,0.546405196,-0.027847124,9.787257195
1784147609.915281,-0.001425552,-0.055926424,-0.002749485,0.000189113,0.000043813,0.000747341,0.546615958,-0.010783265,9.781538010
1784147609.917274,-0.001425534,-0.055926614,-0.002749486,-0.000184411,0.000076816,0.000390285,0.561060667,-0.002586347,9.799985886
1784147609.919283,-0.001425534,-0.055926614,-0.002749486,-0.000727037,0.000157993,0.000093958,0.571874619,0.000468635,9.791947365
1784147609.921279,-0.001424847,-0.055927731,-0.002749487,-0.000873168,-0.000075647,0.000219837,0.567199230,-0.013929456,9.808886528
1784147609.923280,-0.001424847,-0.055927731,-0.002749487,-0.000670736,-0.000122745,0.000240507,0.563159525,-0.014293879,9.804396629
1784147609.925277,-0.001424847,-0.055927731,-0.002749487,-0.000392919,0.000148743,0.000058906,0.536572456,-0.023361858,9.804312706
1784147609.927312,-0.001424708,-0.055927452,-0.002749487,0.000221371,-0.000000460,0.000015592,0.530271709,-0.026267646,9.783216476
1784147609.929294,-0.001424708,-0.055927452,-0.002749487,0.000450365,-0.000285793,-0.000179759,0.573327661,-0.031025741,9.744670868
1784147609.931293,-0.001425838,-0.055928446,-0.002749488,0.000222948,-0.000200421,-0.000483529,0.559954643,-0.058832917,9.772725105
1784147609.933329,-0.001425838,-0.055928446,-0.002749488,-0.000020566,-0.000554027,-0.000274020,0.543806493,0.018215464,9.804137230
1784147609.935306,-0.001425838,-0.055928446,-0.002749488,-0.000039104,-0.001173212,-0.000141208,0.557756722,0.019978525,9.783091545
1784147609.937301,-0.001424548,-0.055928927,-0.002749489,0.000056128,-0.001624790,-0.000152597,0.543378115,0.018786823,9.787552834
1784147609.939299,-0.001424548,-0.055928927,-0.002749489,0.000236989,-0.001614749,0.000130001,0.529845715,0.012722826,9.782569885
1784147609.941299,-0.001423429,-0.055927910,-0.002749488,0.000391045,-0.001124351,0.000771841,0.536888838,0.003045590,9.807620049
1784147609.943307,-0.001423429,-0.055927910,-0.002749488,-0.000221957,-0.000957052,0.001201100,0.558675230,-0.015430822,9.783312798
1784147609.945318,-0.001423429,-0.055927910,-0.002749488,-0.001029221,-0.000776514,0.001387202,0.561792672,-0.016872190,9.791377068
1784147609.947356,-0.001423801,-0.055927828,-0.002749488,-0.000944470,-0.000292265,0.001525810,0.555477321,-0.019892450,9.786418915
1784147609.949347,-0.001423801,-0.055927828,-0.002749488,0.000024619,0.000234366,0.001033485,0.548639238,-0.031192465,9.749576569
1784147609.951315,-0.001424338,-0.055927787,-0.002749488,0.000475142,0.000334771,0.000347915,0.560801983,-0.025702266,9.774730682
1784147609.953313,-0.001424338,-0.055927787,-0.002749488,0.000202998,0.000124851,0.000098678,0.554722011,-0.008627867,9.778869629
1784147609.955319,-0.001424338,-0.055927787,-0.002749488,-0.000050710,-0.000030574,0.000422461,0.545154810,-0.020589363,9.776990891
1784147609.957310,-0.001424456,-0.055927869,-0.002749488,0.000139844,-0.000543830,0.000656701,0.527402043,-0.041412961,9.775942802
1784147609.959308,-0.001424456,-0.055927869,-0.002749488,0.000821216,-0.001028146,0.000267983,0.553238988,-0.020228997,9.774759293
1784147609.961312,-0.001424644,-0.055928417,-0.002749489,0.000692979,-0.000635820,-0.000084242,0.563690484,-0.009597441,9.773043633
1784147609.963323,-0.001424644,-0.055928417,-0.002749489,0.000188543,0.000121732,-0.000230548,0.562008739,0.000233005,9.779830933
1784147609.965315,-0.001424644,-0.055928417,-0.002749489,0.000036286,0.000456839,-0.000590722,0.560263872,-0.032076083,9.789933205
1784147609.967314,-0.001425023,-0.055929285,-0.002749490,-0.000310462,0.000578948,-0.001088832,0.550444186,-0.026272362,9.810585022
1784147609.969319,-0.001425023,-0.055929285,-0.002749490,-0.000909002,0.000595430,-0.000766685,0.536736012,-0.011533627,9.778834343
1784147609.971319,-0.001424883,-0.055928908,-0.002749489,-0.001403191,0.000300529,-0.000281081,0.528979063,-0.021370528,9.789971352
1784147609.973329,-0.001424883,-0.055928908,-0.002749489,-0.001637448,-0.000040215,-0.000162500,0.534397840,-0.019142479,9.781920433
1784147609.975328,-0.001424883,-0.055928908,-0.002749489,-0.001265680,-0.000224177,0.000231987,0.544750154,-0.016183497,9.788227081
1784147609.977329,-0.001424740,-0.055928145,-0.002749488,-0.000215813,-0.000309937,0.000087629,0.538263440,0.004064166,9.787901878
1784147609.979328,-0.001424740,-0.055928145,-0.002749488,0.000478682,-0.000296558,-0.000522674,0.541507423,-0.023431456,9.805213928
1784147609.981325,-0.001425053,-0.055928517,-0.002749489,0.000332135,-0.000441437,-0.001023327,0.552950263,-0.007206940,9.771256447
1784147609.983389,-0.001425053,-0.055928517,-0.002749489,-0.000227689,-0.000684871,-0.001588105,0.554124475,0.016850635,9.788448334
1784147609.985342,-0.001425053,-0.055928517,-0.002749489,-0.000271069,-0.000578816,-0.001889071,0.567249238,-0.012318484,9.771237373
1784147609.987335,-0.001424909,-0.055929031,-0.002749490,0.000477877,-0.000099423,-0.001545235,0.564359486,-0.028432846,9.774269104
1784147609.989368,-0.001424909,-0.055929031,-0.002749490,0.001220854,0.000156357,-0.001078340,0.531892419,-0.005475192,9.754657745
1784147609.991336,-0.001424244,-0.055928223,-0.002749488,0.001219467,0.000242871,-0.001118717,0.526338816,-0.017278945,9.786409378
1784147609.993342,-0.001424244,-0.055928223,-0.002749488,0.000932222,0.000526744,-0.001436185,0.580035865,-0.030073341,9.787723541
1784147609.995337,-0.001424244,-0.055928223,-0.002749488,0.000699817,0.000335816,-0.001344778,0.571829677,-0.004344472,9.775774956
1784147609.997341,-0.001423807,-0.055929746,-0.002749490,0.000164223,-0.000108852,-0.000702815,0.558493257,-0.029835537,9.793084145
1784147609.999341,-0.001423807,-0.055929746,-0.002749490,-0.000057497,0.000052592,-0.000430750,0.530281663,0.013021952,9.802746773
1784147610.001344,-0.001422598,-0.055928539,-0.002749489,0.000070080,0.000096638,-0.000485229,0.538451850,-0.016233373,9.806601524
1784147610.003346,-0.001422598,-0.055928539,-0.002749489,0.000014289,-0.000177650,-0.000201927,0.509282351,0.019268278,9.781247139
1784147610.005348,-0.001422598,-0.055928539,-0.002749489,-0.000076561,-0.000051610,-0.000210431,0.533401251,0.009976340,9.784348488
1784147610.007349,-0.001421493,-0.055927467,-0.002749488,-0.000321437,0.000240017,-0.000197744,0.554266095,-0.007869283,9.799048424
1784147610.009347,-0.001421493,-0.055927467,-0.002749488,-0.000434184,-0.000055321,0.000314223,0.594197273,-0.010433171,9.772619247
1784147610.011351,-0.001421323,-0.055929843,-0.002749491,-0.000424185,-0.000232036,0.000127941,0.565014482,-0.048189614,9.779073715
1784147610.013354,-0.001421323,-0.055929843,-0.002749491,-0.000646387,0.000110899,-0.000204071,0.547178328,-0.002191903,9.769487381
1784147610.015361,-0.001421323,-0.055929843,-0.002749491,-0.000686601,0.000031885,0.000130082,0.535164237,0.006055241,9.765495300
1784147610.017351,-0.001419364,-0.055928651,-0.002749490,-0.000570091,0.000045745,0.000211671,0.557845950,-0.010828427,9.767649651
1784147610.019474,-0.001419364,-0.055928651,-0.002749490,-0.000537740,0.000183288,0.000127320,0.568677962,-0.006010226,9.763656616
1784147610.021470,-0.001419072,-0.055929914,-0.002749491,-0.000699992,-0.000147376,0.000207591,0.570076585,-0.037123777,9.789012909
1784147610.023410,-0.001419072,-0.055929914,-0.002749491,-0.000870437,-0.000172593,0.000411599,0.561999321,-0.038646791,9.765684128
1784147610.025400,-0.001419072,-0.055929914,-0.002749491,-0.000267531,0.000091176,0.000238012,0.533677280,-0.041950949,9.777290344
1784147610.027413,-0.001420952,-0.055929784,-0.002749491,0.000789086,0.000406097,-0.000446385,0.524776340,0.002409826,9.792809486
1784147610.029393,-0.001420952,-0.055929784,-0.002749491,0.001614118,0.000830142,-0.000492494,0.552224874,0.007536405,9.778523445
1784147610.031386,-0.001419318,-0.055931062,-0.002749493,0.002284363,0.000937881,-0.000129955,0.548240125,0.014494800,9.815326691
1784147610.033391,-0.001419318,-0.055931062,-0.002749493,0.002262448,0.000539211,-0.000410872,0.528861105,-0.030812688,9.794841766
1784147610.035379,-0.001419318,-0.055931062,-0.002749493,0.001664566,-0.000068595,-0.000672366,0.554468870,-0.030079124,9.771558762
1784147610.037377,-0.001420182,-0.055930689,-0.002749493,0.001354593,-0.000497719,-0.000375187,0.555633962,-0.009334969,9.750620842
1784147610.039378,-0.001420182,-0.055930689,-0.002749493,0.001144823,-0.000955715,0.000039091,0.536081254,0.008629761,9.779859543
1784147610.041385,-0.001418966,-0.055929452,-0.002749491,0.000596625,-0.001121554,0.000088469,0.539349794,-0.018671909,9.769824028
1784147610.043381,-0.001418966,-0.055929452,-0.002749491,-0.000144290,-0.001023689,0.000287582,0.556332052,-0.023077827,9.791779518
1784147610.045388,-0.001418966,-0.055929452,-0.002749491,-0.000414410,-0.001029292,0.000757566,0.563659966,-0.009839090,9.807115555
1784147610.047398,-0.001419174,-0.055929903,-0.002749491,-0.000153788,-0.000639445,0.000633519,0.538919866,-0.016086498,9.785083771
1784147610.049388,-0.001419174,-0.055929903,-0.002749491,0.000147927,-0.000068001,0.000436621,0.545091808,-0.027165698,9.756772041
1784147610.051389,-0.001419437,-0.055929732,-0.002749491,0.000042901,0.000423347,0.000365292,0.538519859,-0.011239033,9.797218323
1784147610.053389,-0.001419437,-0.055929732,-0.002749491,-0.000433584,0.000552387,0.000185056,0.553911448,0.000174328,9.802686691
1784147610.055396,-0.001419437,-0.055929732,-0.002749491,-0.000655377,0.000484375,-0.000163569,0.554002047,0.005753366,9.774029732
1784147610.057392,-0.001418578,-0.055929642,-0.002749491,-0.000325365,0.000770849,-0.000306575,0.531824768,-0.009656285,9.775702477
1784147610.059405,-0.001418578,-0.055929642,-0.002749491,0.000198592,0.000611853,0.000345824,0.537072897,-0.021743912,9.764870644
1784147610.061397,-0.001419135,-0.055929106,-0.002749490,0.000667935,0.000225535,0.000747516,0.539545894,-0.036882266,9.810056686
1784147610.063401,-0.001419135,-0.055929106,-0.002749490,0.000526171,0.000205739,0.000318761,0.533197284,-0.041786589,9.818089485
1784147610.065407,-0.001419135,-0.055929106,-0.002749490,0.000004193,-0.000109048,-0.000176440,0.542604864,-0.008085093,9.787379265
1784147610.067404,-0.001419092,-0.055928703,-0.002749490,-0.000201640,-0.000846549,-0.000160655,0.556176484,0.000720729,9.784759521
1784147610.069405,-0.001419092,-0.055928703,-0.002749490,-0.000513047,-0.001168846,0.000303081,0.545000851,0.004031989,9.780286789
1784147610.071432,-0.001418148,-0.055928867,-0.002749490,-0.000533991,-0.000775331,0.000554477,0.538872063,-0.018085020,9.814211845
1784147610.073414,-0.001418148,-0.055928867,-0.002749490,-0.000220723,-0.000186770,0.000830079,0.532428682,0.004126189,9.789690971
1784147610.075407,-0.001418148,-0.055928867,-0.002749490,-0.000210153,0.000102558,0.000668693,0.540293574,-0.013454138,9.790480614
1784147610.077409,-0.001417585,-0.055928595,-0.002749490,-0.000365012,0.000192963,-0.000081617,0.529394746,-0.023663772,9.796682358
1784147610.079408,-0.001417585,-0.055928595,-0.002749490,-0.000206962,0.000272573,-0.000411082,0.563160658,-0.051064238,9.808643341
1784147610.081413,-0.001418521,-0.055929177,-0.002749490,0.000630027,0.000266905,-0.000343420,0.538461566,-0.016967135,9.783732414
1784147610.083418,-0.001418521,-0.055929177,-0.002749490,0.001240933,0.000370758,-0.000293526,0.517594159,0.001262858,9.778001785
1784147610.085415,-0.001418521,-0.055929177,-0.002749490,0.000634707,0.000188426,-0.000368597,0.526063561,-0.002935256,9.786052704
1784147610.087420,-0.001418620,-0.055927757,-0.002749488,0.000295729,-0.000537932,-0.000679154,0.551076591,-0.012264133,9.792740822
1784147610.089418,-0.001418620,-0.055927757,-0.002749488,0.001080716,-0.000952097,-0.000921164,0.575206876,-0.021467041,9.783288956
1784147610.091418,-0.001418805,-0.055929352,-0.002749490,0.001366242,-0.000753168,-0.000048126,0.549044371,-0.032758318,9.780054092
1784147610.093424,-0.001418805,-0.055929352,-0.002749490,0.000781527,-0.000347603,0.000570014,0.550882518,-0.028790997,9.785909653
1784147610.095430,-0.001418805,-0.055929352,-0.002749490,0.000704431,0.000185269,-0.000151168,0.517647326,-0.031043779,9.784518242
1784147610.097422,-0.001420125,-0.055927567,-0.002749488,0.001026091,0.000442176,-0.000478103,0.514670789,-0.018358881,9.770250320
1784147610.099427,-0.001420125,-0.055927567,-0.002749488,0.001075895,0.000411787,-0.000140119,0.545182705,-0.019153275,9.763998985
1784147610.101431,-0.001420579,-0.055927970,-0.002749488,0.000895376,0.000409875,0.000123919,0.547942877,-0.012573284,9.778838158
1784147610.103433,-0.001420579,-0.055927970,-0.002749488,0.000868838,0.000048363,0.000151962,0.548293173,-0.020245243,9.785962105
1784147610.105500,-0.001420579,-0.055927970,-0.002749488,0.001082609,-0.000414947,0.000081388,0.545711398,-0.010422373,9.795437813
1784147610.107456,-0.001419934,-0.055928402,-0.002749489,0.001027367,-0.000244882,-0.000184153,0.550106645,-0.019715350,9.771171570
1784147610.109443,-0.001419934,-0.055928402,-0.002749489,0.000897160,-0.000083913,-0.000395585,0.525978208,-0.046872992,9.790253639
1784147610.111447,-0.001421729,-0.055926900,-0.002749487,0.001249652,-0.000368340,-0.000406724,0.529131770,-0.008818079,9.788706779
1784147610.113447,-0.001421729,-0.055926900,-0.002749487,0.001617687,-0.000324641,-0.000431315,0.535827935,-0.013228123,9.766716957
1784147610.115442,-0.001421729,-0.055926900,-0.002749487,0.001039966,0.000111300,-0.000285856,0.553373218,-0.008632879,9.782006264
1784147610.117449,-0.001421289,-0.055927094,-0.002749487,0.000274968,0.000343478,-0.000325328,0.562150538,-0.024483737,9.789984703
1784147610.119448,-0.001421289,-0.055927094,-0.002749487,-0.000083408,0.000510583,-0.000371830,0.575717390,-0.015716074,9.792742729
1784147610.121448,-0.001421906,-0.055929344,-0.002749490,-0.000378691,0.000777675,-0.000567417,0.587356091,-0.019325230,9.775245667
1784147610.123455,-0.001421906,-0.055929344,-0.002749490,0.000088624,0.000428124,-0.001235349,0.559653103,-0.008322639,9.790083885
1784147610.125465,-0.001421906,-0.055929344,-0.002749490,0.001072957,-0.000358760,-0.001182319,0.512761474,-0.026129281,9.795306206
1784147610.127454,-0.001424219,-0.055927660,-0.002749488,0.001484978,-0.000607821,-0.000636915,0.529159188,-0.006575094,9.788273811
1784147610.129460,-0.001424219,-0.055927660,-0.002749488,0.001281922,-0.000583628,-0.000600284,0.544928491,-0.000997335,9.794599533
1784147610.131454,-0.001424717,-0.055927936,-0.002749488,0.001134518,-0.000529679,-0.000627551,0.561005652,-0.010315784,9.752861977
1784147610.133456,-0.001424717,-0.055927936,-0.002749488,0.001136476,-0.000349334,-0.000357626,0.560013115,-0.016728368,9.774339676
1784147610.135460,-0.001424717,-0.055927936,-0.002749488,0.000683534,-0.000359152,0.000180487,0.538256049,-0.032772958,9.801564217
1784147610.137455,-0.001425519,-0.055927858,-0.002749488,-0.000207819,-0.000485139,0.000390425,0.542878032,-0.022444678,9.789978981
1784147610.139464,-0.001425519,-0.055927858,-0.002749488,-0.000873547,-0.000537423,0.000002002,0.539978147,-0.040665291,9.774166107
1784147610.141531,-0.001427620,-0.055927604,-0.002749488,-0.001031774,-0.000453151,-0.000261707,0.556420803,-0.017514696,9.765365601
1784147610.143471,-0.001427620,-0.055927604,-0.002749488,-0.000767594,-0.000361403,-0.000200319,0.563196242,-0.012787833,9.781540871
1784147610.145473,-0.001427620,-0.055927604,-0.002749488,-0.000305900,-0.000512463,-0.000318851,0.580018997,0.005762940,9.788848877
1784147610.147472,-0.001426206,-0.055929504,-0.002749491,0.000281796,-0.000787212,-0.000405719,0.572402656,-0.030827008,9.781434059
1784147610.149469,-0.001426206,-0.055929504,-0.002749491,0.000262665,-0.000550450,-0.000485329,0.546483338,-0.022366662,9.772497177
1784147610.151467,-0.001426755,-0.055929344,-0.002749490,-0.000671887,-0.000259385,-0.000652438,0.535769999,-0.018142974,9.764891624
1784147610.153472,-0.001426755,-0.055929344,-0.002749490,-0.000723670,-0.000361223,-0.000594405,0.533818066,0.007692636,9.789714813
1784147610.155468,-0.001426755,-0.055929344,-0.002749490,-0.000161941,-0.000102103,-0.000188284,0.537685692,-0.006674787,9.786936760
1784147610.157475,-0.001426539,-0.055928040,-0.002749488,0.000341176,0.000514643,0.000597504,0.526774526,-0.019413214,9.770703316
1784147610.159470,-0.001426539,-0.055928040,-0.002749488,0.000453326,0.000823460,0.001042393,0.510593116,-0.021048956,9.777851105
1784147610.161472,-0.001427196,-0.055925690,-0.002749485,-0.000495753,0.000918872,0.000822576,0.540458381,-0.036369495,9.799301147
1784147610.163478,-0.001427196,-0.055925690,-0.002749485,-0.000806075,0.001145378,0.000808336,0.544713557,-0.019309688,9.786862373
1784147610.165484,-0.001427196,-0.055925690,-0.002749485,-0.000220824,0.001120871,0.000924558,0.533731937,0.000528435,9.789219856
1784147610.167480,-0.001425614,-0.055924587,-0.002749483,0.000076394,0.000835308,0.000863114,0.546034813,-0.021954287,9.778326035
1784147610.169482,-0.001425614,-0.055924587,-0.002749483,-0.000326050,0.000220524,0.000724843,0.545579433,-0.020785892,9.803889275
1784147610.171489,-0.001425956,-0.055924445,-0.002749483,-0.001268997,-0.000182564,0.000334503,0.554155052,-0.017660834,9.790019035
1784147610.173487,-0.001425956,-0.055924445,-0.002749483,-0.001837531,0.000527924,0.000471118,0.539220989,-0.026983218,9.804739952
1784147610.175487,-0.001425956,-0.055924445,-0.002749483,-0.001564626,0.001230776,0.001439252,0.559330821,0.002002110,9.787910461
1784147610.177484,-0.001425341,-0.055924591,-0.002749483,-0.000993516,0.001019922,0.001960573,0.544672489,-0.022470850,9.790428162
1784147610.179488,-0.001425341,-0.055924591,-0.002749483,-0.000978998,0.000318426,0.001397965,0.549637854,0.017721385,9.800106049
1784147610.181493,-0.001422969,-0.055925410,-0.002749485,-0.001073149,0.000080614,0.000646483,0.562362015,-0.008630217,9.765427589
1784147610.183535,-0.001422969,-0.055925410,-0.002749485,-0.000346247,-0.000031203,0.000425574,0.548006654,-0.044390626,9.779531479
1784147610.185504,-0.001422969,-0.055925410,-0.002749485,0.000648245,-0.000585764,0.000280800,0.538541138,-0.011070503,9.773457527
1784147610.187495,-0.001422582,-0.055924613,-0.002749484,0.001122645,-0.000769297,-0.000112665,0.554146647,-0.020564448,9.757272720
1784147610.189501,-0.001422582,-0.055924613,-0.002749484,0.000764401,-0.000717189,-0.000110554,0.533589125,-0.012351152,9.773446083
1784147610.191502,-0.001423161,-0.055924010,-0.002749483,0.000123866,-0.000657358,-0.000073394,0.563506663,-0.025638187,9.760835648
1784147610.193514,-0.001423161,-0.055924010,-0.002749483,0.000006622,-0.000130011,-0.000295798,0.578492820,-0.009015249,9.790547371
1784147610.195508,-0.001423161,-0.055924010,-0.002749483,0.000045489,0.000159499,0.000083407,0.559820056,0.006774493,9.809011459
1784147610.197505,-0.001422619,-0.055925172,-0.002749485,0.000103593,-0.000206224,0.000410644,0.542115867,-0.012044217,9.777939796
1784147610.199511,-0.001422619,-0.055925172,-0.002749485,0.000379396,-0.000724167,0.000160604,0.543060958,-0.007626980,9.785142899
1784147610.201509,-0.001422843,-0.055924751,-0.002749484,0.000452396,-0.001261101,-0.000185107,0.556561708,-0.007081231,9.747050285
1784147610.203509,-0.001422843,-0.055924751,-0.002749484,0.000038006,-0.001448333,-0.000580975,0.580205858,-0.016167469,9.785122871
1784147610.205507,-0.001422843,-0.055924751,-0.002749484,-0.000278056,-0.001154588,-0.000542054,0.569292009,-0.028521525,9.777859688
1784147610.207517,-0.001423396,-0.055925798,-0.002749485,0.000002744,-0.000391233,-0.000004377,0.544746578,-0.017022189,9.780151367
1784147610.209514,-0.001423396,-0.055925798,-0.002749485,0.000116214,0.000129072,0.000513334,0.545958817,-0.027012222,9.796676636
1784147610.211517,-0.001424280,-0.055925731,-0.002749485,-0.000438664,0.000012777,0.000597879,0.546407700,-0.026611345,9.802507401
1784147610.213524,-0.001424280,-0.055925731,-0.002749485,-0.001075337,-0.000010348,-0.000170940,0.547668755,-0.033379808,9.806949615
1784147610.215527,-0.001424280,-0.055925731,-0.002749485,-0.001064038,0.000488110,-0.000474666,0.548515081,-0.002282286,9.779800415
1784147610.217526,-0.001423486,-0.055925652,-0.002749485,-0.000081219,0.000906411,0.000334882,0.549871266,-0.037783235,9.792128563
1784147610.219526,-0.001423486,-0.055925652,-0.002749485,0.000885831,0.000958214,0.000634791,0.532135189,-0.019669801,9.797159195
1784147610.221528,-0.001423171,-0.055924851,-0.002749484,0.000469489,0.000903252,0.000327471,0.520241737,-0.001554793,9.791435242
1784147610.223540,-0.001423171,-0.055924851,-0.002749484,-0.000359217,0.000743548,-0.000006221,0.550551951,-0.017316323,9.811090469
1784147610.225545,-0.001423171,-0.055924851,-0.002749484,-0.000565197,0.000605360,-0.000321009,0.553255141,-0.018885111,9.774766922
1784147610.227540,-0.001423336,-0.055925652,-0.002749485,-0.000805039,0.000472207,-0.000965844,0.549428463,-0.001763152,9.768148422
1784147610.229539,-0.001423336,-0.055925652,-0.002749485,-0.000889518,0.000426349,-0.001128290,0.563793778,0.000133698,9.790591240
1784147610.231543,-0.001422886,-0.055926226,-0.002749486,-0.000666043,0.000274015,0.000034838,0.549773574,-0.009069821,9.786932945
1784147610.233544,-0.001422886,-0.055926226,-0.002749486,-0.000087592,0.000123114,0.000792344,0.549350381,-0.006836987,9.788740158
1784147610.235566,-0.001422886,-0.055926226,-0.002749486,0.000300898,0.000161850,0.000640934,0.550565600,-0.018424911,9.777906418
1784147610.237556,-0.001423048,-0.055926736,-0.002749487,0.000364856,-0.000040453,0.000348483,0.579596043,-0.028780945,9.795801163
1784147610.239553,-0.001423048,-0.055926736,-0.002749487,0.000660661,-0.000550500,0.000133811,0.565251827,-0.027268980,9.798039436
1784147610.241548,-0.001423717,-0.055927299,-0.002749488,0.001112222,-0.000781943,0.000195202,0.534764051,0.010496092,9.771799088
1784147610.243543,-0.001423717,-0.055927299,-0.002749488,0.001228298,-0.000552824,0.000332062,0.537223518,-0.006370520,9.808008194
1784147610.245544,-0.001423717,-0.055927299,-0.002749488,0.000972384,-0.000129478,0.000306288,0.561421335,-0.011392338,9.777513504
1784147610.247545,-0.001423901,-0.055927645,-0.002749488,0.000624019,0.000252668,0.000287665,0.571889102,0.000583103,9.775807381
1784147610.249548,-0.001423901,-0.055927645,-0.002749488,-0.000010640,0.000462061,0.000453627,0.539133787,0.001812868,9.787887573
1784147610.251558,-0.001423163,-0.055926606,-0.002749487,-0.000092126,0.000736046,0.000648018,0.527777791,-0.010077948,9.779282570
1784147610.253563,-0.001423163,-0.055926606,-0.002749487,0.000355666,0.000950055,0.000483635,0.528673589,-0.046071984,9.798780441
1784147610.255552,-0.001423163,-0.055926606,-0.002749487,0.000229983,0.001076049,0.000164429,0.539223313,-0.028990913,9.771999359
1784147610.257561,-0.001424064,-0.055927049,-0.002749487,-0.000257286,0.001387317,0.000058847,0.535376608,-0.013648075,9.763575554
1784147610.259593,-0.001424064,-0.055927049,-0.002749487,-0.000538965,0.001703278,-0.000017454,0.547792912,-0.023483330,9.801184654
1784147610.261570,-0.001424760,-0.055926971,-0.002749487,-0.000838114,0.001610369,-0.000056936,0.553470790,-0.001783097,9.763669968
1784147610.263569,-0.001424760,-0.055926971,-0.002749487,-0.001260243,0.001111247,0.000182350,0.547214210,0.001334548,9.777580261
1784147610.265562,-0.001424760,-0.055926971,-0.002749487,-0.001735739,0.000333479,0.000679026,0.560576797,-0.006100696,9.790996552
1784147610.267576,-0.001423500,-0.055927653,-0.002749488,-0.001990477,-0.000195894,0.000680166,0.556282461,-0.028332539,9.774709702
1784147610.269564,-0.001423500,-0.055927653,-0.002749488,-0.001879002,-0.000057339,-0.000200150,0.551160336,-0.005119012,9.795925140
1784147610.271560,-0.001423154,-0.055927645,-0.002749488,-0.001545852,-0.000032112,-0.000679006,0.552558064,-0.001892425,9.780703545
1784147610.273567,-0.001423154,-0.055927645,-0.002749488,-0.001197545,-0.000092184,-0.000161630,0.537137926,-0.053551726,9.764217377
1784147610.275564,-0.001423154,-0.055927645,-0.002749488,-0.001339668,0.000065650,0.000324078,0.553681076,-0.021502316,9.763991356
1784147610.277568,-0.001424168,-0.055928119,-0.002749489,-0.001352632,0.000145095,0.000443184,0.549643040,0.017762717,9.794277191
1784147610.279570,-0.001424168,-0.055928119,-0.002749489,-0.000890001,0.000430540,0.000748591,0.550654888,-0.011235273,9.774814606
1784147610.281722,-0.001423866,-0.055928003,-0.002749489,-0.000644633,0.000566258,0.001169099,0.547818542,0.012283362,9.748959541
1784147610.283627,-0.001423866,-0.055928003,-0.002749489,-0.000884131,0.000313416,0.000859048,0.555177808,-0.043736141,9.800613403
1784147610.285595,-0.001423866,-0.055928003,-0.002749489,-0.000693940,0.000343164,0.000328071,0.545554161,-0.024226503,9.783694267
1784147610.287616,-0.001424710,-0.055928376,-0.002749489,0.000006716,0.000572993,0.000232141,0.548426688,-0.009058935,9.787827492
1784147610.289593,-0.001424710,-0.055928376,-0.002749489,0.000516182,0.000702994,0.000396720,0.558869481,0.001502665,9.795975685
1784147610.291629,-0.001423866,-0.055928826,-0.002749490,0.000849863,0.000724777,0.000732771,0.561211169,0.009543573,9.795133591
1784147610.293643,-0.001423866,-0.055928826,-0.002749490,0.000114737,0.000518753,0.000722064,0.528818011,0.000763381,9.765006065
1784147610.295614,-0.001423866,-0.055928826,-0.002749490,-0.001072191,0.000286801,0.000532255,0.542137086,-0.010255560,9.778399467
1784147610.297611,-0.001423851,-0.055929359,-0.002749491,-0.001065624,0.000362192,0.000107898,0.543787718,-0.022764230,9.770250320
1784147610.299593,-0.001423851,-0.055929359,-0.002749491,-0.000714838,0.000507253,-0.000832003,0.559112966,-0.017549194,9.765366554
1784147610.301595,-0.001423879,-0.055930305,-0.002749492,-0.000935879,0.000093876,-0.001159324,0.523690283,-0.014467658,9.773871422
1784147610.303630,-0.001423879,-0.055930305,-0.002749492,-0.000882470,-0.000250999,-0.000513138,0.535921037,-0.004793174,9.777530670
1784147610.305677,-0.001423879,-0.055930305,-0.002749492,-0.000749833,-0.000074698,0.000519739,0.563244224,-0.010382682,9.758242607
1784147610.307621,-0.001423372,-0.055930976,-0.002749493,-0.001159903,-0.000082028,0.000819322,0.559679806,-0.007706158,9.766326904
1784147610.309609,-0.001423372,-0.055930976,-0.002749493,-0.001367150,-0.000225596,-0.000064220,0.569674790,0.004084248,9.791519165
1784147610.311610,-0.001422277,-0.055931762,-0.002749494,-0.001536143,-0.000207316,-0.000165661,0.553811610,-0.009934814,9.775274277
1784147610.313605,-0.001422277,-0.055931762,-0.002749494,-0.001572305,-0.000326244,0.000626329,0.531031668,0.000499334,9.798184395
1784147610.315600,-0.001422277,-0.055931762,-0.002749494,-0.000715250,-0.000761293,0.000697296,0.539189100,-0.032098025,9.767944336
1784147610.317606,-0.001422467,-0.055931620,-0.002749494,-0.000214372,-0.000859018,0.000443140,0.532216191,-0.051757049,9.772743225
1784147610.319607,-0.001422467,-0.055931620,-0.002749494,-0.000819688,-0.000221654,0.000892209,0.538105488,-0.010556386,9.764943123
1784147610.321611,-0.001421574,-0.055931460,-0.002749493,-0.001496468,0.000243210,0.001543913,0.577357471,0.008065851,9.784825325
1784147610.323606,-0.001421574,-0.055931460,-0.002749493,-0.001957882,0.000079864,0.001636837,0.544630647,0.010331443,9.777188301
1784147610.325612,-0.001421574,-0.055931460,-0.002749493,-0.001642811,-0.000150274,0.001073133,0.546119630,0.022383716,9.780854225
1784147610.327608,-0.001420468,-0.055931643,-0.002749494,-0.000794145,0.000019263,0.000358463,0.521558344,-0.005857692,9.764060974
1784147610.329615,-0.001420468,-0.055931643,-0.002749494,-0.000624831,0.000452931,-0.000052841,0.545125484,-0.023658322,9.767556190
1784147610.331615,-0.001421046,-0.055931699,-0.002749494,-0.000827522,0.000700816,-0.000425577,0.562873006,-0.039655961,9.780023575
1784147610.333614,-0.001421046,-0.055931699,-0.002749494,-0.000525104,0.000731665,-0.000552815,0.554061234,-0.024075374,9.810153961
1784147610.335613,-0.001421046,-0.055931699,-0.002749494,-0.000145204,0.000604439,0.000003778,0.564793527,0.008630280,9.791095734
1784147610.337620,-0.001420622,-0.055931713,-0.002749494,-0.000430880,0.000320273,0.000335082,0.556323349,0.012822039,9.783940315
1784147610.339617,-0.001420622,-0.055931713,-0.002749494,-0.000691411,0.000258483,0.000468849,0.532560349,0.013676463,9.769575119
1784147610.341638,-0.001419234,-0.055930447,-0.002749492,-0.000603280,0.000910229,0.000931656,0.517392874,-0.014104543,9.797180176
1784147610.343628,-0.001419234,-0.055930447,-0.002749492,-0.000286462,0.001258515,0.000907467,0.523268759,-0.011815471,9.779716492
1784147610.345631,-0.001419234,-0.055930447,-0.002749492,0.000100901,0.000829789,0.000362789,0.573043287,-0.014728418,9.784676552
1784147610.347629,-0.001419306,-0.055930886,-0.002749493,0.000275005,0.000554631,-0.000033967,0.574811757,-0.016174790,9.795876503
1784147610.349628,-0.001419306,-0.055930886,-0.002749493,0.000056142,0.000229811,0.000018742,0.558372498,-0.003330129,9.783390045
1784147610.351668,-0.001418738,-0.055930924,-0.002749493,0.000007127,0.000171985,0.000058312,0.535156190,-0.030788248,9.780054092
1784147610.353647,-0.001418738,-0.055930924,-0.002749493,0.000266820,0.000684870,0.000054596,0.547831833,-0.021554759,9.781918526
1784147610.355641,-0.001418738,-0.055930924,-0.002749493,0.000076187,0.001044709,0.000033156,0.552887380,-0.012566572,9.768979073
1784147610.357635,-0.001418530,-0.055931173,-0.002749493,-0.000228500,0.001038204,0.000087985,0.533832908,-0.028969616,9.778718948
1784147610.359634,-0.001418530,-0.055931173,-0.002749493,-0.000398540,0.000799470,0.000036447,0.567157090,-0.019530376,9.777466774
1784147610.361638,-0.001418757,-0.055932153,-0.002749495,-0.000776170,0.000486621,-0.000381363,0.534326136,-0.025382137,9.777398109
1784147610.363639,-0.001418757,-0.055932153,-0.002749495,-0.000886521,0.000472152,-0.000557920,0.555447876,0.014221939,9.777671814
1784147610.365643,-0.001418757,-0.055932153,-0.002749495,-0.000745824,0.000942329,-0.000214163,0.554624379,0.019275470,9.761565208
1784147610.367637,-0.001417642,-0.055932119,-0.002749495,-0.000935736,0.000982457,-0.000038096,0.579425097,-0.006319903,9.787874222
1784147610.369643,-0.001417642,-0.055932119,-0.002749495,-0.001096624,0.000475499,-0.000490514,0.551981747,-0.013835360,9.760004044
1784147610.371641,-0.001417753,-0.055932160,-0.002749495,-0.000940864,0.000317794,-0.000583810,0.530859768,-0.016662719,9.754585266
1784147610.373646,-0.001417753,-0.055932160,-0.002749495,-0.000392302,0.000393772,-0.000252881,0.499973506,-0.007980518,9.786442757
1784147610.375667,-0.001417753,-0.055932160,-0.002749495,0.000024859,0.000360043,-0.000192789,0.526164651,-0.032026686,9.781382561
1784147610.377659,-0.001418690,-0.055930778,-0.002749493,-0.000197797,0.000125381,-0.000187123,0.549886763,-0.036445715,9.793033600
1784147610.379653,-0.001418690,-0.055930778,-0.002749493,-0.000124187,-0.000046118,-0.000507556,0.539246380,0.010807065,9.783014297
1784147610.381680,-0.001416705,-0.055929732,-0.002749491,0.000693340,0.000234913,-0.000773617,0.531421304,-0.005240878,9.785593987
1784147610.383664,-0.001416705,-0.055929732,-0.002749491,0.001091086,0.000636999,-0.000515359,0.533411741,0.012085783,9.802743912
1784147610.385661,-0.001416705,-0.055929732,-0.002749491,0.000566513,0.000884254,-0.000256561,0.549038649,0.005597205,9.804959297
1784147610.387662,-0.001415906,-0.055928949,-0.002749490,-0.000033519,0.001081848,0.000401068,0.574172080,-0.030240254,9.821790695
1784147610.389662,-0.001415906,-0.055928949,-0.002749490,0.000089693,0.001219420,0.000935154,0.553382814,-0.044119764,9.794781685
1784147610.391668,-0.001416599,-0.055928949,-0.002749490,0.000302132,0.000870882,0.000906734,0.514365792,-0.005060561,9.790959358
1784147610.393667,-0.001416599,-0.055928949,-0.002749490,-0.000140593,0.000516198,0.000758156,0.531947017,0.001034367,9.784289360
1784147610.395663,-0.001416599,-0.055928949,-0.002749490,-0.000514882,0.000509697,0.000759551,0.561582029,0.004060546,9.809444427
1784147610.397666,-0.001416056,-0.055929195,-0.002749491,-0.000209532,0.000567405,0.001303387,0.559933543,0.014964981,9.791131020
1784147610.399667,-0.001416056,-0.055929195,-0.002749491,0.000070424,0.000809694,0.001231426,0.574446261,-0.010243797,9.781567574
1784147610.401670,-0.001416151,-0.055929579,-0.002749491,-0.000067291,0.000907081,0.000004652,0.534940302,-0.011923617,9.773899078
1784147610.403675,-0.001416151,-0.055929579,-0.002749491,0.000012725,0.000852411,-0.001268541,0.541062415,-0.024207164,9.789067268
1784147610.405673,-0.001416151,-0.055929579,-0.002749491,0.000198781,0.001059322,-0.001562658,0.573873043,-0.020947780,9.775671005
1784147610.407675,-0.001416614,-0.055929933,-0.002749491,0.000346049,0.000826190,-0.000840345,0.554920197,0.007120723,9.769107819
1784147610.409682,-0.001416614,-0.055929933,-0.002749491,0.000212687,0.000242090,0.000152509,0.543136775,-0.003785735,9.748851776
1784147610.411675,-0.001416120,-0.055929855,-0.002749491,-0.000042584,0.000145038,0.000426077,0.543629408,-0.035361201,9.777790070
1784147610.413681,-0.001416120,-0.055929855,-0.002749491,0.000117152,0.000128701,-0.000041697,0.543797910,-0.020657970,9.789093018
1784147610.415678,-0.001416120,-0.055929855,-0.002749491,0.000430981,0.000023568,-0.000202153,0.563320339,-0.038861174,9.793479919
1784147610.417682,-0.001416911,-0.055930171,-0.002749492,0.000656675,-0.000182968,0.000330093,0.546974301,-0.016364863,9.809746742
1784147610.419684,-0.001416911,-0.055930171,-0.002749492,0.000765724,-0.000370710,0.001024414,0.525512695,-0.011841040,9.779270172
1784147610.421682,-0.001416562,-0.055928797,-0.002749490,0.000683319,-0.000468517,0.001331609,0.547648489,0.001214337,9.793721199
1784147610.423695,-0.001416562,-0.055928797,-0.002749490,0.000566777,-0.000807486,0.001283039,0.536689818,-0.016356273,9.764007568
1784147610.425694,-0.001416562,-0.055928797,-0.002749490,0.000411230,-0.000961892,0.000959231,0.540391445,-0.006197727,9.777973175
1784147610.427693,-0.001416227,-0.055927675,-0.002749488,0.000432939,-0.000266642,0.000854417,0.571524262,0.006113830,9.754770279
1784147610.429698,-0.001416227,-0.055927675,-0.002749488,0.000592607,0.000236297,0.001103203,0.559184670,-0.011309535,9.769890785
1784147610.431695,-0.001415884,-0.055927787,-0.002749488,0.000484912,-0.000077986,0.001135878,0.534450412,-0.013458888,9.801683426
1784147610.433707,-0.001415884,-0.055927787,-0.002749488,0.000188619,-0.000464368,0.000797422,0.548429430,-0.010253377,9.766748428
1784147610.435693,-0.001415884,-0.055927787,-0.002749488,-0.000174505,-0.000996023,0.000513129,0.565255702,-0.027643809,9.787724495
1784147610.437703,-0.001417084,-0.055928342,-0.002749489,-0.000601037,-0.001292249,0.000414585,0.564343452,0.009029939,9.798719406
1784147610.439703,-0.001417084,-0.055928342,-0.002749489,-0.000778380,-0.000984520,-0.000141473,0.557084918,-0.000014991,9.760545731
1784147610.441706,-0.001416509,-0.055929057,-0.002749490,-0.000489537,-0.000619196,-0.000815882,0.539293349,-0.023980670,9.760375023
1784147610.443702,-0.001416509,-0.055929057,-0.002749490,-0.000104307,-0.000755246,-0.000605124,0.551013649,0.018749498,9.779042244
1784147610.445709,-0.001416509,-0.055929057,-0.002749490,0.000278956,-0.001360437,-0.000291780,0.547712862,-0.031409904,9.781855583
1784147610.447706,-0.001416732,-0.055929024,-0.002749490,0.000919832,-0.001804991,-0.000099061,0.534506857,-0.046550170,9.792505264
1784147610.449743,-0.001416732,-0.055929024,-0.002749490,0.001423922,-0.001934021,0.000493773,0.530134737,-0.035859253,9.809157372
1784147610.451738,-0.001417425,-0.055928305,-0.002749489,0.001598316,-0.001502966,0.000765798,0.532774985,-0.003577570,9.801298141
1784147610.453739,-0.001417425,-0.055928305,-0.002749489,0.001765725,-0.000933629,0.000351691,0.550106406,-0.020121979,9.765339851
1784147610.455725,-0.001417425,-0.055928305,-0.002749489,0.001614106,-0.000662021,0.000391770,0.571242690,-0.015156562,9.785120010
1784147610.457726,-0.001417623,-0.055928882,-0.002749490,0.001503196,-0.000412811,0.000854497,0.540334046,-0.009892707,9.793642998
1784147610.459723,-0.001417623,-0.055928882,-0.002749490,0.001730920,-0.000231602,0.000704677,0.560539007,-0.010856566,9.766756058
1784147610.461742,-0.001417493,-0.055929225,-0.002749491,0.001659010,-0.000314127,0.000774481,0.551969528,-0.014337373,9.767621040
1784147610.463736,-0.001417493,-0.055929225,-0.002749491,0.001299666,-0.000334937,0.000825063,0.547906041,-0.016916169,9.759531021
1784147610.465733,-0.001417493,-0.055929225,-0.002749491,0.000895682,-0.000272361,0.000176150,0.564097881,-0.012360912,9.782890320
1784147610.467750,-0.001417237,-0.055929743,-0.002749491,0.000582571,-0.000368463,-0.000640380,0.549393177,-0.005283244,9.759160042
1784147610.469763,-0.001417237,-0.055929743,-0.002749491,0.000790823,-0.000174407,-0.001034479,0.552623928,0.001059248,9.743512154
1784147610.471844,-0.001416772,-0.055930220,-0.002749492,0.001160542,0.000194836,-0.000706199,0.558289707,-0.010062262,9.785140991
1784147610.473791,-0.001416772,-0.055930220,-0.002749492,0.001170508,-0.000091906,-0.000380299,0.581275940,-0.003874161,9.755613327
1784147610.475755,-0.001416772,-0.055930220,-0.002749492,0.001045888,-0.000908025,-0.000688032,0.539813936,-0.017340135,9.770730972
1784147610.477767,-0.001417059,-0.055929687,-0.002749491,0.001030453,-0.001250607,-0.001037051,0.560372889,0.013669396,9.783501625
1784147610.479761,-0.001417059,-0.055929687,-0.002749491,0.000861172,-0.000996486,-0.000963820,0.544007480,-0.039166849,9.808254242
1784147610.481751,-0.001418086,-0.055929184,-0.002749491,0.000883699,-0.000669825,-0.000765038,0.504005253,-0.044052962,9.811321259
1784147610.483837,-0.001418086,-0.055929184,-0.002749491,0.001189270,-0.000452752,-0.000655987,0.528041661,-0.024917282,9.786361694
1784147610.485774,-0.001418086,-0.055929184,-0.002749491,0.000704788,-0.000397090,-0.000235255,0.524053335,-0.019607650,9.802979469
1784147610.487805,-0.001417997,-0.055927850,-0.002749489,-0.000064738,-0.000336484,0.000467834,0.541841269,0.001899198,9.770853996
1784147610.489765,-0.001417997,-0.055927850,-0.002749489,0.000190951,-0.000171710,0.000422390,0.557040751,-0.003605037,9.761419296
1784147610.491765,-0.001417601,-0.055928167,-0.002749490,0.000470630,0.000077520,-0.000295817,0.561376452,-0.015798815,9.767174721
1784147610.493764,-0.001417601,-0.055928167,-0.002749490,0.000113478,0.000299024,-0.000476707,0.568194628,-0.044677958,9.783582687
1784147610.495770,-0.001417601,-0.055928167,-0.002749490,-0.000163334,0.000691789,-0.000155925,0.550467253,-0.024874426,9.802970886
1784147610.497943,-0.001418034,-0.055928573,-0.002749490,-0.000437762,0.000995038,0.000348518,0.545185089,-0.018324124,9.773418427
1784147610.499796,-0.001418034,-0.055928573,-0.002749490,-0.001044201,0.000515378,0.001198849,0.535440922,-0.005845514,9.800388336
1784147610.501784,-0.001417661,-0.055928227,-0.002749490,-0.001704082,-0.000027143,0.001401692,0.532098949,0.013987082,9.789752960
1784147610.503776,-0.001417661,-0.055928227,-0.002749490,-0.001765354,-0.000190130,0.001100126,0.558324218,-0.008575296,9.764975548
1784147610.505781,-0.001417661,-0.055928227,-0.002749490,-0.001064514,0.000061413,0.000829531,0.561449409,-0.008739541,9.782462120
1784147610.507814,-0.001417472,-0.055928804,-0.002749490,-0.000154676,0.000366790,0.000561513,0.540022731,0.000924521,9.785194397
1784147610.509780,-0.001417472,-0.055928804,-0.002749490,-0.000017882,0.000503049,0.000671829,0.540752769,-0.012567144,9.790936470
1784147610.511778,-0.001417169,-0.055928160,-0.002749490,-0.000226554,0.000620648,0.001239204,0.513914585,-0.004263822,9.805758476
1784147610.513785,-0.001417169,-0.055928160,-0.002749490,-0.000000551,0.000593028,0.001851071,0.533397675,0.009137654,9.776272774
1784147610.515821,-0.001417169,-0.055928160,-0.002749490,0.000741289,0.000283236,0.001555988,0.542987764,-0.011852588,9.812462807
1784147610.517792,-0.001416702,-0.055927567,-0.002749489,0.001173975,0.000025596,0.000871327,0.533671200,-0.004408680,9.790534019
1784147610.519781,-0.001416702,-0.055927567,-0.002749489,0.000173266,0.000334534,0.000950892,0.538592637,-0.007016602,9.770345688
1784147610.521782,-0.001416141,-0.055926993,-0.002749488,-0.001134001,0.000724056,0.001622614,0.527235627,-0.018510321,9.768917084
1784147610.523783,-0.001416141,-0.055926993,-0.002749488,-0.001039198,0.000712748,0.001426007,0.570766509,-0.018203869,9.773444176
1784147610.525788,-0.001416141,-0.055926993,-0.002749488,-0.000334734,0.000756858,0.000435648,0.555835664,-0.025880674,9.808798790
1784147610.527786,-0.001416567,-0.055927433,-0.002749489,-0.000091866,0.001004133,0.000328712,0.544555008,0.002439851,9.752928734
1784147610.529792,-0.001416567,-0.055927433,-0.002749489,0.000007696,0.000734683,0.000320389,0.548101008,0.000833754,9.783407211
1784147610.531793,-0.001416106,-0.055927549,-0.002749489,0.000164516,-0.000108165,-0.000068230,0.546393991,0.008033671,9.782107353
1784147610.533801,-0.001416106,-0.055927549,-0.002749489,0.000426163,-0.000366654,0.000120227,0.557417631,-0.008230304,9.781116486
1784147610.535786,-0.001416106,-0.055927549,-0.002749489,0.000735103,0.000326499,0.000136253,0.562792778,-0.008372426,9.791432381
1784147610.537789,-0.001415617,-0.055928029,-0.002749489,0.000927557,0.001085896,-0.000193692,0.539415658,-0.012883390,9.774792671
1784147610.539799,-0.001415617,-0.055928029,-0.002749489,0.000447057,0.001262949,0.000357145,0.557986498,0.002438707,9.791944504
1784147610.541796,-0.001415265,-0.055928722,-0.002749490,-0.000215833,0.000926217,0.000935850,0.545626402,0.018796237,9.782174110
1784147610.543807,-0.001415265,-0.055928722,-0.002749490,-0.000138171,0.000552636,0.000743845,0.558750093,-0.007545587,9.808471680
1784147610.545798,-0.001415265,-0.055928722,-0.002749490,0.000296447,0.000079747,0.000386832,0.544217527,-0.022109350,9.803431511
1784147610.547808,-0.001415565,-0.055928469,-0.002749490,0.000539706,-0.000371620,0.000071884,0.549972713,-0.028878069,9.799807549
1784147610.549797,-0.001415565,-0.055928469,-0.002749490,0.000323156,-0.000300983,-0.000029589,0.543345511,-0.020680837,9.793128014
1784147610.551804,-0.001415684,-0.055927578,-0.002749488,-0.000447909,-0.000099360,-0.000031442,0.500426233,-0.007954471,9.781961441
1784147610.553818,-0.001415684,-0.055927578,-0.002749488,-0.000972705,0.000101563,-0.000104639,0.546985924,-0.017489355,9.778805733
1784147610.555799,-0.001415684,-0.055927578,-0.002749488,-0.000843916,0.000622397,-0.000479997,0.528798521,-0.000605948,9.768585205
1784147610.557801,-0.001414168,-0.055926487,-0.002749487,-0.000699084,0.000730508,-0.000628509,0.553695440,-0.020577775,9.759962082
1784147610.559803,-0.001414168,-0.055926487,-0.002749487,-0.000943538,0.000236511,-0.000650187,0.562062681,-0.032067280,9.785451889
1784147610.561809,-0.001414976,-0.055927794,-0.002749489,-0.001174342,-0.000013912,-0.000809867,0.578846872,-0.018278737,9.769415855
1784147610.563808,-0.001414976,-0.055927794,-0.002749489,-0.001107169,-0.000110655,-0.000636512,0.539203167,-0.031176668,9.764364243
1784147610.565809,-0.001414976,-0.055927794,-0.002749489,-0.000879889,-0.000381820,-0.000384697,0.539495170,-0.006176698,9.776630402
1784147610.567805,-0.001414668,-0.055926871,-0.002749488,-0.000099727,-0.000673770,-0.000561838,0.534905255,-0.015037089,9.770739555
1784147610.569815,-0.001414668,-0.055926871,-0.002749488,0.000760958,-0.000601728,-0.000670781,0.531065285,0.004006713,9.808965683
1784147610.571813,-0.001414048,-0.055925786,-0.002749486,0.000940713,0.000080236,0.000119139,0.538269997,0.003304973,9.768619537
1784147610.573816,-0.001414048,-0.055925786,-0.002749486,0.000837825,0.000635108,0.000441814,0.565039039,-0.009595613,9.770354271
1784147610.575817,-0.001414048,-0.055925786,-0.002749486,0.000597802,0.000632548,-0.000210189,0.553648233,-0.024193265,9.764422417
1784147610.577816,-0.001415069,-0.055926524,-0.002749487,0.000220824,0.000379546,-0.000470264,0.539032102,-0.007095482,9.780656815
1784147610.579817,-0.001415069,-0.055926524,-0.002749487,0.000049994,-0.000132857,-0.000173990,0.518067002,0.004284730,9.793263435
1784147610.581818,-0.001413894,-0.055924714,-0.002749485,-0.000003265,-0.000474780,0.000673943,0.555183411,-0.007318356,9.782914162
1784147610.583826,-0.001413894,-0.055924714,-0.002749485,-0.000255746,-0.000380684,0.001473745,0.553477108,-0.036891971,9.786308289
1784147610.585819,-0.001413894,-0.055924714,-0.002749485,-0.000853331,-0.000267140,0.001315861,0.546808720,-0.030235762,9.807416916
1784147610.587830,-0.001414063,-0.055924673,-0.002749485,-0.001380164,-0.000343770,0.000929033,0.557740331,-0.053305004,9.818489075
1784147610.589826,-0.001414063,-0.055924673,-0.002749485,-0.001583469,-0.000367313,0.000936530,0.551433146,-0.019481776,9.798972130
1784147610.591828,-0.001414328,-0.055925291,-0.002749486,-0.001478377,-0.000351971,0.001068936,0.589395940,0.002849511,9.803634644
1784147610.593833,-0.001414328,-0.055925291,-0.002749486,-0.000861258,-0.000561285,0.000948402,0.542777121,-0.030536592,9.793961525
1784147610.595831,-0.001414328,-0.055925291,-0.002749486,-0.000228604,-0.000499862,0.000880129,0.557978988,0.000758149,9.776242256
1784147610.597838,-0.001413860,-0.055925570,-0.002749486,-0.000219381,-0.000361911,0.001100971,0.569745481,0.009910925,9.791108131
1784147610.599831,-0.001413860,-0.055925570,-0.002749486,-0.000284936,-0.000295528,0.001081029,0.570917487,-0.004043997,9.798193932
1784147610.601837,-0.001413686,-0.055927020,-0.002749488,-0.000112880,0.000002783,0.001014088,0.579752386,-0.016199872,9.790501595
1784147610.603837,-0.001413686,-0.055927020,-0.002749488,-0.000276720,0.000153433,0.000603455,0.565790951,-0.021292251,9.775660515
1784147610.605837,-0.001413686,-0.055927020,-0.002749488,-0.000651435,-0.000089845,-0.000384028,0.544149995,-0.029530728,9.776035309
1784147610.607839,-0.001414237,-0.055927049,-0.002749488,-0.000400547,-0.000203821,-0.000596763,0.544294953,-0.018255394,9.765347481
1784147610.609844,-0.001414237,-0.055927049,-0.002749488,0.000398364,0.000112739,0.000515093,0.548919499,-0.004664569,9.799063683
1784147610.611840,-0.001414603,-0.055927146,-0.002749488,0.000348386,0.000474719,0.001559470,0.541942418,-0.026382156,9.778296471
1784147610.613847,-0.001414603,-0.055927146,-0.002749488,-0.000680732,0.000578317,0.000819518,0.534710109,-0.031166865,9.771083832
1784147610.615848,-0.001414603,-0.055927146,-0.002749488,-0.001104072,0.000670149,-0.000025800,0.524356306,-0.031705171,9.802453995
1784147610.617849,-0.001414472,-0.055924568,-0.002749484,-0.000945468,0.000671707,0.000387726,0.557958245,-0.038210686,9.774648666
1784147610.619846,-0.001414472,-0.055924568,-0.002749484,-0.000926234,0.000046233,0.000306243,0.531380057,-0.008808671,9.783329964
1784147610.621853,-0.001415134,-0.055923209,-0.002749483,-0.000656534,-0.000213077,0.000067865,0.554830670,-0.000475539,9.766368866
1784147610.623853,-0.001415134,-0.055923209,-0.002749483,-0.000583304,-0.000024662,0.000221049,0.527791619,-0.007943065,9.794092178
1784147610.625852,-0.001415134,-0.055923209,-0.002749483,-0.000624400,-0.000334262,-0.000012983,0.547360659,0.015052827,9.801430702
1784147610.627860,-0.001413320,-0.055923097,-0.002749483,-0.000039856,-0.000671988,-0.000580261,0.530989707,-0.003884884,9.784705162
1784147610.629858,-0.001413320,-0.055923097,-0.002749483,0.000551940,-0.000561483,-0.000720490,0.546167731,-0.009557643,9.799032211
1784147610.631854,-0.001413436,-0.055922411,-0.002749481,0.000583405,-0.000586549,-0.000516988,0.550770044,-0.037785202,9.790783882
1784147610.633859,-0.001413436,-0.055922411,-0.002749481,0.000551289,-0.000763774,-0.000766851,0.564870894,-0.023485584,9.770714760
1784147610.635863,-0.001413436,-0.055922411,-0.002749481,0.000677856,-0.000425854,-0.001054345,0.552454054,-0.009603154,9.794105530
1784147610.637863,-0.001413376,-0.055922717,-0.002749482,0.000371272,-0.000178039,-0.000831162,0.548484266,-0.004147259,9.790101051
1784147610.639862,-0.001413376,-0.055922717,-0.002749482,-0.000146170,-0.000444207,-0.000689583,0.526668310,-0.027546462,9.780514717
1784147610.641945,-0.001414327,-0.055921972,-0.002749481,-0.000485598,-0.000547519,-0.000748347,0.547420442,-0.018823087,9.776555061
1784147610.643878,-0.001414327,-0.055921972,-0.002749481,-0.000349805,-0.000180695,-0.000174322,0.530328810,-0.022169225,9.773827553
1784147610.645873,-0.001414327,-0.055921972,-0.002749481,0.000960803,0.000091910,0.000173597,0.541366518,0.000888196,9.787884712
1784147610.647876,-0.001412339,-0.055920728,-0.002749480,0.002620861,0.000125884,-0.000385076,0.590581119,-0.011407103,9.790094376
1784147610.649874,-0.001412339,-0.055920728,-0.002749480,0.003196140,0.000136703,-0.000341853,0.586690187,0.001155752,9.794654846
1784147610.651875,-0.001411836,-0.055921976,-0.002749481,0.002419645,0.000081495,0.000337248,0.566216588,-0.021885872,9.795384407
1784147610.653883,-0.001411836,-0.055921976,-0.002749481,0.001132497,0.000088374,0.000289528,0.561995924,-0.037052087,9.793490410
1784147610.655881,-0.001411836,-0.055921976,-0.002749481,-0.000023621,-0.000135592,-0.000180101,0.549457431,0.001302625,9.778033257
1784147610.657879,-0.001410521,-0.055922091,-0.002749481,-0.000722569,-0.000461291,-0.000685366,0.562513351,-0.031247053,9.795320511
1784147610.659884,-0.001410521,-0.055922091,-0.002749481,-0.000972962,-0.000091812,-0.000652515,0.524415791,-0.027994292,9.784544945
1784147610.661889,-0.001411587,-0.055920515,-0.002749480,-0.000828669,0.000439610,0.000059367,0.513499975,-0.041174326,9.767413139
1784147610.663925,-0.001411587,-0.055920515,-0.002749480,-0.000749538,0.000054278,0.000375049,0.545234561,-0.013476044,9.784657478
1784147610.665897,-0.001411587,-0.055920515,-0.002749480,-0.000929457,-0.000457861,0.000603354,0.550598383,-0.014923893,9.789585114
1784147610.667896,-0.001411254,-0.055920713,-0.002749480,-0.000996452,-0.000001462,0.000413359,0.561467409,-0.043349586,9.797932625
1784147610.669892,-0.001411254,-0.055920713,-0.002749480,-0.001001556,0.000804836,-0.000751294,0.551084340,-0.012203722,9.784223557
1784147610.671893,-0.001411776,-0.055920757,-0.002749480,-0.000646201,0.001206913,-0.001365521,0.525641203,-0.002316211,9.762742043
1784147610.673898,-0.001411776,-0.055920757,-0.002749480,-0.000142823,0.000932680,-0.000750692,0.523701310,-0.013165103,9.779708862
1784147610.675895,-0.001411776,-0.055920757,-0.002749480,0.000165919,0.000373989,-0.000377096,0.527269483,-0.015406389,9.773419380
1784147610.677896,-0.001412621,-0.055919465,-0.002749478,0.000647585,0.000218533,-0.000482213,0.547909796,-0.015670853,9.773437500
1784147610.679896,-0.001412621,-0.055919465,-0.002749478,0.000694698,0.000485215,-0.000340534,0.537294328,-0.002163991,9.783376694
1784147610.681897,-0.001411663,-0.055918735,-0.002749477,0.000005740,0.000634510,-0.000437292,0.547200561,-0.001610397,9.750662804
1784147610.683910,-0.001411663,-0.055918735,-0.002749477,-0.000409098,0.000453790,-0.000418994,0.546237946,-0.004950843,9.781126976
1784147610.685908,-0.001411663,-0.055918735,-0.002749477,-0.000549067,0.000319171,-0.000206854,0.547467470,-0.014804159,9.778375626
1784147610.687903,-0.001411987,-0.055918191,-0.002749476,-0.000725321,0.000024355,-0.000125733,0.559656143,-0.008703833,9.780667305
1784147610.689904,-0.001411987,-0.055918191,-0.002749476,-0.000528596,-0.000229698,-0.000102443,0.527020872,0.001173922,9.773526192
1784147610.691908,-0.001411192,-0.055916395,-0.002749474,0.000577189,-0.000046724,-0.000154105,0.533069372,-0.018175252,9.774303436
1784147610.693918,-0.001411192,-0.055916395,-0.002749474,0.001583540,0.000351848,0.000225249,0.556435466,-0.014966837,9.785107613
1784147610.695917,-0.001411192,-0.055916395,-0.002749474,0.001593093,0.000579005,0.000337637,0.564871430,-0.022265704,9.788207054
1784147610.697915,-0.001412405,-0.055917818,-0.002749476,0.001381696,0.000480726,-0.000214120,0.554305077,-0.004724016,9.797724724
1784147610.699917,-0.001412405,-0.055917818,-0.002749476,0.001317854,0.000390048,-0.000597980,0.536353588,-0.007762950,9.753302574
1784147610.701930,-0.001412217,-0.055917084,-0.002749475,0.000958687,-0.000053720,-0.000374769,0.528722346,-0.006070506,9.781102180
1784147610.703923,-0.001412217,-0.055917084,-0.002749475,0.000404670,-0.000609276,0.000020753,0.527337730,-0.009598794,9.775698662
1784147610.705928,-0.001412217,-0.055917084,-0.002749475,0.000045271,-0.000346396,-0.000030308,0.521943331,-0.009609292,9.786902428
1784147610.707932,-0.001412629,-0.055916108,-0.002749474,0.000259627,0.000240607,-0.000822721,0.542944729,-0.015839722,9.806159973
1784147610.709937,-0.001412629,-0.055916108,-0.002749474,0.000812946,0.000539947,-0.001725002,0.574455500,-0.009360588,9.783367157
1784147610.711933,-0.001412714,-0.055917520,-0.002749475,0.000975692,0.000379522,-0.001879345,0.555659235,-0.004677670,9.788759232
1784147610.713932,-0.001412714,-0.055917520,-0.002749475,0.000965091,0.000187401,-0.001234230,0.537392497,0.006715743,9.794642448
1784147610.715932,-0.001412714,-0.055917520,-0.002749475,0.001266512,0.000346223,-0.000130301,0.526982486,-0.002371612,9.768122673
1784147610.717931,-0.001411951,-0.055916931,-0.002749474,0.001323490,0.000446451,0.000547192,0.515526652,-0.020724652,9.786375999
1784147610.719933,-0.001411951,-0.055916931,-0.002749474,0.000446551,0.000713568,0.000354392,0.546433032,-0.025600959,9.786375046
1784147610.721940,-0.001411938,-0.055917166,-0.002749475,-0.000661507,0.000967880,0.000105215,0.562846601,-0.008352978,9.725527763
1784147610.723945,-0.001411938,-0.055917166,-0.002749475,-0.001108103,0.001024258,-0.000238918,0.550804377,-0.034271460,9.800668716
1784147610.725942,-0.001411938,-0.055917166,-0.002749475,-0.000597007,0.001471066,-0.000612389,0.526726186,-0.022631608,9.782340050
1784147610.727947,-0.001412245,-0.055916574,-0.002749474,0.000442825,0.001750709,-0.000450411,0.543739319,-0.024362482,9.806106567
1784147610.729950,-0.001412245,-0.055916574,-0.002749474,0.000735481,0.000806493,-0.000177079,0.539356768,-0.018211229,9.768033981
1784147610.731946,-0.001411947,-0.055916276,-0.002749474,0.000419937,-0.000289527,0.000000875,0.539384186,-0.016374867,9.761769295
1784147610.733949,-0.001411947,-0.055916276,-0.002749474,0.000181021,-0.000312244,-0.000135958,0.552929997,-0.046172585,9.769212723
1784147610.735948,-0.001411947,-0.055916276,-0.002749474,-0.000060340,0.000122245,-0.000287388,0.568654001,-0.006604447,9.784276009
1784147610.737954,-0.001411752,-0.055916984,-0.002749474,0.000050716,0.000289576,-0.000055094,0.564807594,-0.026011558,9.811047554
1784147610.739952,-0.001411752,-0.055916984,-0.002749474,0.000563291,0.000208607,0.000149788,0.566873789,-0.005250285,9.786075592
1784147610.741958,-0.001411362,-0.055917718,-0.002749475,0.000233425,0.000231859,-0.000134860,0.550598621,-0.016137408,9.771195412
1784147610.743964,-0.001411362,-0.055917718,-0.002749475,-0.000493633,0.000327591,-0.000595282,0.541472793,0.008211377,9.765964508
1784147610.745963,-0.001411362,-0.055917718,-0.002749475,-0.000517999,0.000372003,-0.000623153,0.521837592,-0.017332740,9.802096367
1784147610.747965,-0.001412146,-0.055916987,-0.002749474,-0.000645267,0.000367879,-0.000373056,0.534026384,-0.011232416,9.804388046
1784147610.749966,-0.001412146,-0.055916987,-0.002749474,-0.000777367,0.000094536,-0.000066070,0.541595936,-0.018274954,9.772967339
1784147610.751983,-0.001412346,-0.055916745,-0.002749474,-0.000386456,-0.000147391,0.000410827,0.560491562,-0.012851910,9.795436859
1784147610.753970,-0.001412346,-0.055916745,-0.002749474,-0.000009490,-0.000057517,0.001229218,0.547963738,-0.047161065,9.791170120
1784147610.755983,-0.001412346,-0.055916745,-0.002749474,0.000195947,0.000349248,0.002061873,0.537195146,-0.046616457,9.796991348
1784147610.757982,-0.001413783,-0.055916447,-0.002749474,0.000454365,0.000592615,0.002307294,0.557082951,0.001995885,9.792838097
1784147610.759972,-0.001413783,-0.055916447,-0.002749474,0.000729901,0.000340968,0.001833965,0.548053682,-0.004808499,9.757816315
1784147610.762002,-0.001414009,-0.055916533,-0.002749474,0.001222714,0.000301700,0.000966914,0.572553992,-0.017474029,9.793624878
1784147610.764000,-0.001414009,-0.055916533,-0.002749474,0.001823038,0.000776572,-0.000004520,0.533971727,-0.016931903,9.786867142
1784147610.765989,-0.001414009,-0.055916533,-0.002749474,0.001985990,0.000924822,-0.000280493,0.526723444,-0.022653870,9.785478592
1784147610.768032,-0.001414852,-0.055915974,-0.002749473,0.001537370,0.000548865,0.000182783,0.533141375,-0.011122344,9.790490150
1784147610.769999,-0.001414852,-0.055915974,-0.002749473,0.000510878,0.000716391,0.000214741,0.564589918,-0.009593039,9.770803452
1784147610.771990,-0.001414506,-0.055917516,-0.002749475,-0.000325703,0.000948490,0.000057977,0.565103233,-0.039789639,9.794818878
1784147610.774000,-0.001414506,-0.055917516,-0.002749475,-0.000384393,0.000386795,0.000734858,0.526666880,0.010437411,9.794656754
1784147610.775995,-0.001414506,-0.055917516,-0.002749475,-0.000012124,-0.000081420,0.001318549,0.551321089,0.007497030,9.785694122
1784147610.778022,-0.001413351,-0.055917870,-0.002749476,0.000684536,0.000350078,0.001225240,0.583062947,-0.003147496,9.776242256
1784147610.780005,-0.001413351,-0.055917870,-0.002749476,0.001593409,0.000931851,0.000870564,0.579983830,0.001432772,9.767750740
1784147610.782002,-0.001411793,-0.055919789,-0.002749478,0.002163645,0.001212884,0.000575141,0.546162367,-0.010815675,9.786917686
1784147610.784089,-0.001411793,-0.055919789,-0.002749478,0.001403705,0.001447290,0.000520692,0.561062872,-0.005000669,9.761414528
1784147610.786016,-0.001411793,-0.055919789,-0.002749478,0.000251856,0.001392836,0.000099734,0.581886292,-0.026414081,9.773850441
1784147610.788007,-0.001413067,-0.055921461,-0.002749480,-0.000154088,0.001311612,-0.000062059,0.554476142,-0.027995128,9.793540001
1784147610.790004,-0.001413067,-0.055921461,-0.002749480,-0.000522676,0.001304347,0.000289598,0.559361815,0.002246946,9.753389359
1784147610.792007,-0.001411422,-0.055922341,-0.002749481,-0.001137704,0.000962577,0.000254521,0.557432890,-0.006489330,9.788301468
1784147610.794013,-0.001411422,-0.055922341,-0.002749481,-0.001480947,0.000248033,-0.000351117,0.524291337,-0.000707437,9.790996552
1784147610.796012,-0.001411422,-0.055922341,-0.002749481,-0.001548840,-0.000113471,-0.000628676,0.523352742,-0.005073799,9.776622772
1784147610.798010,-0.001411358,-0.055919364,-0.002749477,-0.001737457,0.000251219,-0.000267991,0.562986553,-0.029438702,9.792194366
1784147610.800005,-0.001411358,-0.055919364,-0.002749477,-0.001532850,0.000386878,0.000048739,0.564670801,-0.040060148,9.770607948
1784147610.802010,-0.001411907,-0.055919897,-0.002749478,-0.001296214,0.000197547,0.000151644,0.542417109,-0.023751011,9.785486221
1784147610.804017,-0.001411907,-0.055919897,-0.002749478,-0.001031091,0.000239610,0.000065294,0.533558488,-0.013809498,9.789576530
1784147610.806022,-0.001411907,-0.055919897,-0.002749478,-0.000437844,0.000429480,-0.000248814,0.541229784,-0.009106851,9.807546616
1784147610.808017,-0.001411450,-0.055918835,-0.002749477,-0.000134173,0.000354191,-0.000641499,0.551875532,-0.020348473,9.794034958
1784147610.810016,-0.001411450,-0.055918835,-0.002749477,0.000008450,-0.000310897,-0.001075506,0.557980895,0.002394187,9.798222542
1784147610.812024,-0.001409844,-0.055918869,-0.002749477,-0.000017826,-0.000995757,-0.000779236,0.523970842,0.010036658,9.792858124
1784147610.814022,-0.001409844,-0.055918869,-0.002749477,-0.000181801,-0.001371099,0.000086917,0.536184311,-0.018825624,9.797168732
1784147610.816024,-0.001409844,-0.055918869,-0.002749477,-0.000008755,-0.001446927,0.000268170,0.557958484,-0.000214090,9.786997795
1784147610.818019,-0.001409362,-0.055919651,-0.002749478,0.000559161,-0.000804078,0.000260389,0.559358716,-0.031314924,9.810559273
1784147610.820028,-0.001409362,-0.055919651,-0.002749478,0.000288554,-0.000111514,0.000110467,0.552777827,-0.056695074,9.800079346
1784147610.822044,-0.001411178,-0.055920105,-0.002749479,-0.000581912,-0.000048491,-0.000200848,0.546043992,-0.020261012,9.792237282
1784147610.824032,-0.001411178,-0.055920105,-0.002749479,-0.000420743,-0.000029154,-0.000426523,0.559418738,0.008775580,9.780330658
1784147610.826033,-0.001411178,-0.055920105,-0.002749479,-0.000012179,0.000179121,-0.000481069,0.548920572,-0.005061648,9.791888237
1784147610.828032,-0.001410678,-0.055919282,-0.002749478,-0.000220658,0.000354082,-0.000485376,0.566635072,0.013433109,9.805473328
1784147610.830042,-0.001410678,-0.055919282,-0.002749478,-0.000391802,0.000321193,-0.000724112,0.565904856,-0.014718729,9.733110428
1784147610.832036,-0.001410730,-0.055919774,-0.002749478,-0.000503296,-0.000065438,-0.000484836,0.545694590,-0.048955966,9.795639038
1784147610.834051,-0.001410730,-0.055919774,-0.002749478,-0.000675500,-0.000400111,-0.000310966,0.530694902,-0.029717186,9.763467789
1784147610.836044,-0.001410730,-0.055919774,-0.002749478,-0.000274351,-0.000538723,-0.000652228,0.544013977,-0.039926045,9.788970947
