time_sec,roll_rad,pitch_rad,yaw_rad,gyro_x,gyro_y,gyro_z,acc_x,acc_y,acc_z
1784152361.967521,0.021570262,-0.055623956,-0.446056545,0.001440868,0.000181241,0.001153628,0.576579690,0.203455284,9.780698776
1784152361.969453,0.021567376,-0.055619407,-0.446051449,0.000824172,0.000657664,0.001126925,0.552853525,0.207842529,9.773530960
1784152361.971466,0.021564243,-0.055616956,-0.446046948,0.000228936,0.000967873,0.001504175,0.553674877,0.202366441,9.786049843
1784152361.973420,0.021563735,-0.055616394,-0.446041107,-0.000026906,0.000921731,0.001813868,0.539658904,0.191981211,9.759518623
1784152361.975450,0.021564145,-0.055615004,-0.446038157,0.000021272,0.000814366,0.001913074,0.561727881,0.200861871,9.794118881
1784152361.977440,0.021563994,-0.055615596,-0.446037650,0.000093006,0.000701971,0.001624177,0.565013409,0.176530585,9.807415962
1784152361.979451,0.021568373,-0.055614661,-0.446038783,0.000398678,0.000583133,0.001125086,0.553802788,0.175108224,9.775564194
1784152361.981434,0.021573670,-0.055611175,-0.446036905,0.000949145,0.000726572,0.000835513,0.551648021,0.182726875,9.779196739
1784152361.983469,0.021566978,-0.055607475,-0.446026564,0.000754116,0.001066502,0.001437259,0.581470847,0.200608894,9.794136047
1784152361.985458,0.021564217,-0.055603795,-0.446019024,0.000086936,0.001335253,0.002290099,0.557704747,0.201437876,9.783357620
1784152361.987478,0.021571165,-0.055604786,-0.446019620,0.000431537,0.001256960,0.002116897,0.535594761,0.189802691,9.758156776
1784152361.989449,0.021577796,-0.055603161,-0.446018010,0.001296754,0.001051964,0.001557629,0.549850047,0.220314398,9.789299965
1784152361.991409,0.021580763,-0.055598289,-0.446017027,0.001604638,0.001211315,0.001277779,0.551983774,0.210503638,9.778927803
1784152361.993420,0.021586481,-0.055600569,-0.446015358,0.001700035,0.001112799,0.001072510,0.554565787,0.201494023,9.781113625
1784152361.995416,0.021594083,-0.055601753,-0.446007997,0.002107750,0.000638856,0.001336463,0.548841596,0.211344436,9.792380333
1784152361.997398,0.021592651,-0.055597726,-0.446003020,0.002028586,0.000674084,0.001782997,0.546894193,0.233568072,9.757999420
1784152361.999439,0.021596355,-0.055602532,-0.446007401,0.001662510,0.000437844,0.001330115,0.533417165,0.234020010,9.781750679
1784152362.001414,0.021595150,-0.055608388,-0.446010143,0.001353522,-0.000414558,0.000472836,0.546712518,0.257566571,9.785949707
1784152362.003412,0.021597525,-0.055605710,-0.446005017,0.000842426,-0.000586555,0.000518281,0.547722399,0.227742657,9.756617546
1784152362.005406,0.021597687,-0.055603374,-0.445997596,0.000601242,-0.000141498,0.001240741,0.551360190,0.236182094,9.823475838
1784152362.007420,0.021599347,-0.055600531,-0.445997804,0.000518021,0.000292043,0.001388715,0.548265994,0.237401232,9.783579826
1784152362.009401,0.021605393,-0.055603001,-0.446000695,0.000817015,0.000266438,0.000773108,0.534750998,0.232690677,9.777260780
1784152362.011420,0.021606423,-0.055601053,-0.446008384,0.001034875,0.000142889,-0.000181389,0.518389761,0.215856045,9.779826164
1784152362.013414,0.021604229,-0.055591084,-0.446011752,0.000604569,0.000761206,-0.000873721,0.547897756,0.206936717,9.783833504
1784152362.015406,0.021597555,-0.055585612,-0.446009994,-0.000195923,0.001464788,-0.000709523,0.568410039,0.194720387,9.763599396
1784152362.017406,0.021600649,-0.055586681,-0.446019053,-0.000331356,0.001489079,-0.001007107,0.571311235,0.210923776,9.748013496
1784152362.019411,0.021606781,-0.055584773,-0.446027279,0.000400639,0.001250256,-0.001946076,0.569557309,0.178948194,9.774257660
1784152362.021417,0.021604845,-0.055586103,-0.446030349,0.000533542,0.000933943,-0.002198291,0.545180559,0.204747289,9.781574249
1784152362.023417,0.021596065,-0.055588391,-0.446030259,-0.000295891,0.000457747,-0.001771106,0.550748885,0.219098940,9.769566536
1784152362.025412,0.021593027,-0.055593811,-0.446028918,-0.000958024,-0.000160402,-0.001154629,0.515115380,0.241489887,9.772365570
1784152362.027412,0.021596542,-0.055594746,-0.446029097,-0.000772095,-0.000689587,-0.000759065,0.501927614,0.227709398,9.780782700
1784152362.029478,0.021601263,-0.055593777,-0.446031541,-0.000125052,-0.000646856,-0.000756530,0.534397840,0.206397340,9.821026802
1784152362.031551,0.021605421,-0.055591628,-0.446028650,0.000512448,-0.000258751,-0.000553862,0.537925422,0.237777933,9.812266350
1784152362.033436,0.021618279,-0.055589084,-0.446031809,0.001410938,0.000019742,-0.000477761,0.565212011,0.229062259,9.791612625
1784152362.035447,0.021624934,-0.055586789,-0.446035117,0.002211155,0.000223707,-0.000855328,0.543984354,0.253264576,9.765745163
1784152362.037461,0.021620795,-0.055578608,-0.446038634,0.001641816,0.000834477,-0.001093534,0.515517592,0.237875015,9.775929451
1784152362.039432,0.021619508,-0.055574346,-0.446042717,0.000686087,0.001411354,-0.001285241,0.516658664,0.222055092,9.793313980
1784152362.041420,0.021625515,-0.055573810,-0.446039736,0.000815474,0.001352288,-0.001029116,0.509957850,0.223996773,9.784354210
1784152362.043433,0.021620767,-0.055568121,-0.446045697,0.000674570,0.001276461,-0.000951399,0.537758529,0.221870735,9.781228065
1784152362.045430,0.021622449,-0.055564791,-0.446045935,0.000267002,0.001405719,-0.001092809,0.536958992,0.190738603,9.750094414
1784152362.047441,0.021628832,-0.055563632,-0.446038425,0.000815397,0.001269465,-0.000329279,0.535383761,0.208705500,9.746620178
1784152362.049433,0.021631759,-0.055566289,-0.446042806,0.001283425,0.000757256,-0.000064076,0.559228659,0.216603607,9.790182114
1784152362.051462,0.021633515,-0.055569928,-0.446050227,0.001207824,0.000106710,-0.000865936,0.547174513,0.220885888,9.776748657
1784152362.053466,0.021634875,-0.055571072,-0.446054548,0.000973083,-0.000257385,-0.001431704,0.540439248,0.219313830,9.757901192
1784152362.055458,0.021631293,-0.055566866,-0.446055800,0.000463375,0.000018347,-0.001408141,0.532042086,0.230161399,9.759757042
1784152362.057444,0.021632086,-0.055559576,-0.446057081,0.000079350,0.000758111,-0.001189423,0.533054709,0.239569798,9.758024216
1784152362.059470,0.021633754,-0.055560473,-0.446057886,0.000157432,0.000951067,-0.001013397,0.526698411,0.235415131,9.786684036
1784152362.061471,0.021637045,-0.055566262,-0.446055293,0.000457654,0.000241498,-0.000636788,0.539375544,0.208691537,9.804457664
1784152362.063449,0.021641005,-0.055573963,-0.446054608,0.000815907,-0.000727453,-0.000274470,0.556335509,0.200057179,9.790969849
1784152362.065437,0.021639761,-0.055573773,-0.446055561,0.000756272,-0.001032557,-0.000225423,0.514295936,0.211822078,9.787417412
1784152362.067440,0.021636682,-0.055566300,-0.446056366,0.000234413,-0.000367258,-0.000257716,0.493053973,0.235506475,9.771409988
1784152362.069445,0.021642150,-0.055560362,-0.446056932,0.000310516,0.000508468,-0.000278337,0.567027390,0.229201421,9.768750191
1784152362.071447,0.021649076,-0.055559117,-0.446060508,0.001050416,0.000852497,-0.000528583,0.549182773,0.239569142,9.792113304
1784152362.073443,0.021653527,-0.055561021,-0.446061462,0.001438987,0.000564875,-0.000732174,0.544634223,0.232656389,9.764267921
1784152362.075449,0.021659549,-0.055556651,-0.446062744,0.001669768,0.000570904,-0.000716903,0.517976522,0.254541606,9.759003639
1784152362.077455,0.021666627,-0.055553086,-0.446061373,0.001967997,0.000932991,-0.000559165,0.546845376,0.265909731,9.746549606
1784152362.079449,0.021668022,-0.055553984,-0.446062148,0.001873876,0.000839810,-0.000392583,0.536541641,0.270629257,9.794543266
1784152362.081451,0.021670476,-0.055554904,-0.446062565,0.001621660,0.000486585,-0.000381421,0.531325698,0.246191397,9.775100708
1784152362.083455,0.021670828,-0.055555686,-0.446067810,0.001185508,0.000233757,-0.000662495,0.516412318,0.238247886,9.784899712
1784152362.085454,0.021671373,-0.055556338,-0.446067512,0.000741286,0.000068606,-0.000813195,0.553427577,0.256952912,9.797159195
1784152362.087467,0.021674577,-0.055552177,-0.446065634,0.000637787,0.000339026,-0.000451104,0.545684814,0.246417239,9.780496597
1784152362.089459,0.021673696,-0.055547990,-0.446067512,0.000457771,0.000862023,-0.000330088,0.528746545,0.218850002,9.781201363
1784152362.091506,0.021675630,-0.055544555,-0.446072012,0.000380742,0.001137099,-0.000675678,0.515395582,0.227590978,9.773173332
1784152362.093496,0.021671936,-0.055535391,-0.446076006,0.000092629,0.001592754,-0.001052745,0.518085361,0.227537379,9.775866508
1784152362.095486,0.021671286,-0.055526335,-0.446071774,-0.000259037,0.002318553,-0.000729756,0.515100479,0.241372228,9.788951874
1784152362.097472,0.021676572,-0.055520490,-0.446070582,0.000004789,0.002515706,-0.000170550,0.524052501,0.238652155,9.777288437
1784152362.099489,0.021681024,-0.055529017,-0.446074694,0.000510740,0.001453544,-0.000347052,0.528043985,0.234988078,9.781303406
1784152362.101482,0.021680599,-0.055531714,-0.446067274,0.000657234,0.000301526,-0.000044849,0.522326946,0.244895726,9.784499168
1784152362.103477,0.021683941,-0.055530805,-0.446056515,0.000641205,0.000033393,0.001189191,0.536275327,0.249479711,9.807855606
1784152362.105478,0.021688070,-0.055529721,-0.446044058,0.000957098,0.000102524,0.002415103,0.539473712,0.253541082,9.798022270
1784152362.107473,0.021686403,-0.055524394,-0.446037978,0.000721171,0.000465669,0.003020340,0.551639378,0.255406618,9.765766144
1784152362.109475,0.021675717,-0.055524025,-0.446032465,-0.000481001,0.000671875,0.003044095,0.535269916,0.240128547,9.801518440
1784152362.111480,0.021670667,-0.055523425,-0.446027458,-0.001377405,0.000570770,0.002987760,0.544735491,0.242371634,9.784056664
1784152362.113479,0.021673439,-0.055520706,-0.446021140,-0.001215339,0.000632211,0.002966820,0.546419561,0.270553678,9.787377357
1784152362.115481,0.021680513,-0.055516616,-0.446022063,-0.000298166,0.000905110,0.002502811,0.532494783,0.268587500,9.773902893
1784152362.117484,0.021684078,-0.055511747,-0.446025252,0.000300597,0.001234641,0.001515539,0.532844305,0.260909170,9.781922340
1784152362.119479,0.021680651,-0.055516828,-0.446026266,0.000024787,0.000852185,0.000827825,0.552424788,0.246810749,9.776022911
1784152362.121485,0.021678284,-0.055519026,-0.446026742,-0.000380360,0.000124574,0.000522576,0.565850854,0.242714733,9.760766029
1784152362.123531,0.021668904,-0.055516466,-0.446029395,-0.001211083,0.000212707,0.000230592,0.556339085,0.198869109,9.768993378
1784152362.125491,0.021663906,-0.055514399,-0.446029693,-0.001993974,0.000566703,0.000037269,0.549077570,0.229012042,9.764697075
1784152362.127496,0.021659531,-0.055512942,-0.446030617,-0.002151033,0.000603586,-0.000013881,0.525205314,0.222114369,9.769561768
1784152362.129553,0.021646531,-0.055515014,-0.446031660,-0.002810904,0.000348461,-0.000071633,0.494711906,0.225891888,9.797352791
1784152362.131495,0.021642568,-0.055518102,-0.446027637,-0.003186648,-0.000092508,0.000209974,0.526936233,0.216318786,9.762352943
1784152362.133498,0.021638449,-0.055521261,-0.446022600,-0.002847757,-0.000530674,0.000794531,0.520472407,0.240394607,9.790746689
1784152362.135502,0.021635626,-0.055524740,-0.446015298,-0.002511198,-0.000870168,0.001437026,0.531678319,0.237321824,9.761595726
1784152362.137497,0.021636562,-0.055523533,-0.446011335,-0.001973413,-0.000832100,0.001816873,0.547219992,0.224892080,9.780360222
1784152362.139498,0.021626592,-0.055523608,-0.446009040,-0.002084785,-0.000581070,0.001787151,0.529914737,0.278423101,9.781583786
1784152362.141497,0.021623475,-0.055528678,-0.446010917,-0.002404131,-0.000771287,0.001383954,0.520553827,0.283490419,9.778916359
1784152362.143506,0.021629389,-0.055531163,-0.446008950,-0.001807675,-0.001170343,0.001017888,0.525486529,0.283808380,9.788339615
1784152362.145501,0.021631055,-0.055529695,-0.446009129,-0.001043079,-0.001015184,0.000844480,0.511959732,0.276572227,9.759137154
1784152362.147503,0.021628307,-0.055520605,-0.446012169,-0.001056080,-0.000174156,0.000414424,0.541635156,0.245569885,9.780935287
1784152362.149505,0.021620685,-0.055519801,-0.446013391,-0.001698824,0.000391578,0.000063761,0.547959685,0.248663262,9.775582314
1784152362.151509,0.021615434,-0.055522200,-0.446014822,-0.002119902,0.000172563,-0.000086824,0.583797693,0.204885274,9.755608559
1784152362.153508,0.021603903,-0.055532988,-0.446022928,-0.002667228,-0.000593600,-0.000651580,0.561835408,0.208194569,9.770853043
1784152362.155508,0.021603283,-0.055536319,-0.446030766,-0.002776373,-0.001224094,-0.001514237,0.551270425,0.226152435,9.784854889
1784152362.157514,0.021603595,-0.055534966,-0.446032733,-0.002217196,-0.001062641,-0.001759113,0.522572041,0.226666659,9.764208794
1784152362.159534,0.021593023,-0.055534936,-0.446033955,-0.002459334,-0.000707020,-0.001449810,0.512661695,0.223244429,9.759243965
1784152362.161538,0.021585947,-0.055536635,-0.446040481,-0.003016845,-0.000640064,-0.001514990,0.531544447,0.226538941,9.766009331
1784152362.163515,0.021583740,-0.055532023,-0.446043342,-0.002931182,-0.000289719,-0.001704426,0.543749094,0.235196680,9.786699295
1784152362.165545,0.021588104,-0.055528857,-0.446048468,-0.002087792,0.000298736,-0.001785176,0.525482178,0.245373413,9.774642944
1784152362.167524,0.021589434,-0.055532474,-0.446054161,-0.001334906,0.000115171,-0.002045762,0.546144307,0.246497333,9.768392563
1784152362.169539,0.021590684,-0.055534769,-0.446061909,-0.001007091,-0.000393162,-0.002400500,0.554536641,0.198831692,9.777509689
1784152362.171524,0.021594498,-0.055533454,-0.446067005,-0.000438608,-0.000371160,-0.002638161,0.542300880,0.187902361,9.761288643
1784152362.173567,0.021590546,-0.055529561,-0.446065277,-0.000220233,0.000074975,-0.002159345,0.496324688,0.209437415,9.777074814
1784152362.175533,0.021589769,-0.055535078,-0.446070731,-0.000373566,-0.000064631,-0.001813617,0.517729521,0.236381546,9.792958260
1784152362.177536,0.021587554,-0.055540197,-0.446075410,-0.000654974,-0.000899923,-0.001981307,0.523498654,0.230127558,9.779922485
1784152362.179534,0.021588262,-0.055537742,-0.446082056,-0.000763514,-0.000968934,-0.002190567,0.538844109,0.235908210,9.758455276
1784152362.181539,0.021589141,-0.055532556,-0.446091115,-0.000507603,-0.000210863,-0.002662907,0.536227763,0.205840886,9.769916534
1784152362.183548,0.021585528,-0.055536062,-0.446099281,-0.000525484,-0.000177836,-0.003100478,0.565673709,0.228348196,9.765156746
1784152362.185533,0.021585928,-0.055542327,-0.446106791,-0.000565232,-0.000928118,-0.003315290,0.573329270,0.230900049,9.770561218
1784152362.187539,0.021589706,-0.055544317,-0.446116507,-0.000283026,-0.001153285,-0.003595856,0.571701527,0.206810072,9.758748055
1784152362.189538,0.021584217,-0.055547897,-0.446123272,-0.000473411,-0.001133500,-0.003727644,0.526263237,0.199559182,9.789144516
1784152362.191554,0.021576026,-0.055549480,-0.446133673,-0.001336253,-0.001201273,-0.003825258,0.523638606,0.204584852,9.780208588
1784152362.193542,0.021571569,-0.055546511,-0.446137607,-0.001763073,-0.000947940,-0.003713843,0.539574802,0.223232940,9.775411606
1784152362.195545,0.021569321,-0.055548776,-0.446144670,-0.001659050,-0.000805080,-0.003433682,0.573387921,0.198231295,9.764971733
1784152362.197571,0.021565259,-0.055554595,-0.446154684,-0.001639824,-0.001003839,-0.003646556,0.524404883,0.230996087,9.782171249
1784152362.199549,0.021562191,-0.055559374,-0.446157336,-0.001664469,-0.001312092,-0.003495724,0.492481500,0.263208896,9.783243179
1784152362.201548,0.021560589,-0.055563174,-0.446157545,-0.001539394,-0.001542288,-0.002717732,0.522055328,0.223298207,9.797810555
1784152362.203550,0.021563539,-0.055561446,-0.446161866,-0.001192329,-0.001477976,-0.002275636,0.566872776,0.216633096,9.772255898
1784152362.205549,0.021559920,-0.055558588,-0.446171999,-0.001114003,-0.000993169,-0.002619328,0.550949574,0.198493332,9.768537521
1784152362.207552,0.021557476,-0.055554163,-0.446182191,-0.001250378,-0.000221489,-0.003264820,0.570249021,0.197477356,9.750617027
1784152362.209546,0.021560589,-0.055556089,-0.446185023,-0.000866027,0.000026591,-0.003266688,0.542741895,0.188646272,9.781917572
1784152362.211554,0.021551706,-0.055560250,-0.446188539,-0.001045817,-0.000402688,-0.002784779,0.534981191,0.176753983,9.767038345
1784152362.213557,0.021542428,-0.055557553,-0.446194708,-0.001788283,-0.000455613,-0.002631807,0.515106320,0.203423321,9.769881248
1784152362.215561,0.021541853,-0.055555981,-0.446197748,-0.001764415,-0.000104276,-0.002517299,0.559627414,0.210529894,9.761450768
1784152362.217560,0.021542270,-0.055558939,-0.446195126,-0.001334736,-0.000054310,-0.001856716,0.533591270,0.209557638,9.756039619
1784152362.219571,0.021543650,-0.055552591,-0.446198732,-0.000891524,0.000305003,-0.001427638,0.562856972,0.181299672,9.770680428
1784152362.221558,0.021544700,-0.055554319,-0.446198195,-0.000496376,0.000530866,-0.001259558,0.567705214,0.174466133,9.777814865
1784152362.223563,0.021535117,-0.055557981,-0.446195960,-0.000758175,0.000122700,-0.000707935,0.542321980,0.189284384,9.755917549
1784152362.225564,0.021522261,-0.055565380,-0.446186721,-0.001858517,-0.000546804,0.000340263,0.531588435,0.228912294,9.747195244
1784152362.227566,0.021525627,-0.055567354,-0.446174800,-0.001992645,-0.001045491,0.001718626,0.543331444,0.197857305,9.745661736
1784152362.229565,0.021529062,-0.055568453,-0.446169257,-0.001000136,-0.000986561,0.002401901,0.537473083,0.195301518,9.737569809
1784152362.231568,0.021526050,-0.055572413,-0.446163386,-0.000657026,-0.001045206,0.002519401,0.532396495,0.220901072,9.738176346
1784152362.233577,0.021522075,-0.055576872,-0.446157008,-0.000933932,-0.001298791,0.002693246,0.541864514,0.227216795,9.778128624
1784152362.235570,0.021517020,-0.055580355,-0.446147949,-0.001262341,-0.001447489,0.003036512,0.554607868,0.240631357,9.758948326
1784152362.237591,0.021518415,-0.055579502,-0.446144342,-0.001261979,-0.001179197,0.003090487,0.558482945,0.228754580,9.783983231
1784152362.239789,0.021522693,-0.055577427,-0.446148157,-0.000677107,-0.000624534,0.002230146,0.538779318,0.194969475,9.781953812
1784152362.241604,0.021522554,-0.055578023,-0.446149796,-0.000233646,-0.000362436,0.001241598,0.556554914,0.180814564,9.787259102
1784152362.243605,0.021513546,-0.055582929,-0.446143359,-0.000640808,-0.000654142,0.001257725,0.557553828,0.189304769,9.788660049
1784152362.245625,0.021513546,-0.055582929,-0.446143359,-0.001376027,-0.001171447,0.001844737,0.557553828,0.189304769,9.788660049
1784152362.247597,0.021513833,-0.055593479,-0.446149975,-0.001256631,-0.001352278,0.001444119,0.538729608,0.190524831,9.776993752
1784152362.249593,0.021510174,-0.055594571,-0.446141690,-0.000931763,-0.001199254,0.001262548,0.556765437,0.197471783,9.775711060
1784152362.251622,0.021502044,-0.055596650,-0.446125418,-0.001385329,-0.001053524,0.002627669,0.572767019,0.185935408,9.794033051
1784152362.253605,0.021494392,-0.055594388,-0.446117818,-0.001911610,-0.000675040,0.003587249,0.569102228,0.215682954,9.775839806
1784152362.255630,0.021492019,-0.055596195,-0.446113497,-0.001949495,-0.000397952,0.003456465,0.562318861,0.209678978,9.750239372
1784152362.257618,0.021499481,-0.055601981,-0.446100056,-0.001025368,-0.000730439,0.003702711,0.543204904,0.226748392,9.778574944
1784152362.259614,0.021501942,-0.055604868,-0.446087062,0.000007505,-0.001033959,0.004441934,0.519401014,0.224848285,9.773609161
1784152362.261604,0.021505695,-0.055610169,-0.446083218,0.000489882,-0.001284283,0.004348045,0.552321613,0.202733099,9.799949646
1784152362.263628,0.021508578,-0.055610321,-0.446073234,0.000861405,-0.001321647,0.004081918,0.529192865,0.217608497,9.765949249
1784152362.265607,0.021508753,-0.055605862,-0.446056366,0.000938463,-0.000668232,0.004776070,0.572748423,0.183762386,9.784604073
1784152362.267605,0.021508159,-0.055607893,-0.446049631,0.000832406,-0.000189150,0.005064890,0.541736186,0.216881886,9.782545090
1784152362.269615,0.021503948,-0.055607151,-0.446049929,0.000393173,-0.000117256,0.004135910,0.539428651,0.209921315,9.757392883
1784152362.271622,0.021502012,-0.055609800,-0.446053386,-0.000143903,-0.000220438,0.002790029,0.539868772,0.211468935,9.791027069
1784152362.273612,0.021508571,-0.055614375,-0.446058333,0.000148827,-0.000660751,0.001447585,0.550091624,0.201653257,9.766763687
1784152362.275611,0.021509446,-0.055618290,-0.446055144,0.000577208,-0.001058487,0.000902785,0.585860252,0.190864772,9.770316124
1784152362.277613,0.021507712,-0.055625100,-0.446047753,0.000472345,-0.001259056,0.001372225,0.570033550,0.179565310,9.749605179
1784152362.279615,0.021509089,-0.055621263,-0.446047097,0.000420119,-0.000882347,0.001536640,0.560896218,0.204228476,9.763204575
1784152362.281615,0.021510951,-0.055615604,-0.446045458,0.000534290,0.000004847,0.001262932,0.559269130,0.181765005,9.774715424
1784152362.283623,0.021510659,-0.055615105,-0.446041942,0.000578877,0.000470366,0.001261039,0.550638080,0.210524052,9.778477669
1784152362.285620,0.021508552,-0.055620074,-0.446038157,0.000350059,0.000091344,0.001417710,0.547785282,0.234722406,9.783113480
1784152362.287638,0.021508649,-0.055620726,-0.446034878,0.000019485,-0.000290997,0.001530991,0.521273613,0.233139411,9.801459312
1784152362.289711,0.021516006,-0.055620581,-0.446027756,0.000432986,-0.000217707,0.001797033,0.542243183,0.221794188,9.783922195
1784152362.291655,0.021520808,-0.055622336,-0.446027488,0.001167711,-0.000257547,0.001756337,0.560198307,0.182814777,9.751410484
1784152362.293673,0.021522777,-0.055626888,-0.446026266,0.001357235,-0.000568506,0.001345483,0.531927586,0.221557930,9.772702217
1784152362.295645,0.021520557,-0.055632975,-0.446029991,0.001004410,-0.001094291,0.000809059,0.526846409,0.210746109,9.790113449
1784152362.297644,0.021517951,-0.055629075,-0.446033716,0.000355053,-0.001039226,0.000113217,0.558825076,0.219802320,9.782133102
1784152362.299648,0.021528104,-0.055626780,-0.446037591,0.000720064,-0.000431731,-0.000461412,0.569126248,0.218303949,9.785270691
1784152362.301656,0.021535236,-0.055630051,-0.446040958,0.001668740,-0.000392411,-0.000899236,0.567953169,0.195876062,9.790954590
1784152362.303642,0.021534149,-0.055627726,-0.446049869,0.001566019,-0.000263442,-0.001507718,0.562256634,0.205945835,9.771286011
1784152362.305636,0.021536540,-0.055622477,-0.446061999,0.001137035,0.000395847,-0.002526061,0.618133187,0.225343511,9.778188705
1784152362.307638,0.021535791,-0.055624098,-0.446069747,0.000805102,0.000767901,-0.003196341,0.590975463,0.205187172,9.763238907
1784152362.309671,0.021536775,-0.055623751,-0.446076959,0.000486641,0.000713675,-0.003343581,0.564577937,0.212204441,9.769087791
1784152362.311661,0.021545323,-0.055619355,-0.446089596,0.000926009,0.000813140,-0.003810040,0.559903741,0.197815895,9.784682274
1784152362.313675,0.021557489,-0.055617671,-0.446098000,0.001971316,0.001040546,-0.004274197,0.542400420,0.197198257,9.777040482
1784152362.315653,0.021561062,-0.055614624,-0.446098566,0.002440764,0.001132270,-0.003782823,0.568580091,0.172656447,9.778700829
1784152362.317694,0.021553781,-0.055614259,-0.446105868,0.001642432,0.001120504,-0.003282698,0.565007031,0.210422784,9.766834259
1784152362.319665,0.021551684,-0.055611577,-0.446109980,0.000663240,0.001081548,-0.003135785,0.543633759,0.224560082,9.770491600
1784152362.321668,0.021555977,-0.055608567,-0.446109235,0.000618992,0.001168852,-0.002521602,0.537918150,0.198103964,9.783766747
1784152362.323666,0.021555977,-0.055608567,-0.446109235,0.001038393,0.001261699,-0.001766415,0.537918150,0.198103964,9.783766747
1784152362.325662,0.021554355,-0.055605818,-0.446111709,0.000910452,0.001370120,-0.001234782,0.570554078,0.224605858,9.778588295
1784152362.327672,0.021554355,-0.055605818,-0.446111709,0.000383777,0.001489887,-0.000866007,0.570554078,0.224605858,9.778588295
1784152362.329659,0.021558894,-0.055610955,-0.446126074,0.000357315,0.001037071,-0.001213560,0.561848283,0.246696368,9.775134087
1784152362.331668,0.021576591,-0.055608597,-0.446138382,0.001008275,0.000773295,-0.001681938,0.571358800,0.252942473,9.761733055
1784152362.333669,0.021576034,-0.055600420,-0.446140468,0.001219381,0.001427169,-0.001567556,0.533066511,0.205315530,9.786499023
1784152362.335674,0.021580806,-0.055599075,-0.446144640,0.001208376,0.001689960,-0.001593992,0.548866868,0.210328043,9.746194839
1784152362.337673,0.021580370,-0.055600729,-0.446155369,0.001176262,0.001201233,-0.002194736,0.544122458,0.228922650,9.786211014
1784152362.339666,0.021576026,-0.055605993,-0.446159124,0.000478688,0.000384047,-0.002563805,0.574416459,0.211007163,9.793747902
1784152362.341670,0.021577548,-0.055608366,-0.446161062,0.000222234,-0.000217520,-0.002254645,0.570851505,0.249243721,9.778746605
1784152362.343675,0.021577924,-0.055605408,-0.446166426,0.000349106,-0.000100388,-0.002152195,0.559748948,0.221620828,9.776764870
1784152362.345674,0.021575173,-0.055603962,-0.446170151,0.000029237,0.000295926,-0.002166743,0.567373633,0.221497640,9.780357361
1784152362.347679,0.021580558,-0.055601489,-0.446179181,0.000121906,0.000546786,-0.002447811,0.572242081,0.216039807,9.783018112
1784152362.349677,0.021581858,-0.055602834,-0.446182817,0.000493883,0.000456374,-0.002671657,0.553230762,0.239593714,9.781356812
1784152362.351683,0.021585144,-0.055603556,-0.446179628,0.000508739,0.000298073,-0.001987213,0.524095178,0.241826043,9.771928787
1784152362.353683,0.021583650,-0.055605058,-0.446176529,0.000355719,0.000181641,-0.001019522,0.546409309,0.196914390,9.809770584
1784152362.355697,0.021578440,-0.055600569,-0.446174264,-0.000005617,0.000387835,-0.000367500,0.545803249,0.182709396,9.792193413
1784152362.357751,0.021572655,-0.055596109,-0.446165055,-0.000536596,0.000952257,0.000542617,0.558872461,0.222607732,9.765562057
1784152362.359699,0.021571381,-0.055594869,-0.446156055,-0.000800667,0.001107352,0.001655691,0.556111038,0.255228311,9.782805443
1784152362.361689,0.021578321,-0.055598125,-0.446142495,-0.000311310,0.000779456,0.002717905,0.549674809,0.242337018,9.780025482
1784152362.363720,0.021579815,-0.055595674,-0.446130395,0.000244550,0.000627216,0.003691087,0.524415374,0.233105525,9.800566673
1784152362.365693,0.021578413,-0.055589449,-0.446122348,0.000203595,0.001009200,0.004059093,0.538619578,0.255109489,9.767992973
1784152362.367696,0.021578213,-0.055582408,-0.446112454,0.000050865,0.001595669,0.004184289,0.537667930,0.252261519,9.792183876
1784152362.369699,0.021579133,-0.055580899,-0.446104437,0.000153872,0.001768717,0.004256365,0.552351832,0.278961569,9.791472435
1784152362.371696,0.021580286,-0.055581488,-0.446095049,0.000079447,0.001446522,0.004288085,0.543912649,0.285424948,9.779849052
1784152362.373715,0.021581549,-0.055574015,-0.446091652,0.000030300,0.001609726,0.003988485,0.546301723,0.260708094,9.785968781
1784152362.375703,0.021587640,-0.055567667,-0.446094185,0.000289664,0.002090512,0.002942332,0.559291005,0.256306589,9.751432419
1784152362.377698,0.021593804,-0.055565469,-0.446093619,0.000800616,0.002078521,0.001980144,0.577581346,0.210751086,9.761019707
1784152362.379695,0.021592097,-0.055563252,-0.446090877,0.000898008,0.001818435,0.001656451,0.546526551,0.203513384,9.763633728
1784152362.381700,0.021588897,-0.055562362,-0.446089476,0.000389032,0.001526671,0.001509411,0.552197933,0.227999553,9.775454521
1784152362.383702,0.021590365,-0.055558212,-0.446090549,0.000219136,0.001439612,0.001132536,0.529926002,0.242948905,9.792564392
1784152362.385706,0.021595990,-0.055553984,-0.446088433,0.000513296,0.001569565,0.000877779,0.553794861,0.248604432,9.773344994
1784152362.387707,0.021598568,-0.055556290,-0.446086735,0.000812872,0.001230227,0.000870427,0.544302225,0.242904842,9.772850990
1784152362.389706,0.021604087,-0.055552553,-0.446083963,0.001157775,0.000999437,0.000901468,0.519559860,0.238665149,9.783559799
1784152362.391702,0.021608612,-0.055541556,-0.446077287,0.001398708,0.001621282,0.001271450,0.544781625,0.208387613,9.774423599
1784152362.393714,0.021607226,-0.055540904,-0.446066439,0.001136787,0.001877473,0.002116844,0.535354853,0.247283205,9.803359032
1784152362.395711,0.021613974,-0.055545259,-0.446058542,0.001097994,0.001090068,0.002799727,0.507503331,0.241308153,9.748596191
1784152362.397712,0.021612855,-0.055545788,-0.446052581,0.001069543,0.000428450,0.002971777,0.528496444,0.236227676,9.795209885
1784152362.399710,0.021611944,-0.055546220,-0.446050227,0.000673334,0.000258717,0.002737220,0.527689993,0.279411316,9.772621155
1784152362.401711,0.021612287,-0.055543449,-0.446048349,0.000242668,0.000318252,0.002296366,0.548438072,0.251323014,9.778737068
1784152362.403718,0.021610651,-0.055541988,-0.446046948,-0.000123811,0.000488518,0.001921676,0.540136874,0.270627797,9.788268089
1784152362.405715,0.021616673,-0.055539776,-0.446053386,0.000008782,0.000647898,0.001053840,0.557427645,0.251735508,9.767540932
1784152362.407725,0.021621887,-0.055531580,-0.446058363,0.000545282,0.001212118,-0.000044521,0.525892317,0.243442267,9.793459892
1784152362.409717,0.021619419,-0.055527106,-0.446060449,0.000556840,0.001733238,-0.000519722,0.550332844,0.221388996,9.763303757
1784152362.411721,0.021617705,-0.055529367,-0.446060598,0.000050567,0.001414237,-0.000509574,0.547555506,0.214672253,9.767741203
1784152362.413725,0.021619529,-0.055527959,-0.446068227,-0.000048441,0.000965383,-0.000900100,0.555676877,0.216948479,9.748038292
1784152362.415722,0.021622568,-0.055523667,-0.446081877,0.000230656,0.001144343,-0.002119910,0.545055687,0.229194149,9.746313095
1784152362.417726,0.021619182,-0.055517774,-0.446086347,0.000093217,0.001582935,-0.002772680,0.539480269,0.216001987,9.784331322
1784152362.419724,0.021618398,-0.055520002,-0.446086377,-0.000231574,0.001395134,-0.002312705,0.518912435,0.221702397,9.775829315
1784152362.421727,0.021617623,-0.055527095,-0.446087092,-0.000226205,0.000282209,-0.001729947,0.509632468,0.234702721,9.791596413
1784152362.423766,0.021616528,-0.055528812,-0.446086347,-0.000240114,-0.000492687,-0.001251087,0.534853339,0.242818922,9.801982880
1784152362.425733,0.021618143,-0.055529479,-0.446083516,-0.000245157,-0.000536707,-0.000664661,0.536382973,0.257219046,9.790419579
1784152362.427732,0.021617053,-0.055531189,-0.446082771,-0.000248830,-0.000568776,-0.000237456,0.514587998,0.236011982,9.787572861
1784152362.429732,0.021621667,-0.055526972,-0.446087420,0.000042728,-0.000250114,-0.000447371,0.509096444,0.265124768,9.798962593
1784152362.431740,0.021628127,-0.055519160,-0.446090102,0.000604699,0.000483786,-0.000849666,0.502041638,0.237929851,9.792505264
1784152362.433741,0.021632651,-0.055517104,-0.446084291,0.001047190,0.000887757,-0.000439389,0.512389123,0.238013819,9.762029648
1784152362.435737,0.021633683,-0.055513408,-0.446087539,0.001077975,0.000969310,-0.000160206,0.526648223,0.228940576,9.752120972
1784152362.437737,0.021630054,-0.055510018,-0.446097404,0.000488765,0.001095623,-0.000986377,0.501400828,0.220614538,9.771322250
1784152362.439748,0.021633552,-0.055503849,-0.446096122,0.000314678,0.001435107,-0.001297621,0.540190160,0.237511098,9.782676697
1784152362.441741,0.021638790,-0.055501685,-0.446098030,0.000746126,0.001583303,-0.001018573,0.532787859,0.218010440,9.765955925
1784152362.443742,0.021631721,-0.055502076,-0.446104616,0.000315282,0.001234306,-0.001306418,0.532246292,0.211204588,9.778912544
1784152362.445747,0.021622710,-0.055498984,-0.446115077,-0.000936863,0.001047390,-0.002040729,0.544736207,0.240351215,9.753108978
1784152362.447750,0.021625893,-0.055497184,-0.446127713,-0.001177458,0.001050744,-0.003025117,0.535859048,0.249336421,9.765710831
1784152362.449745,0.021623090,-0.055497348,-0.446134090,-0.000903497,0.000848801,-0.003489934,0.552378058,0.242794976,9.773754120
1784152362.451747,0.021621995,-0.055494480,-0.446139008,-0.001047169,0.000846062,-0.003286734,0.523437440,0.225997359,9.793794632
1784152362.453751,0.021620916,-0.055489060,-0.446146607,-0.001039046,0.001221387,-0.003226683,0.523012936,0.190630674,9.790429115
1784152362.455759,0.021619245,-0.055486985,-0.446153313,-0.000872256,0.001295857,-0.003310152,0.507624924,0.179245919,9.780926704
1784152362.457784,0.021614259,-0.055489279,-0.446159273,-0.001009820,0.000830150,-0.003247904,0.513368428,0.211595103,9.821040154
1784152362.459765,0.021608677,-0.055491839,-0.446164101,-0.001492580,0.000260138,-0.003060036,0.505228043,0.241085723,9.784010887
1784152362.461758,0.021606311,-0.055485036,-0.446161389,-0.001713057,0.000397909,-0.002342229,0.518169940,0.233878821,9.766043663
1784152362.463785,0.021607827,-0.055485085,-0.446163982,-0.001383884,0.000672210,-0.001691204,0.523677230,0.208537012,9.791440964
1784152362.465762,0.021611189,-0.055485740,-0.446164876,-0.000660946,0.000346509,-0.001489876,0.525746942,0.230136961,9.774545670
1784152362.467772,0.021604721,-0.055487160,-0.446163446,-0.000660306,0.000023035,-0.001037646,0.510827243,0.222549185,9.797347069
1784152362.469774,0.021602552,-0.055481203,-0.446161211,-0.001052302,0.000330156,-0.000471128,0.520705938,0.220453158,9.759234428
1784152362.471771,0.021600543,-0.055479154,-0.446157068,-0.001010685,0.000747359,0.000105639,0.510870695,0.223702639,9.761040688
1784152362.473774,0.021594966,-0.055483174,-0.446157694,-0.001222373,0.000371033,0.000341115,0.529905796,0.238736391,9.754878044
1784152362.475772,0.021596316,-0.055478953,-0.446163833,-0.001282935,0.000244184,-0.000190394,0.531916320,0.219442114,9.755206108
1784152362.477768,0.021595271,-0.055476144,-0.446163177,-0.001014810,0.000615946,-0.000502304,0.511193633,0.213787690,9.768598557
1784152362.479768,0.021593811,-0.055472225,-0.446154982,-0.000875676,0.000917398,0.000245352,0.550463200,0.234169990,9.792976379
1784152362.481774,0.021594476,-0.055472076,-0.446160078,-0.000739738,0.000905076,0.000391635,0.546987832,0.242412820,9.774196625
1784152362.483776,0.021594817,-0.055473220,-0.446170211,-0.000587569,0.000525180,-0.000749357,0.535674155,0.233692750,9.760679245
1784152362.485780,0.021596076,-0.055472530,-0.446174711,-0.000403900,0.000301421,-0.001544042,0.528378427,0.225975439,9.787970543
1784152362.487783,0.021593468,-0.055479720,-0.446176529,-0.000438490,-0.000259293,-0.001547788,0.540704548,0.205297276,9.775297165
1784152362.489779,0.021596016,-0.055487834,-0.446175396,-0.000326010,-0.001229552,-0.001174340,0.561991692,0.221585691,9.777662277
1784152362.491819,0.021602588,-0.055492949,-0.446181744,0.000373792,-0.001724945,-0.001243112,0.536325455,0.177937537,9.787221909
1784152362.493796,0.021596845,-0.055496115,-0.446183980,0.000309039,-0.001754435,-0.001490848,0.531096101,0.189767987,9.771151543
1784152362.495790,0.021591291,-0.055498697,-0.446181923,-0.000498162,-0.001699489,-0.001058341,0.546809375,0.190040156,9.767582893
1784152362.497786,0.021588666,-0.055495869,-0.446181506,-0.000865154,-0.001248860,-0.000578159,0.536701083,0.208865926,9.784729958
1784152362.499787,0.021588476,-0.055492114,-0.446176976,-0.000802357,-0.000457047,-0.000080830,0.530215740,0.191939801,9.782374382
1784152362.501785,0.021582996,-0.055493042,-0.446168691,-0.000814295,-0.000080910,0.000821813,0.523444474,0.189678118,9.797595978
1784152362.503793,0.021580271,-0.055494081,-0.446162820,-0.000989475,-0.000129753,0.001585627,0.515565097,0.167933866,9.782207489
1784152362.505798,0.021579813,-0.055496927,-0.446160883,-0.000740045,-0.000508616,0.001689449,0.535023391,0.219944865,9.804975510
1784152362.507790,0.021575170,-0.055501804,-0.446159363,-0.000705204,-0.001051247,0.001474534,0.513193429,0.232404202,9.793376923
1784152362.509795,0.021568958,-0.055497553,-0.446151942,-0.001216138,-0.000795228,0.001717887,0.525612652,0.255724192,9.767983437
1784152362.511793,0.021566940,-0.055498116,-0.446144551,-0.001550220,-0.000341579,0.002293856,0.529794037,0.230965242,9.776796341
1784152362.513803,0.021569816,-0.055500016,-0.446147859,-0.001217911,-0.000444640,0.001953767,0.553357542,0.213135988,9.784325600
1784152362.515799,0.021572415,-0.055497814,-0.446153432,-0.000519334,-0.000303117,0.000805357,0.558759987,0.214020193,9.776266098
1784152362.517797,0.021567360,-0.055498537,-0.446148634,-0.000517065,-0.000108101,0.000546117,0.548437059,0.251720101,9.785913467
1784152362.519800,0.021568149,-0.055501588,-0.446148306,-0.000646820,-0.000327037,0.000752184,0.545428216,0.223723859,9.758831978
1784152362.521804,0.021571752,-0.055506665,-0.446157545,-0.000289941,-0.000755409,-0.000073278,0.516334534,0.192343771,9.750533104
1784152362.523807,0.021569997,-0.055515949,-0.446160674,-0.000214910,-0.001496131,-0.000893921,0.511005640,0.160935268,9.766465187
1784152362.525805,0.021566527,-0.055521391,-0.446152091,-0.000328062,-0.002239446,-0.000265630,0.528213680,0.174927548,9.784056664
1784152362.527806,0.021566203,-0.055521548,-0.446150541,-0.000295932,-0.002154088,0.000502629,0.544619858,0.194548532,9.767609596
1784152362.529810,0.021566687,-0.055520516,-0.446153462,-0.000210140,-0.001511733,0.000271349,0.547165811,0.221222550,9.792440414
1784152362.531895,0.021564616,-0.055519223,-0.446151793,-0.000236912,-0.000934938,0.000121381,0.539400518,0.209698766,9.788773537
1784152362.533820,0.021561429,-0.055526160,-0.446143538,-0.000462808,-0.001039259,0.000785108,0.553045213,0.185950279,9.764426231
1784152362.535820,0.021556720,-0.055532556,-0.446135789,-0.000724420,-0.001638732,0.001680747,0.526012421,0.176910296,9.761201859
1784152362.537813,0.021559916,-0.055530868,-0.446134835,-0.000509759,-0.001500627,0.001813555,0.504863381,0.211459890,9.792338371
1784152362.539815,0.021565897,-0.055528108,-0.446135640,0.000251340,-0.000790803,0.001300897,0.504996777,0.222239554,9.788372993
1784152362.541828,0.021568581,-0.055523798,-0.446140289,0.000789405,-0.000199205,0.000548733,0.533406317,0.233934149,9.793855667
1784152362.543819,0.021567747,-0.055526700,-0.446135104,0.000742341,-0.000144137,0.000431240,0.533577025,0.209039733,9.765898705
1784152362.545818,0.021562429,-0.055531871,-0.446123958,0.000193531,-0.000627202,0.001443076,0.562748134,0.211140782,9.795977592
1784152362.547820,0.021561092,-0.055529218,-0.446118176,-0.000238423,-0.000601001,0.002218348,0.548566520,0.224878058,9.779913902
1784152362.549825,0.021560099,-0.055527844,-0.446114033,-0.000294135,-0.000149738,0.002298545,0.561959028,0.218491346,9.771815300
1784152362.551835,0.021557108,-0.055531397,-0.446113706,-0.000536428,-0.000158594,0.001993730,0.536864400,0.221097618,9.765531540
1784152362.553836,0.021564024,-0.055531599,-0.446112812,-0.000189197,-0.000277138,0.001519158,0.557823241,0.209263057,9.753818512
1784152362.555834,0.021564474,-0.055530570,-0.446113318,0.000374203,-0.000096414,0.001103211,0.571098149,0.231837437,9.768770218
1784152362.557835,0.021559753,-0.055532191,-0.446114451,-0.000011808,-0.000063612,0.000708123,0.542487264,0.242768869,9.795264244
1784152362.559838,0.021559604,-0.055536874,-0.446121395,-0.000369162,-0.000486219,-0.000015547,0.544531405,0.226981968,9.806374550
1784152362.561838,0.021561416,-0.055544343,-0.446126312,-0.000289230,-0.001156077,-0.000814986,0.532690167,0.211970747,9.796402931
1784152362.563839,0.021557610,-0.055547494,-0.446129769,-0.000465470,-0.001535088,-0.001144409,0.540076613,0.191730648,9.794038773
1784152362.565840,0.021552637,-0.055549823,-0.446128130,-0.000880900,-0.001504879,-0.000931844,0.541076839,0.202257171,9.824146271
1784152362.567842,0.021554934,-0.055556357,-0.446126997,-0.000752667,-0.001705279,-0.000488719,0.549876750,0.221740931,9.777652740
1784152362.569837,0.021560941,-0.055559646,-0.446129382,0.000009837,-0.001910599,-0.000472054,0.556396127,0.203777596,9.771716118
1784152362.571843,0.021569846,-0.055558227,-0.446135461,0.001042873,-0.001486138,-0.000979460,0.552785337,0.204061702,9.801303864
1784152362.573846,0.021569969,-0.055556189,-0.446136594,0.001401322,-0.000813353,-0.001239390,0.535689116,0.235837132,9.774143219
1784152362.575842,0.021566840,-0.055555981,-0.446138859,0.000665160,-0.000512466,-0.001106452,0.559297502,0.221604303,9.779903412
1784152362.577843,0.021566570,-0.055556770,-0.446152240,0.000056216,-0.000503388,-0.001841278,0.519484401,0.231180161,9.765130043
1784152362.579847,0.021566598,-0.055565055,-0.446153671,-0.000031351,-0.001004813,-0.002342752,0.531850159,0.252457082,9.775141716
1784152362.581846,0.021562209,-0.055564571,-0.446150899,-0.000476720,-0.001300846,-0.001589079,0.552022278,0.213239104,9.772219658
1784152362.583853,0.021565758,-0.055564828,-0.446156293,-0.000577672,-0.000977166,-0.001325505,0.568395793,0.192175686,9.743408203
1784152362.585851,0.021566948,-0.055568635,-0.446158826,-0.000055396,-0.000907352,-0.001530612,0.567762256,0.178564548,9.768425941
1784152362.587855,0.021565994,-0.055567641,-0.446159929,0.000036043,-0.000765262,-0.001373100,0.549693346,0.170140162,9.788530350
1784152362.589871,0.021565413,-0.055572405,-0.446163982,-0.000097755,-0.000821030,-0.001349819,0.537588835,0.207968041,9.783380508
1784152362.591866,0.021562336,-0.055573437,-0.446171254,-0.000286768,-0.001056114,-0.001749280,0.555761635,0.227343470,9.798317909
1784152362.593861,0.021563960,-0.055571739,-0.446170658,-0.000257613,-0.000781071,-0.001730651,0.539655626,0.231165901,9.793843269
1784152362.595859,0.021568120,-0.055575628,-0.446171671,0.000103797,-0.000802908,-0.001302585,0.534010887,0.208106250,9.770377159
1784152362.597867,0.021573888,-0.055583384,-0.446175367,0.000631990,-0.001467762,-0.001300819,0.534317315,0.234030783,9.778613091
1784152362.599864,0.021573648,-0.055583365,-0.446170658,0.000838924,-0.001592634,-0.000900673,0.542124748,0.211538732,9.777132034
1784152362.601876,0.021569915,-0.055579390,-0.446165860,0.000381297,-0.000960837,0.000007651,0.567396760,0.222895592,9.772746086
1784152362.603883,0.021559665,-0.055583425,-0.446164101,-0.000641821,-0.000780133,0.000504236,0.584181964,0.236287057,9.749533653
1784152362.605872,0.021554176,-0.055589009,-0.446173370,-0.001678842,-0.001071573,-0.000075522,0.579883039,0.216450423,9.774509430
1784152362.607879,0.021550264,-0.055591017,-0.446170092,-0.001999010,-0.001145028,-0.000424197,0.550568163,0.241483644,9.772398949
1784152362.609876,0.021550737,-0.055590127,-0.446168303,-0.001670213,-0.000903040,0.000046409,0.537367165,0.227598265,9.795611382
1784152362.611877,0.021555109,-0.055591393,-0.446167856,-0.000887787,-0.000731279,0.000173456,0.528632402,0.247433037,9.794385910
1784152362.613877,0.021554377,-0.055590287,-0.446163625,-0.000390311,-0.000588369,0.000428458,0.567790747,0.218810514,9.779443741
1784152362.615883,0.021552373,-0.055584744,-0.446162969,-0.000491036,0.000168483,0.000653229,0.595499694,0.209475726,9.782101631
1784152362.617883,0.021556644,-0.055582002,-0.446161896,-0.000237250,0.000825746,0.000583409,0.586977184,0.208797172,9.766845703
1784152362.619887,0.021563116,-0.055587176,-0.446163416,0.000553403,0.000435169,0.000348146,0.583314836,0.203810647,9.781604767
1784152362.621887,0.021566186,-0.055587247,-0.446162075,0.001092794,0.000114921,0.000194555,0.568285584,0.222410724,9.776329994
1784152362.623885,0.021563880,-0.055582542,-0.446162254,0.000896025,0.000553179,0.000211832,0.560616255,0.182160750,9.779651642
1784152362.625887,0.021564687,-0.055583224,-0.446163952,0.000697360,0.000730265,0.000024968,0.556765199,0.199495360,9.806209564
1784152362.627893,0.021565534,-0.055583209,-0.446168721,0.000748780,0.000535161,-0.000437586,0.558745444,0.214715764,9.804515839
1784152362.629894,0.021564243,-0.055585667,-0.446169376,0.000494802,0.000215628,-0.000685745,0.539335608,0.241103113,9.783145905
1784152362.631899,0.021563375,-0.055582583,-0.446162045,0.000165101,0.000159312,-0.000035390,0.538970292,0.247440726,9.774668694
1784152362.633898,0.021564459,-0.055578224,-0.446161002,0.000092439,0.000583795,0.000549558,0.589070797,0.234638244,9.783602715
1784152362.635900,0.021565279,-0.055578522,-0.446158350,0.000094915,0.000930418,0.000651050,0.569062114,0.250524729,9.790856361
1784152362.637898,0.021565586,-0.055576403,-0.446162641,0.000023517,0.001023939,0.000362948,0.547056437,0.212253794,9.793729782
1784152362.639894,0.021566680,-0.055574421,-0.446162105,0.000097626,0.001019596,0.000008450,0.535608947,0.228720680,9.766924858
1784152362.641890,0.021562224,-0.055573586,-0.446158111,-0.000140604,0.000872049,0.000326592,0.528988659,0.237782031,9.764734268
1784152362.643895,0.021559257,-0.055575013,-0.446157247,-0.000587963,0.000533303,0.000592735,0.539517403,0.216701165,9.748917580
1784152362.645896,0.021560414,-0.055575136,-0.446157783,-0.000624198,0.000249402,0.000461938,0.539350033,0.242027625,9.779116631
1784152362.647902,0.021567596,-0.055579957,-0.446153194,0.000051640,-0.000182308,0.000583138,0.572653830,0.249684572,9.776508331
1784152362.649900,0.021572659,-0.055582643,-0.446148366,0.000903378,-0.000628777,0.001014251,0.562794745,0.250719696,9.774712563
1784152362.651899,0.021582237,-0.055580966,-0.446142703,0.001511067,-0.000450352,0.001403306,0.580289960,0.250867128,9.785490036
1784152362.653907,0.021584695,-0.055575561,-0.446141988,0.001761389,0.000223338,0.001418675,0.571543336,0.196239859,9.796339989
1784152362.655910,0.021580089,-0.055572655,-0.446143031,0.001258509,0.000796046,0.001014047,0.546650708,0.214219913,9.769980431
1784152362.657907,0.021579912,-0.055570628,-0.446143597,0.000709012,0.000981685,0.000645491,0.566643238,0.233769447,9.757122993
1784152362.659909,0.021586128,-0.055570506,-0.446144283,0.000920720,0.000858443,0.000358483,0.548718333,0.199024081,9.760918617
1784152362.661914,0.021588583,-0.055570506,-0.446142823,0.001344273,0.000620991,0.000275368,0.535696208,0.237514511,9.790293694
1784152362.663943,0.021585111,-0.055574417,-0.446138352,0.001016170,0.000182452,0.000609468,0.568177223,0.213044852,9.770441055
1784152362.665915,0.021587659,-0.055575419,-0.446129888,0.000704290,-0.000085115,0.001322377,0.572500527,0.237532392,9.784501076
1784152362.667948,0.021591403,-0.055571493,-0.446124077,0.000970949,0.000254284,0.001899641,0.542124927,0.247508585,9.759428978
1784152362.669924,0.021589274,-0.055570148,-0.446118712,0.000858878,0.000559940,0.002139493,0.523231506,0.244534820,9.770600319
1784152362.671921,0.021588748,-0.055570353,-0.446114600,0.000321962,0.000464084,0.002221465,0.543762684,0.236114874,9.783566475
1784152362.673920,0.021589132,-0.055566076,-0.446110636,0.000095943,0.000591129,0.002174229,0.553968668,0.227785766,9.802353859
1784152362.675916,0.021590671,-0.055558302,-0.446109802,0.000119082,0.001277067,0.001908749,0.545499325,0.268763810,9.788709641
1784152362.677919,0.021592302,-0.055554483,-0.446108878,0.000208388,0.001741315,0.001498645,0.575042069,0.262551308,9.790043831
1784152362.679925,0.021596139,-0.055551164,-0.446109504,0.000523310,0.001753497,0.001090159,0.574445784,0.249639332,9.779648781
1784152362.681970,0.021599591,-0.055550650,-0.446113437,0.000625980,0.001675734,0.000466964,0.560694516,0.225231156,9.771409988
1784152362.683934,0.021591080,-0.055550013,-0.446108639,-0.000115743,0.001445351,0.000425900,0.550562501,0.242249191,9.790785789
1784152362.685992,0.021585826,-0.055547796,-0.446108788,-0.001144331,0.001335010,0.000684358,0.559704244,0.219241112,9.796475410
1784152362.687937,0.021579640,-0.055542473,-0.446111053,-0.001762605,0.001562189,0.000387166,0.549185336,0.203214929,9.800847054
1784152362.689981,0.021578548,-0.055538509,-0.446104676,-0.001761441,0.001774270,0.000586832,0.543143809,0.220998049,9.768225670
1784152362.691957,0.021582907,-0.055535357,-0.446092218,-0.001041670,0.001735159,0.001689097,0.567676127,0.245363608,9.763027191
1784152362.693945,0.021575475,-0.055531956,-0.446091652,-0.000969024,0.001659753,0.002130070,0.579370856,0.247060016,9.755426407
1784152362.695951,0.021572232,-0.055528056,-0.446098059,-0.001579506,0.001853600,0.001206071,0.545984864,0.270670742,9.771686554
1784152362.697940,0.021573942,-0.055518784,-0.446102172,-0.001422460,0.002386522,0.000175050,0.558239996,0.245379403,9.777812004
1784152362.699940,0.021581493,-0.055511966,-0.446106285,-0.000439921,0.002818722,-0.000466103,0.548682630,0.234710917,9.783114433
1784152362.701942,0.021591462,-0.055509113,-0.446112990,0.000706137,0.002752170,-0.001133187,0.536796153,0.214479938,9.751142502
1784152362.703947,0.021595987,-0.055503480,-0.446111143,0.001358456,0.002631113,-0.001204654,0.551575840,0.177294090,9.787233353
1784152362.705940,0.021592103,-0.055503089,-0.446104884,0.001179034,0.002400345,-0.000337909,0.517872930,0.210460827,9.783377647
1784152362.707945,0.021592289,-0.055503782,-0.446103126,0.000754334,0.001803310,0.000308701,0.550952613,0.198922187,9.771230698
1784152362.709943,0.021591090,-0.055509105,-0.446096539,0.000512344,0.000917559,0.000795397,0.566626191,0.197666094,9.793654442
1784152362.711946,0.021585815,-0.055508900,-0.446094155,0.000066101,0.000400871,0.001204392,0.576472163,0.231685773,9.780431747
1784152362.713949,0.021582024,-0.055505458,-0.446096539,-0.000468263,0.000606353,0.000909541,0.534801483,0.237951756,9.793433189
1784152362.715950,0.021584030,-0.055503301,-0.446096897,-0.000603368,0.000808519,0.000496871,0.543908060,0.284983337,9.778948784
1784152362.717955,0.021583041,-0.055503640,-0.446088433,-0.000471029,0.000714890,0.000917342,0.549371064,0.255644888,9.799389839
1784152362.719960,0.021579450,-0.055508003,-0.446086586,-0.000614722,0.000216295,0.001383338,0.520548701,0.247885928,9.808278084
1784152362.721959,0.021578643,-0.055507679,-0.446089476,-0.000899538,-0.000248330,0.000963784,0.543371320,0.203035682,9.773489952
1784152362.724000,0.021576555,-0.055501692,-0.446088523,-0.001008851,0.000114549,0.000589999,0.540574670,0.195356280,9.787338257
1784152362.725977,0.021573002,-0.055494394,-0.446090072,-0.001082074,0.000990252,0.000411376,0.562374592,0.217008159,9.790635109
1784152362.727968,0.021574017,-0.055491529,-0.446092665,-0.000938275,0.001411627,0.000027633,0.565326869,0.237668902,9.778217316
1784152362.729992,0.021572094,-0.055491537,-0.446095765,-0.000766399,0.001214556,-0.000362933,0.531183958,0.198971674,9.799905777
1784152362.731975,0.021563007,-0.055491678,-0.446100056,-0.001330175,0.000880873,-0.000721817,0.535620153,0.192839876,9.772073746
1784152362.733970,0.021554125,-0.055490423,-0.446107209,-0.002227633,0.000716583,-0.001236320,0.542830586,0.197046235,9.797660828
1784152362.735976,0.021553790,-0.055487979,-0.446105689,-0.002265449,0.000786035,-0.001248061,0.557324290,0.206441134,9.773527145
1784152362.737969,0.021558242,-0.055487275,-0.446108192,-0.001371799,0.000807038,-0.000984539,0.532514334,0.232773453,9.769637108
1784152362.739967,0.021557603,-0.055489957,-0.446110904,-0.000760341,0.000446553,-0.001083551,0.523396850,0.220409155,9.760581970
1784152362.741982,0.021559719,-0.055486634,-0.446108192,-0.000477508,0.000273480,-0.000794404,0.508141696,0.220204353,9.753840446
1784152362.743987,0.021561271,-0.055484433,-0.446106315,-0.000105788,0.000485714,-0.000274734,0.515890419,0.194817901,9.781482697
1784152362.745977,0.021561820,-0.055479638,-0.446110040,0.000095096,0.000769730,-0.000328793,0.543576896,0.219248131,9.761490822
1784152362.747974,0.021562824,-0.055474266,-0.446107239,0.000207488,0.001192657,-0.000312870,0.542736232,0.224164948,9.764660835
1784152362.749973,0.021559922,-0.055474207,-0.446102709,0.000050214,0.001247804,0.000274598,0.537699997,0.217356160,9.786130905
1784152362.751985,0.021560166,-0.055476077,-0.446100086,-0.000196760,0.000749429,0.000699352,0.560512602,0.210016400,9.769069672
1784152362.753981,0.021554582,-0.055477329,-0.446104735,-0.000593324,0.000284473,0.000394107,0.550910115,0.232934847,9.776827812
1784152362.755984,0.021555651,-0.055478834,-0.446111947,-0.000915598,0.000058207,-0.000495604,0.527352750,0.250001699,9.750464439
1784152362.757980,0.021555673,-0.055480655,-0.446107417,-0.000736174,-0.000132744,-0.000547527,0.516721785,0.226201236,9.777200699
1784152362.759993,0.021558644,-0.055477772,-0.446111560,-0.000332023,-0.000024026,-0.000384967,0.535068333,0.221921131,9.778985023
1784152362.761988,0.021561531,-0.055475142,-0.446122259,-0.000014319,0.000313220,-0.001294022,0.510943472,0.229545236,9.758387566
1784152362.763989,0.021561919,-0.055474166,-0.446123600,0.000052569,0.000433463,-0.001758650,0.517881513,0.210934237,9.779794693
1784152362.765999,0.021559641,-0.055473939,-0.446122646,-0.000064693,0.000391984,-0.001303830,0.554324269,0.218535021,9.779430389
1784152362.767998,0.021558806,-0.055473149,-0.446125954,-0.000240405,0.000345516,-0.001099095,0.550291657,0.219847962,9.791090965
1784152362.769991,0.021565333,-0.055469986,-0.446131438,0.000177243,0.000506649,-0.001417341,0.562293589,0.209478647,9.778483391
1784152362.771999,0.021565830,-0.055469386,-0.446133524,0.000591358,0.000766398,-0.001576005,0.525309205,0.232255340,9.792491913
1784152362.773998,0.021564361,-0.055466395,-0.446139276,0.000350417,0.000943364,-0.001674469,0.532222390,0.210610345,9.799532890
1784152362.776001,0.021568298,-0.055467218,-0.446139842,0.000442943,0.000798850,-0.001657037,0.524206161,0.216054380,9.804491043
1784152362.778002,0.021567104,-0.055470955,-0.446142435,0.000541111,0.000241933,-0.001430184,0.507030487,0.205559969,9.799027443
1784152362.779999,0.021564642,-0.055473600,-0.446145833,0.000123704,-0.000265502,-0.001428734,0.521639109,0.188808382,9.797141075
1784152362.781999,0.021563062,-0.055471871,-0.446146190,-0.000123558,-0.000366672,-0.001281677,0.530201912,0.191425070,9.791786194
1784152362.784003,0.021556899,-0.055464037,-0.446152925,-0.000566752,0.000265761,-0.001387653,0.551234901,0.221819103,9.764204025
1784152362.786005,0.021552121,-0.055463824,-0.446151882,-0.001196833,0.000765127,-0.001356817,0.533321679,0.224755898,9.761516571
1784152362.788010,0.021550858,-0.055464167,-0.446161866,-0.001335892,0.000568925,-0.001571639,0.540915370,0.187608004,9.805221558
1784152362.790012,0.021555766,-0.055460207,-0.446166933,-0.000782914,0.000637696,-0.002177210,0.533499658,0.203565612,9.779762268
1784152362.792014,0.021562161,-0.055460118,-0.446170032,0.000251853,0.000696324,-0.002184067,0.533632219,0.212312177,9.746641159
1784152362.794014,0.021563316,-0.055463251,-0.446176142,0.000747426,0.000256172,-0.002246319,0.531128466,0.228829011,9.759746552
1784152362.796021,0.021560065,-0.055466365,-0.446182489,0.000329130,-0.000270954,-0.002474576,0.552071452,0.216463879,9.759687424
1784152362.798017,0.021555193,-0.055466212,-0.446180671,-0.000354072,-0.000420321,-0.002080546,0.529218614,0.183058843,9.772900581
1784152362.800027,0.021552579,-0.055463914,-0.446180552,-0.000758134,-0.000136816,-0.001357921,0.533513010,0.205697313,9.795020103
1784152362.802028,0.021556325,-0.055464927,-0.446182728,-0.000456303,-0.000042828,-0.001138057,0.544294178,0.205251247,9.775300026
1784152362.804028,0.021558272,-0.055460822,-0.446182728,0.000072334,0.000148418,-0.000994766,0.509530365,0.225791216,9.784813881
1784152362.806027,0.021553986,-0.055457324,-0.446183771,-0.000082861,0.000508891,-0.000781695,0.553321183,0.208796278,9.764572144
1784152362.808033,0.021547947,-0.055462752,-0.446181267,-0.000727714,0.000128038,-0.000432336,0.531849921,0.215270594,9.774904251
1784152362.810028,0.021549033,-0.055470128,-0.446177840,-0.000843219,-0.000766972,0.000108120,0.508436263,0.246440113,9.781357765
1784152362.812025,0.021557037,-0.055465724,-0.446176708,-0.000143949,-0.000904561,0.000361533,0.526920080,0.216191575,9.780284882
1784152362.814033,0.021559913,-0.055462211,-0.446174443,0.000482147,-0.000267531,0.000460176,0.532259285,0.213333085,9.794618607
1784152362.816046,0.021559436,-0.055464622,-0.446177989,0.000501533,-0.000120967,0.000240744,0.546520710,0.240652174,9.770597458
1784152362.818032,0.021558652,-0.055466179,-0.446182549,0.000241652,-0.000368459,-0.000372814,0.570936263,0.219211832,9.780346870
1784152362.820038,0.021557787,-0.055467777,-0.446176529,0.000069628,-0.000480929,-0.000169514,0.548003495,0.215876862,9.786580086
1784152362.822035,0.021558536,-0.055467177,-0.446170121,0.000053151,-0.000370583,0.000719956,0.529100955,0.211209819,9.783842087
1784152362.824075,0.021558976,-0.055466305,-0.446167678,0.000115827,-0.000127460,0.001116226,0.516409099,0.238222420,9.788486481
1784152362.826049,0.021561390,-0.055467561,-0.446162611,0.000177054,-0.000201950,0.001313268,0.536307812,0.248520583,9.753602028
1784152362.828045,0.021564169,-0.055464242,-0.446163327,0.000368569,-0.000094477,0.001241324,0.552432477,0.210497901,9.778927803
1784152362.830045,0.021572847,-0.055463597,-0.446164995,0.001035896,0.000197103,0.000703542,0.558032691,0.191157639,9.779257774
1784152362.832046,0.021580355,-0.055465739,-0.446157038,0.001933202,0.000095664,0.000870284,0.567201495,0.170795977,9.790791512
1784152362.834049,0.021573972,-0.055467095,-0.446147829,0.001607321,-0.000098535,0.001783806,0.532170296,0.205336556,9.785151482
1784152362.836046,0.021570403,-0.055462096,-0.446154207,0.000543214,0.000026542,0.001528827,0.533864498,0.232788041,9.765155792
1784152362.838051,0.021574564,-0.055465478,-0.446152359,0.000454781,-0.000030418,0.000801790,0.533476770,0.201764241,9.781095505
1784152362.840052,0.021576175,-0.055467851,-0.446138471,0.000781533,-0.000390418,0.001624883,0.527136385,0.235730186,9.804619789
1784152362.842062,0.021573855,-0.055462986,-0.446126699,0.000571351,-0.000148179,0.002930617,0.535598695,0.229044586,9.784410477
1784152362.844059,0.021572839,-0.055460040,-0.446121663,0.000206420,0.000376210,0.003287723,0.551368296,0.232598752,9.760239601
1784152362.846056,0.021581130,-0.055460073,-0.446128339,0.000465617,0.000544428,0.002265835,0.550567985,0.241077036,9.766569138
1784152362.848065,0.021587975,-0.055459123,-0.446130663,0.001160361,0.000520734,0.000997887,0.519456506,0.230554134,9.790232658
1784152362.850058,0.021587975,-0.055459123,-0.446130663,0.001443931,0.000141572,0.000775851,0.536609769,0.200850338,9.777955055
1784152362.852063,0.021613961,-0.055469636,-0.446081758,0.000892717,-0.000704065,0.000736803,0.543712735,0.193402544,9.762371063
1784152362.854063,0.021613961,-0.055469636,-0.446081758,-0.000051087,-0.001547540,0.000454218,0.506353796,0.223118231,9.788379669
1784152362.856073,0.021614404,-0.055467039,-0.446081787,-0.000416010,-0.001859715,0.000286658,0.546216071,0.215147018,9.766398430
1784152362.858070,0.021614404,-0.055467039,-0.446081787,-0.000226253,-0.001680275,0.000528620,0.547451973,0.206154644,9.768583298
1784152362.860072,0.021614404,-0.055467039,-0.446081787,-0.000268704,-0.001529829,0.000740812,0.569318235,0.195198178,9.757774353
1784152362.862070,0.021613078,-0.055469073,-0.446081728,-0.000113048,-0.001039944,0.000193787,0.545622826,0.240253881,9.765213966
1784152362.864070,0.021613078,-0.055469073,-0.446081728,0.000600342,-0.000400886,-0.000310500,0.555726945,0.223016441,9.776769638
1784152362.866071,0.021613427,-0.055469926,-0.446081728,0.001038295,-0.000606073,0.000238907,0.563773036,0.221051157,9.786626816
1784152362.868071,0.021613427,-0.055469926,-0.446081728,0.000974118,-0.000935505,0.001305450,0.529746473,0.226536497,9.769593239
1784152362.870078,0.021613427,-0.055469926,-0.446081728,0.000531181,-0.001062230,0.001919951,0.541083813,0.236254290,9.768770218
1784152362.872080,0.021614060,-0.055470262,-0.446081728,-0.000243519,-0.001219789,0.002059645,0.540245652,0.204816893,9.780673981
1784152362.874078,0.021614060,-0.055470262,-0.446081728,-0.000588478,-0.001173171,0.001873830,0.511558890,0.243013293,9.753542900
1784152362.876089,0.021615434,-0.055468325,-0.446081728,-0.000135786,-0.001307133,0.001467872,0.550140977,0.242874593,9.766580582
1784152362.878082,0.021615434,-0.055468325,-0.446081728,0.000322998,-0.001172345,0.001209739,0.563688397,0.250272959,9.772917747
1784152362.880084,0.021615434,-0.055468325,-0.446081728,0.000206686,-0.000908079,0.001148264,0.577858567,0.234823316,9.777763367
1784152362.882087,0.021617284,-0.055470839,-0.446081728,0.000008563,-0.001199435,0.000956189,0.581484437,0.237090304,9.767470360
1784152362.884087,0.021617284,-0.055470839,-0.446081728,0.000258576,-0.001722144,0.000851265,0.554182708,0.243254915,9.768828392
1784152362.886088,0.021620300,-0.055470318,-0.446081728,0.000550787,-0.001890010,0.001083071,0.521508038,0.252821028,9.805621147
1784152362.888117,0.021620300,-0.055470318,-0.446081728,0.000549677,-0.001774895,0.001072404,0.542882562,0.239909992,9.818561554
1784152362.890116,0.021620300,-0.055470318,-0.446081728,0.000802177,-0.001745772,0.000739798,0.537925839,0.235754356,9.781765938
1784152362.892102,0.021621965,-0.055470243,-0.446081758,0.001399541,-0.001927668,0.000605334,0.541732311,0.217256740,9.792859077
1784152362.894101,0.021621965,-0.055470243,-0.446081758,0.001612826,-0.002630440,-0.000037705,0.586907685,0.241380066,9.784539223
1784152362.896096,0.021623468,-0.055472698,-0.446081728,0.001246938,-0.002954023,-0.000957227,0.597007275,0.222890958,9.783084869
1784152362.898095,0.021623468,-0.055472698,-0.446081728,0.000715549,-0.002593143,-0.001588082,0.547316134,0.232945845,9.781756401
1784152362.900097,0.021623468,-0.055472698,-0.446081728,-0.000123393,-0.002342487,-0.002192854,0.534037590,0.210342884,9.770839691
1784152362.902104,0.021623075,-0.055472374,-0.446081728,-0.000498049,-0.002053667,-0.002758819,0.533135295,0.210316241,9.776217461
1784152362.904102,0.021623075,-0.055472374,-0.446081728,0.000096890,-0.001834955,-0.003115538,0.562622249,0.199204788,9.773485184
1784152362.906102,0.021622367,-0.055473752,-0.446081728,0.000473846,-0.001750668,-0.002780202,0.599187076,0.217496231,9.781707764
1784152362.908104,0.021622367,-0.055473752,-0.446081728,0.000733559,-0.001383450,-0.002480077,0.557796359,0.245019853,9.766153336
1784152362.910108,0.021622367,-0.055473752,-0.446081728,0.000853149,-0.000880754,-0.002332447,0.565930009,0.248608157,9.750940323
1784152362.912109,0.021625474,-0.055475503,-0.446081668,0.000590717,-0.000928744,-0.001577899,0.561187983,0.192041934,9.775230408
1784152362.914116,0.021625474,-0.055475503,-0.446081668,0.000991368,-0.001419843,-0.001065922,0.524999797,0.205091864,9.769451141
1784152362.916111,0.021625293,-0.055474125,-0.446081668,0.001941333,-0.001276184,-0.001429238,0.573562205,0.213385656,9.775828362
1784152362.918112,0.021625293,-0.055474125,-0.446081668,0.002366082,-0.000843665,-0.001854974,0.560312808,0.231845021,9.787142754
1784152362.920117,0.021625293,-0.055474125,-0.446081668,0.001913729,-0.000719132,-0.002041027,0.566016018,0.257392526,9.775654793
1784152362.922121,0.021627780,-0.055475488,-0.446081668,0.001344308,-0.000918240,-0.001456489,0.552263916,0.270567954,9.774829865
1784152362.924123,0.021627780,-0.055475488,-0.446081668,0.001362329,-0.001018164,-0.000343751,0.545293212,0.210094586,9.722429276
1784152362.926118,0.021626934,-0.055476215,-0.446081668,0.001235740,-0.000674362,0.000288448,0.582465231,0.208657533,9.794636726
1784152362.928172,0.021626934,-0.055476215,-0.446081668,0.000637260,-0.000523565,0.000278292,0.538911521,0.205739632,9.779332161
1784152362.930134,0.021626934,-0.055476215,-0.446081668,0.000689136,-0.000542199,-0.000180343,0.538719654,0.227225214,9.782608032
1784152362.932118,0.021626852,-0.055475514,-0.446081668,0.001305119,-0.000632897,-0.000694483,0.554187834,0.244916394,9.787220001
1784152362.934125,0.021626852,-0.055475514,-0.446081668,0.001283733,-0.000816575,-0.001611985,0.601673901,0.238435820,9.793949127
1784152362.936122,0.021628603,-0.055478349,-0.446081638,0.000742164,-0.001124040,-0.002390489,0.584507763,0.229637831,9.801946640
1784152362.938124,0.021628603,-0.055478349,-0.446081638,0.000601441,-0.001278987,-0.002920730,0.559279144,0.219027847,9.764194489
1784152362.940125,0.021628603,-0.055478349,-0.446081638,0.000777264,-0.000746563,-0.003357123,0.540263295,0.205766886,9.773056984
1784152362.942131,0.021628087,-0.055479158,-0.446081638,0.000633005,-0.000236187,-0.002627776,0.518550336,0.192502275,9.787299156
1784152362.944132,0.021628087,-0.055479158,-0.446081638,0.000246496,-0.000622517,-0.001252690,0.547432423,0.205595404,9.784272194
1784152362.946132,0.021629019,-0.055479944,-0.446081579,-0.000163315,-0.001116902,-0.000523122,0.589644909,0.207758650,9.782084465
1784152362.948136,0.021629019,-0.055479944,-0.446081579,-0.000782778,-0.001147065,-0.000405502,0.552878618,0.209256351,9.763677597
1784152362.950131,0.021629019,-0.055479944,-0.446081579,-0.001304634,-0.001023841,-0.000391327,0.559867680,0.231879413,9.783106804
1784152362.952132,0.021629438,-0.055480521,-0.446081579,-0.001484997,-0.000846344,-0.000362143,0.544196665,0.271961302,9.782451630
1784152362.954138,0.021629438,-0.055480521,-0.446081579,-0.001740996,-0.000500701,-0.000177410,0.543558478,0.292661697,9.770928383
1784152362.956143,0.021633320,-0.055480588,-0.446081549,-0.001747949,-0.000394058,-0.000169719,0.556185305,0.259866923,9.760417938
1784152362.958216,0.021633320,-0.055480588,-0.446081549,-0.001753464,-0.000475037,-0.000706556,0.567040265,0.267703205,9.773032188
1784152362.960190,0.021633320,-0.055480588,-0.446081549,-0.001914912,-0.000028799,-0.001022864,0.580438554,0.225797817,9.782192230
1784152362.962174,0.021633718,-0.055482760,-0.446081519,-0.001577859,0.000683265,-0.000582495,0.555141211,0.213430598,9.802711487
1784152362.964159,0.021633718,-0.055482760,-0.446081519,-0.000848033,0.000836901,-0.000281008,0.549619615,0.163884610,9.786248207
1784152362.966159,0.021631418,-0.055482041,-0.446081519,0.000079826,0.000660549,-0.000712219,0.558950841,0.192931622,9.780166626
1784152362.968191,0.021631418,-0.055482041,-0.446081519,0.000377937,0.000663365,-0.001224791,0.561904609,0.250788450,9.766641617
1784152362.970180,0.021631418,-0.055482041,-0.446081519,0.000106795,0.000565231,-0.002014720,0.570676565,0.234083012,9.768785477
1784152362.972171,0.021632871,-0.055483554,-0.446081489,0.000273242,0.000670915,-0.002769127,0.563817084,0.224641219,9.785755157
1784152362.974163,0.021632871,-0.055483554,-0.446081489,0.000722065,0.001117375,-0.002503795,0.573996902,0.211648494,9.767300606
1784152362.976159,0.021633806,-0.055486038,-0.446081489,0.001009832,0.001365286,-0.001372302,0.612854302,0.196356043,9.768583298
1784152362.978161,0.021633806,-0.055486038,-0.446081489,0.001229530,0.000895260,-0.000136438,0.574310005,0.200440541,9.767676353
1784152362.980161,0.021633806,-0.055486038,-0.446081489,0.000577614,0.000600703,0.000257401,0.553973198,0.225390539,9.761092186
1784152362.982162,0.021634471,-0.055486675,-0.446081400,-0.000433202,0.000950982,0.000366086,0.557038367,0.219078824,9.761053085
1784152362.984171,0.021634471,-0.055486675,-0.446081400,-0.000434581,0.000709707,0.000858856,0.543707788,0.232438967,9.796545029
1784152362.986171,0.021635380,-0.055486687,-0.446081400,-0.000259515,0.000134953,0.001396408,0.572544694,0.242339164,9.801568031
1784152362.988177,0.021635380,-0.055486687,-0.446081400,-0.000165758,0.000002721,0.002096433,0.581104934,0.244126678,9.786792755
1784152362.990170,0.021635380,-0.055486687,-0.446081400,-0.000509424,0.000235704,0.002463159,0.550754070,0.258350313,9.794475555
1784152362.992169,0.021638196,-0.055486299,-0.446081400,-0.001137471,0.000432040,0.001989739,0.569347203,0.235853940,9.774174690
1784152362.994171,0.021638196,-0.055486299,-0.446081400,-0.001194088,0.000858843,0.001629024,0.574807584,0.240842894,9.755831718
1784152362.996173,0.021639874,-0.055488214,-0.446081460,-0.001288293,0.001296108,0.001402970,0.523997843,0.235789478,9.801928520
1784152362.998182,0.021639874,-0.055488214,-0.446081460,-0.001329380,0.000752274,0.000926650,0.549810112,0.254752755,9.798039436
1784152363.000183,0.021639874,-0.055488214,-0.446081460,-0.000674528,0.000150499,0.000615703,0.573170483,0.219109952,9.790660858
1784152363.002181,0.021640480,-0.055489510,-0.446081400,0.000062979,0.000375606,0.000339136,0.564509153,0.208013818,9.791477203
1784152363.004182,0.021640480,-0.055489510,-0.446081400,0.000100893,0.001035052,-0.000528290,0.567706347,0.212065622,9.782987595
1784152363.006181,0.021640515,-0.055490293,-0.446081400,-0.000504737,0.001416055,-0.001450590,0.592551947,0.190066680,9.807529449
1784152363.008194,0.021640515,-0.055490293,-0.446081400,-0.000699089,0.001377437,-0.000896322,0.568365812,0.229933828,9.789380074
1784152363.010180,0.021640515,-0.055490293,-0.446081400,-0.000407790,0.001394539,0.000176313,0.544105411,0.227572426,9.787099838
1784152363.012184,0.021641057,-0.055490538,-0.446081400,-0.000537894,0.001396231,0.000379455,0.525170386,0.220217615,9.784343719
1784152363.014194,0.021641057,-0.055490538,-0.446081400,-0.001087818,0.001079271,0.000380531,0.529315352,0.229112372,9.786198616
1784152363.016199,0.021642579,-0.055490285,-0.446081370,-0.001563784,0.000666422,0.000831477,0.542489111,0.203978106,9.768565178
1784152363.018190,0.021642579,-0.055490285,-0.446081370,-0.001328884,0.000664828,0.001252836,0.561071932,0.220205650,9.784379005
1784152363.020194,0.021642579,-0.055490285,-0.446081370,-0.000882454,0.000951231,0.001146640,0.546788275,0.226248071,9.779472351
1784152363.022195,0.021642366,-0.055490866,-0.446081400,-0.000972040,0.001219449,0.000888432,0.535815120,0.246152982,9.772416115
1784152363.024229,0.021642366,-0.055490866,-0.446081400,-0.001218010,0.001452015,0.000826612,0.543681622,0.229395434,9.783523560
1784152363.026197,0.021643708,-0.055491179,-0.446081340,-0.001671571,0.001353744,0.000887961,0.505533397,0.229817331,9.792905807
1784152363.028197,0.021643708,-0.055491179,-0.446081340,-0.002347722,0.001052667,0.000804463,0.556658208,0.262888789,9.775681496
1784152363.030203,0.021643708,-0.055491179,-0.446081340,-0.002712043,0.000906274,0.000365157,0.549673855,0.241924033,9.775092125
1784152363.032264,0.021644462,-0.055491060,-0.446081340,-0.002176931,0.001223863,-0.000095652,0.532347083,0.218889862,9.769099236
1784152363.034209,0.021644462,-0.055491060,-0.446081340,-0.001438641,0.001936669,-0.000301747,0.538172901,0.179951221,9.752714157
1784152363.036212,0.021642899,-0.055491436,-0.446081340,-0.001026124,0.002512950,-0.000722544,0.580089152,0.196292788,9.773483276
1784152363.038210,0.021642899,-0.055491436,-0.446081340,-0.000328644,0.002821485,-0.001191546,0.554464519,0.230178803,9.779953003
1784152363.040209,0.021642899,-0.055491436,-0.446081340,0.000118747,0.002522824,-0.001193237,0.566005409,0.221340030,9.805013657
1784152363.042209,0.021643464,-0.055492185,-0.446081340,-0.000012083,0.001912978,-0.000998811,0.559626281,0.211737067,9.780735970
1784152363.044213,0.021643464,-0.055492185,-0.446081340,-0.000376718,0.001616383,-0.000983141,0.547762454,0.196547791,9.795870781
1784152363.046220,0.021642102,-0.055492517,-0.446081340,-0.000620589,0.001724511,-0.001042092,0.538310289,0.194409609,9.798537254
1784152363.048218,0.021642102,-0.055492517,-0.446081340,-0.000687712,0.001929854,-0.001372985,0.541338563,0.220128298,9.767770767
1784152363.050216,0.021642102,-0.055492517,-0.446081340,-0.000651606,0.001557216,-0.001725123,0.516500115,0.209861606,9.807133675
1784152363.052217,0.021642022,-0.055490054,-0.446081370,-0.000559380,0.000866192,-0.001189605,0.516478419,0.209689900,9.831342697
1784152363.054218,0.021642022,-0.055490054,-0.446081370,-0.000687646,0.000688660,-0.000761877,0.549577892,0.198713675,9.803059578
1784152363.056224,0.021641599,-0.055490404,-0.446081311,-0.001208661,0.001000127,-0.001134474,0.531218231,0.201268718,9.791850090
1784152363.058224,0.021641599,-0.055490404,-0.446081311,-0.001682144,0.000956502,-0.001154838,0.526379049,0.208578840,9.780683517
1784152363.060231,0.021641599,-0.055490404,-0.446081311,-0.001869818,0.000524056,-0.000684256,0.533220947,0.255877256,9.795788765
1784152363.062227,0.021642221,-0.055489238,-0.446081370,-0.002001033,0.000643048,-0.000682000,0.527155280,0.274279684,9.802177429
1784152363.064229,0.021642221,-0.055489238,-0.446081370,-0.001981492,0.001183010,-0.001417772,0.561345696,0.242629156,9.780935287
1784152363.066226,0.021644002,-0.055490136,-0.446081340,-0.001701264,0.001105186,-0.001901822,0.531434238,0.218373910,9.780303955
1784152363.068226,0.021644002,-0.055490136,-0.446081340,-0.001302798,0.000684753,-0.001985388,0.547592223,0.216988385,9.756998062
1784152363.070229,0.021644002,-0.055490136,-0.446081340,-0.000736283,0.000825915,-0.002115540,0.542943537,0.204016849,9.762288094
1784152363.072237,0.021643439,-0.055490371,-0.446081311,-0.000214177,0.001087461,-0.001866312,0.542382002,0.231401682,9.755740166
1784152363.074239,0.021643439,-0.055490371,-0.446081311,-0.000123898,0.001156566,-0.001920563,0.547375143,0.200280294,9.775719643
1784152363.076233,0.021642743,-0.055490497,-0.446081281,-0.000180156,0.001482308,-0.002626660,0.525603533,0.181687832,9.783201218
1784152363.078238,0.021642743,-0.055490497,-0.446081281,-0.000492743,0.001773987,-0.002725982,0.528131068,0.204165235,9.768104553
1784152363.080239,0.021642743,-0.055490497,-0.446081281,-0.001068652,0.001803263,-0.001662647,0.510783017,0.215715706,9.750229836
1784152363.082242,0.021643115,-0.055488888,-0.446081370,-0.001836512,0.001431036,-0.000674143,0.528311372,0.219367325,9.772237778
1784152363.084241,0.021643115,-0.055488888,-0.446081370,-0.002237676,0.000551617,-0.000841704,0.524148285,0.209112763,9.772615433
1784152363.086245,0.021642717,-0.055487961,-0.446081370,-0.001935012,-0.000292329,-0.001144476,0.533682942,0.219196573,9.786587715
1784152363.088253,0.021642717,-0.055487961,-0.446081370,-0.001528907,-0.000284255,-0.000530894,0.549282372,0.209654942,9.777126312
1784152363.090248,0.021642717,-0.055487961,-0.446081370,-0.000558064,0.000324882,0.000155201,0.544816434,0.210284367,9.759640694
1784152363.092245,0.021642730,-0.055488158,-0.446081370,0.000381791,0.000479908,0.000364946,0.529599130,0.212405249,9.740810394
1784152363.094250,0.021642730,-0.055488158,-0.446081370,0.000701585,0.000378351,0.000913109,0.534353077,0.198343933,9.756416321
1784152363.096256,0.021642121,-0.055487853,-0.446081400,0.000794378,0.000737307,0.001404887,0.535783827,0.206694871,9.776645660
1784152363.098255,0.021642121,-0.055487853,-0.446081400,0.000649466,0.001379963,0.001620515,0.519918859,0.230656505,9.774990082
1784152363.100250,0.021642121,-0.055487853,-0.446081400,0.000288017,0.001563790,0.001631192,0.502012432,0.233647376,9.764681816
1784152363.102257,0.021643179,-0.055485845,-0.446081400,-0.000448256,0.001310365,0.001058402,0.525582492,0.215465546,9.758759499
1784152363.104259,0.021643179,-0.055485845,-0.446081400,-0.000785161,0.001002584,-0.000171570,0.537195921,0.212466121,9.781615257
1784152363.106271,0.021642799,-0.055485550,-0.446081460,-0.000669526,0.000703143,-0.001175748,0.529104888,0.210024923,9.761418343
1784152363.108334,0.021642799,-0.055485550,-0.446081460,-0.000677443,0.000499015,-0.001095018,0.540351331,0.213757068,9.783421516
1784152363.110275,0.021642799,-0.055485550,-0.446081460,-0.000519330,0.000596548,-0.000384709,0.521390736,0.203768551,9.773026466
1784152363.112270,0.021642482,-0.055484880,-0.446081489,-0.000169420,0.000664294,0.000259460,0.532069743,0.197247818,9.788686752
1784152363.114266,0.021642482,-0.055484880,-0.446081489,0.000162138,0.001003906,0.000225019,0.528579473,0.206183076,9.798604012
1784152363.116266,0.021642102,-0.055483818,-0.446081489,0.000298755,0.001436529,-0.000467122,0.538650930,0.224251270,9.822939873
1784152363.118270,0.021642102,-0.055483818,-0.446081489,0.000644849,0.001102278,-0.001173137,0.542655885,0.219478652,9.793770790
1784152363.120272,0.021642102,-0.055483818,-0.446081489,0.001128344,0.000584416,-0.001381741,0.535095990,0.223760679,9.772272110
1784152363.122269,0.021642506,-0.055483140,-0.446081519,0.001046485,0.000316404,-0.000974182,0.512993097,0.213396266,9.757389069
1784152363.124273,0.021642506,-0.055483140,-0.446081519,0.000930769,0.000064557,-0.000154181,0.532819986,0.221911728,9.784362793
1784152363.126276,0.021642851,-0.055483393,-0.446081519,0.000719506,-0.000171097,0.000370481,0.539208651,0.191974238,9.761310577
1784152363.128282,0.021642851,-0.055483393,-0.446081519,0.000062309,-0.000207362,0.000102781,0.554698467,0.175894067,9.789467812
1784152363.130274,0.021642851,-0.055483393,-0.446081519,-0.000323476,-0.000070688,-0.000434163,0.531766355,0.208532095,9.777550697
1784152363.132272,0.021642631,-0.055483676,-0.446081519,-0.000064698,-0.000018476,0.000077863,0.505081415,0.227770895,9.766439438
1784152363.134283,0.021642778,-0.055484015,-0.446064442,0.000264375,-0.000062364,0.001822573,0.499595106,0.259761751,9.814163208
1784152363.136284,0.021644039,-0.055483151,-0.446050167,0.000250123,-0.000093811,0.003454212,0.532427013,0.263999790,9.789113998
1784152363.138289,0.021644356,-0.055479456,-0.446044594,0.000208179,0.000140370,0.003867998,0.502587676,0.245177299,9.780447960
1784152363.140288,0.021648850,-0.055478368,-0.446042478,0.000506457,0.000438620,0.003322235,0.510182619,0.241981998,9.775055885
1784152363.142288,0.021655798,-0.055475812,-0.446037948,0.001065720,0.000490766,0.002834016,0.525629878,0.219081014,9.754299164
1784152363.144296,0.021659857,-0.055474143,-0.446037471,0.001437629,0.000565799,0.002370194,0.549263537,0.207885340,9.773977280
1784152363.146295,0.021663880,-0.055472177,-0.446045548,0.001584436,0.000662998,0.001183909,0.573458493,0.203651339,9.758728981
1784152363.148293,0.021667084,-0.055469736,-0.446053177,0.001602679,0.000774082,-0.000221758,0.550036550,0.197570711,9.773910522
1784152363.150294,0.021663502,-0.055472944,-0.446055293,0.001104807,0.000497877,-0.000815331,0.527387559,0.216738731,9.765495300
1784152363.152293,0.021666611,-0.055478636,-0.446055233,0.000698847,-0.000246055,-0.000727332,0.535973132,0.221563444,9.764636040
1784152363.154300,0.021667378,-0.055477768,-0.446053356,0.000712970,-0.000504905,-0.000408431,0.526078522,0.219885334,9.766409874
1784152363.156306,0.021660082,-0.055474263,-0.446048766,0.000059931,-0.000094451,0.000169153,0.508739293,0.234342545,9.780833244
1784152363.158307,0.021654388,-0.055474930,-0.446046174,-0.000851048,0.000100815,0.000660855,0.522078097,0.225909650,9.808588028
1784152363.160314,0.021656035,-0.055480354,-0.446037650,-0.000852359,-0.000323490,0.001251624,0.537690699,0.215256244,9.766391754
1784152363.162354,0.021656675,-0.055484191,-0.446027786,-0.000404994,-0.000874294,0.002150705,0.541783273,0.220090762,9.772253990
1784152363.164320,0.021660533,-0.055492885,-0.446025789,0.000046013,-0.001508120,0.002353285,0.555494249,0.204564199,9.788755417
1784152363.166314,0.021667970,-0.055495303,-0.446029961,0.000812960,-0.001770615,0.001527870,0.564240038,0.221595123,9.772286415
1784152363.168309,0.021675389,-0.055488568,-0.446031243,0.001600539,-0.000918805,0.000680014,0.525911510,0.245215029,9.796161652
1784152363.170316,0.021677403,-0.055490125,-0.446028262,0.001811286,-0.000315454,0.000567138,0.519476175,0.268299907,9.774784088
1784152363.172314,0.021677088,-0.055491578,-0.446023196,0.001196903,-0.000554596,0.000967306,0.540276885,0.245085090,9.788553238
1784152363.174325,0.021676328,-0.055494733,-0.446018785,0.000567108,-0.000835503,0.001366252,0.530353427,0.242774621,9.816326141
1784152363.176317,0.021682125,-0.055501215,-0.446017861,0.000684857,-0.001296464,0.001349487,0.537231863,0.215992570,9.789708138
1784152363.178324,0.021686545,-0.055508584,-0.446016103,0.001111503,-0.001922715,0.001137627,0.535807669,0.246499196,9.786764145
1784152363.180322,0.021689698,-0.055509850,-0.446014374,0.001336072,-0.001982351,0.001039517,0.541732192,0.253629953,9.781435966
1784152363.182325,0.021694357,-0.055506423,-0.446015805,0.001344885,-0.001338828,0.000755005,0.532933354,0.231722355,9.790700912
1784152363.184323,0.021691009,-0.055508453,-0.446012557,0.000916512,-0.000920113,0.000673133,0.548089564,0.223851129,9.799184799
1784152363.186333,0.021693820,-0.055512685,-0.446006536,0.000671260,-0.001014886,0.001116820,0.554245174,0.211021408,9.765034676
1784152363.188325,0.021699505,-0.055516828,-0.446007520,0.001088436,-0.001232353,0.001115229,0.541555882,0.239269793,9.784930229
1784152363.190334,0.021703765,-0.055519655,-0.446006745,0.001465725,-0.001371354,0.000753258,0.531374574,0.249819577,9.768848419
1784152363.192333,0.021708062,-0.055519182,-0.446003497,0.001525812,-0.001202192,0.000797612,0.526801527,0.241902813,9.756239891
1784152363.194346,0.021698879,-0.055516522,-0.446004510,0.000651611,-0.000708635,0.000758321,0.513226449,0.233475029,9.768726349
1784152363.196342,0.021701762,-0.055516787,-0.446000487,-0.000022303,-0.000421012,0.000783394,0.540353477,0.249742761,9.763476372
1784152363.198339,0.021703854,-0.055523183,-0.446004391,0.000240027,-0.000830138,0.000564736,0.575078309,0.228894427,9.797450066
1784152363.200340,0.021701392,-0.055523351,-0.446011573,0.000108069,-0.001066163,-0.000334847,0.581907988,0.235670671,9.777324677
1784152363.202340,0.021698864,-0.055520512,-0.446018398,-0.000431422,-0.000476252,-0.001167161,0.582508147,0.210617885,9.770887375
1784152363.204339,0.021702591,-0.055520441,-0.446017146,-0.000373365,-0.000018694,-0.001231067,0.545103610,0.233219460,9.747235298
1784152363.206347,0.021699289,-0.055520855,-0.446014166,-0.000227515,0.000003433,-0.000611274,0.542704344,0.221076921,9.757914543
1784152363.208342,0.021700654,-0.055525623,-0.446009934,-0.000269930,-0.000304158,0.000054820,0.533020377,0.238082856,9.778190613
1784152363.210345,0.021700079,-0.055528697,-0.446008623,-0.000122071,-0.000745378,0.000412775,0.557086468,0.224320829,9.779918671
1784152363.212343,0.021705531,-0.055527247,-0.446008921,0.000208056,-0.000635228,0.000351366,0.564013004,0.239967272,9.772403717
1784152363.214356,0.021710092,-0.055526897,-0.446008176,0.000794721,-0.000324395,0.000254310,0.567915738,0.229523405,9.784893036
1784152363.216350,0.021709133,-0.055533953,-0.446005076,0.000818289,-0.000599130,0.000432897,0.541387260,0.224159941,9.767796516
1784152363.218354,0.021712203,-0.055538155,-0.446002454,0.000741444,-0.001105020,0.000687505,0.523921847,0.230731577,9.820276260
1784152363.220352,0.021711733,-0.055542756,-0.446003318,0.000723053,-0.001400303,0.000602676,0.523339808,0.218337461,9.800022125
1784152363.222378,0.021707641,-0.055540737,-0.446010321,0.000153987,-0.001299672,-0.000072007,0.544361711,0.210242465,9.766365051
1784152363.224355,0.021706915,-0.055538077,-0.446014643,-0.000290903,-0.000738619,-0.000795511,0.544885397,0.218528569,9.797353745
1784152363.226356,0.021713637,-0.055538844,-0.446025759,0.000089706,-0.000443499,-0.001647021,0.570718408,0.238060564,9.776432991
1784152363.228357,0.021710645,-0.055548497,-0.446025521,0.000230671,-0.001056993,-0.001947238,0.561841846,0.246645495,9.782306671
1784152363.230364,0.021708407,-0.055553697,-0.446023554,-0.000177997,-0.001774036,-0.001247617,0.532746255,0.216466248,9.794191360
1784152363.232362,0.021710252,-0.055556580,-0.446030170,-0.000198666,-0.001864412,-0.001222503,0.534800112,0.199945614,9.782430649
1784152363.234389,0.021717854,-0.055562429,-0.446036965,0.000419988,-0.001987207,-0.001835332,0.549292624,0.210141048,9.771749496
1784152363.236367,0.021721743,-0.055569340,-0.446039081,0.001084784,-0.002278733,-0.001993727,0.561086714,0.219916657,9.761960030
1784152363.238370,0.021717787,-0.055571944,-0.446043909,0.000793575,-0.002267861,-0.001928587,0.573576331,0.249466807,9.742434502
1784152363.240368,0.021712013,-0.055574361,-0.446044832,-0.000103157,-0.002001346,-0.001754418,0.557101071,0.224841923,9.769610405
1784152363.242371,0.021708559,-0.055582743,-0.446044356,-0.000760599,-0.002115348,-0.001268224,0.552493393,0.215841636,9.783445358
1784152363.244376,0.021711491,-0.055584364,-0.446038812,-0.000625017,-0.002135461,-0.000515571,0.548733532,0.239165097,9.786730766
1784152363.246376,0.021718433,-0.055591654,-0.446036428,0.000161136,-0.002104082,0.000124337,0.552648306,0.227196455,9.761550903
1784152363.248376,0.021712344,-0.055596728,-0.446037024,0.000099247,-0.002324044,0.000209054,0.544535279,0.261360288,9.760416985
1784152363.250379,0.021709735,-0.055595245,-0.446036786,-0.000518268,-0.001937473,0.000164596,0.577869534,0.235315800,9.771490097
1784152363.252375,0.021711992,-0.055593822,-0.446039349,-0.000509703,-0.001101833,-0.000026443,0.565647423,0.226924807,9.776355743
1784152363.254382,0.021708682,-0.055597696,-0.446046233,-0.000578703,-0.000867261,-0.000655215,0.552660167,0.230532125,9.796543121
1784152363.256394,0.021708567,-0.055599753,-0.446045220,-0.000687323,-0.001021284,-0.000862447,0.549023271,0.226962641,9.800998688
1784152363.258385,0.021706531,-0.055600762,-0.446041346,-0.000639293,-0.000923296,-0.000289968,0.555798352,0.229659557,9.787571907
1784152363.260384,0.021702709,-0.055603825,-0.446048498,-0.000875361,-0.000953665,-0.000415475,0.562780321,0.212205186,9.772224426
1784152363.262388,0.021702645,-0.055607866,-0.446053803,-0.000975447,-0.001152682,-0.001139590,0.577487648,0.204743162,9.786985397
1784152363.264384,0.021696245,-0.055606890,-0.446052611,-0.001191263,-0.001011678,-0.001088076,0.536383390,0.219632298,9.783454895
1784152363.266389,0.021695346,-0.055606008,-0.446054310,-0.001382519,-0.000658151,-0.000796480,0.536514163,0.229986235,9.776347160
1784152363.268390,0.021698102,-0.055611286,-0.446060389,-0.000928650,-0.000835777,-0.001109040,0.539641917,0.266620994,9.785552979
1784152363.270385,0.021694381,-0.055612855,-0.446064383,-0.000779820,-0.001088326,-0.001482126,0.588663995,0.238621622,9.791248322
1784152363.272389,0.021694902,-0.055614505,-0.446061194,-0.000957313,-0.000823117,-0.001120053,0.570773065,0.206576735,9.793267250
1784152363.274394,0.021698695,-0.055614009,-0.446065515,-0.000578704,-0.000491067,-0.000908862,0.566262007,0.205633357,9.808052063
1784152363.276394,0.021698052,-0.055610564,-0.446064740,-0.000228039,-0.000050991,-0.000916255,0.534000158,0.208427042,9.788311958
1784152363.278397,0.021693584,-0.055611033,-0.446060210,-0.000498988,0.000217403,-0.000290954,0.557000756,0.218376502,9.796916008
1784152363.280396,0.021693891,-0.055611964,-0.446059972,-0.000627671,0.000070421,0.000126668,0.548348665,0.206543416,9.775313377
1784152363.282403,0.021694537,-0.055609979,-0.446060032,-0.000447299,0.000160374,0.000107502,0.555830836,0.194757357,9.781072617
1784152363.284405,0.021691445,-0.055605307,-0.446050584,-0.000512003,0.000620127,0.000727238,0.538013041,0.241711363,9.762975693
1784152363.286404,0.021686196,-0.055604625,-0.446045637,-0.000977392,0.000813355,0.001538291,0.569358647,0.236349583,9.767453194
1784152363.288428,0.021680256,-0.055600528,-0.446042567,-0.001532960,0.000905002,0.001713326,0.553280830,0.243231475,9.773757935
1784152363.290424,0.021680688,-0.055600204,-0.446039587,-0.001467231,0.000967690,0.001679095,0.536216497,0.243341818,9.788986206
1784152363.292409,0.021686232,-0.055598568,-0.446041822,-0.000823529,0.000847375,0.001257041,0.550328791,0.222977340,9.792007446
1784152363.294425,0.021683954,-0.055596672,-0.446047097,-0.000569273,0.000855358,0.000408216,0.573053777,0.208057180,9.769966125
1784152363.296407,0.021677606,-0.055593681,-0.446045339,-0.001016005,0.001010099,0.000096562,0.567179322,0.204157531,9.761864662
1784152363.298414,0.021676386,-0.055590458,-0.446050286,-0.001268196,0.001211921,-0.000111810,0.576208472,0.210151836,9.784777641
1784152363.300410,0.021673324,-0.055590514,-0.446051478,-0.001237366,0.001087973,-0.000481397,0.562832773,0.216672093,9.774044991
1784152363.302413,0.021671290,-0.055594739,-0.446052283,-0.001328170,0.000619144,-0.000464098,0.561213255,0.195079103,9.789149284
1784152363.304414,0.021665832,-0.055594508,-0.446053714,-0.001556839,0.000297359,-0.000451643,0.553592324,0.194420815,9.769411087
1784152363.306415,0.021654587,-0.055585884,-0.446058750,-0.002166957,0.000789353,-0.000710005,0.532561779,0.200015679,9.776599884
1784152363.308420,0.021653660,-0.055585172,-0.446059853,-0.002303683,0.001180445,-0.000897548,0.554726005,0.215727046,9.795552254
1784152363.310419,0.021650372,-0.055586129,-0.446057349,-0.001959105,0.000845601,-0.000549519,0.540839732,0.217306376,9.787478447
1784152363.312421,0.021644866,-0.055586249,-0.446061760,-0.002069971,0.000534794,-0.000495501,0.546014309,0.198559746,9.768084526
1784152363.314428,0.021640854,-0.055587810,-0.446065456,-0.002222639,0.000257697,-0.000871738,0.573309183,0.229120910,9.768755913
1784152363.316431,0.021645529,-0.055585559,-0.446065515,-0.001662215,0.000353030,-0.000890374,0.562887251,0.221964970,9.785736084
1784152363.318460,0.021647995,-0.055580568,-0.446060061,-0.000780253,0.000881696,-0.000304930,0.509032786,0.186605543,9.814598083
1784152363.320435,0.021649793,-0.055578396,-0.446057320,-0.000248072,0.001140802,0.000319253,0.544341028,0.208863571,9.771287918
1784152363.322435,0.021651369,-0.055577926,-0.446052104,0.000190583,0.001023132,0.000754285,0.542450964,0.238429129,9.775511742
1784152363.324463,0.021654459,-0.055576317,-0.446048737,0.000600059,0.000900222,0.001107241,0.563667953,0.210900679,9.765042305
1784152363.326437,0.021648157,-0.055574965,-0.446045935,0.000267444,0.000962254,0.001237845,0.552379012,0.206428111,9.784281731
1784152363.328434,0.021649869,-0.055573504,-0.446046382,-0.000082925,0.000992158,0.001080007,0.596330345,0.203669369,9.778030396
1784152363.330440,0.021644127,-0.055571169,-0.446047068,-0.000337991,0.000979381,0.000730157,0.545531750,0.233861595,9.782210350
1784152363.332440,0.021638144,-0.055569708,-0.446049869,-0.001083179,0.001048876,0.000348483,0.517249823,0.233305633,9.785317421
1784152363.334446,0.021632794,-0.055568371,-0.446052879,-0.001608350,0.001028311,-0.000092397,0.506514966,0.236954153,9.795641899
1784152363.336441,0.021623373,-0.055566549,-0.446053773,-0.002247703,0.000709227,-0.000271262,0.536053181,0.231110141,9.808184624
1784152363.338446,0.021616699,-0.055569928,-0.446057916,-0.002807197,0.000154248,-0.000475716,0.547916949,0.207899436,9.774423599
1784152363.340444,0.021618005,-0.055569842,-0.446056247,-0.002418037,-0.000115421,-0.000496280,0.557220519,0.198327005,9.780647278
1784152363.342446,0.021614591,-0.055565726,-0.446053416,-0.001804153,0.000239774,-0.000056367,0.568525314,0.167360395,9.767458916
1784152363.344452,0.021609504,-0.055556994,-0.446054995,-0.001802212,0.001080522,0.000068070,0.560797095,0.158155859,9.752597809
1784152363.346451,0.021609299,-0.055551264,-0.446052343,-0.001491609,0.001851878,0.000123995,0.591674149,0.150617227,9.748991966
1784152363.348451,0.021609696,-0.055547930,-0.446052819,-0.000889703,0.002049436,0.000217457,0.553468347,0.184120893,9.768896103
1784152363.350451,0.021607939,-0.055547219,-0.446053416,-0.000744691,0.001765756,0.000084125,0.546081960,0.205577657,9.789201736
1784152363.352457,0.021599008,-0.055545989,-0.446052641,-0.001237338,0.001438780,0.000111735,0.543228269,0.229769662,9.794734955
1784152363.354459,0.021593822,-0.055546802,-0.446044952,-0.001797463,0.001109213,0.000708678,0.529548764,0.211197734,9.784739494
1784152363.356457,0.021590220,-0.055543102,-0.446044952,-0.001861242,0.000919856,0.001072168,0.529503107,0.206378281,9.769465446
1784152363.358457,0.021584185,-0.055542883,-0.446036249,-0.001961337,0.000854045,0.001409490,0.548350871,0.206965983,9.778901100
1784152363.360459,0.021577131,-0.055545256,-0.446029007,-0.002255736,0.000499404,0.002158615,0.558819532,0.218947709,9.776298523
1784152363.362462,0.021572053,-0.055542119,-0.446030885,-0.002447658,0.000497224,0.001983736,0.535917878,0.217884332,9.778063774
1784152363.364471,0.021568816,-0.055537373,-0.446032882,-0.002363887,0.000965189,0.001209444,0.542034626,0.241122678,9.775527954
1784152363.366466,0.021566829,-0.055535320,-0.446027577,-0.002215585,0.001122176,0.001131894,0.559242487,0.181148514,9.798472404
1784152363.368469,0.021564404,-0.055535335,-0.446030676,-0.002056645,0.000912447,0.001001467,0.535500169,0.183381811,9.779185295
1784152363.370469,0.021562627,-0.055540569,-0.446036637,-0.001817505,0.000295112,0.000127833,0.552603066,0.224406943,9.775879860
1784152363.372477,0.021566423,-0.055536993,-0.446034312,-0.001243254,0.000126961,-0.000163412,0.519446254,0.230067998,9.795609474
1784152363.374481,0.021564661,-0.055531662,-0.446038723,-0.000817381,0.000723687,-0.000263251,0.548344076,0.206101820,9.774412155
1784152363.376483,0.021561699,-0.055532251,-0.446038336,-0.000925821,0.000875587,-0.000446534,0.560346663,0.196548939,9.773017883
1784152363.378475,0.021565994,-0.055534672,-0.446033537,-0.000559726,0.000473814,0.000013508,0.550048888,0.196452603,9.742072105
1784152363.380471,0.021567585,-0.055530228,-0.446026832,0.000034909,0.000499031,0.000766127,0.559895515,0.196535602,9.775706291
1784152363.382476,0.021569060,-0.055522032,-0.446016759,0.000367326,0.001308238,0.001679685,0.548101485,0.223539874,9.779903412
1784152363.384485,0.021571118,-0.055520400,-0.446014017,0.000626075,0.001701228,0.002073357,0.538787961,0.194632784,9.766260147
1784152363.386492,0.021572003,-0.055520765,-0.446010739,0.000771699,0.001270778,0.001904786,0.512993217,0.213802874,9.763219833
1784152363.388490,0.021579057,-0.055516720,-0.446010888,0.001205488,0.001116988,0.001566773,0.523900747,0.224485904,9.753436089
1784152363.390485,0.021577477,-0.055514470,-0.446009755,0.001253147,0.001242611,0.001195069,0.553921342,0.222550154,9.782594681
1784152363.392487,0.021576108,-0.055513177,-0.446013242,0.000672087,0.001197989,0.000723980,0.528080285,0.236490965,9.758896828
1784152363.394495,0.021572808,-0.055511892,-0.446014822,0.000121890,0.001095961,0.000199689,0.517193198,0.263153404,9.746503830
1784152363.396495,0.021571800,-0.055509757,-0.446013749,-0.000407038,0.000949027,0.000142073,0.549304783,0.249043107,9.782758713
1784152363.398497,0.021566821,-0.055510342,-0.446014315,-0.000902369,0.000716737,0.000171435,0.543237925,0.267435938,9.790493011
1784152363.400494,0.021563286,-0.055505749,-0.446020395,-0.001259506,0.000784455,-0.000293247,0.556409836,0.206722572,9.798634529
1784152363.402498,0.021565491,-0.055502154,-0.446027160,-0.001045800,0.001083433,-0.001080915,0.552501500,0.217121914,9.792420387
1784152363.404501,0.021571338,-0.055500925,-0.446030140,-0.000242035,0.001077150,-0.001474424,0.523002207,0.223677784,9.742669106
1784152363.406500,0.021578392,-0.055498682,-0.446025521,0.000665545,0.000920459,-0.001003251,0.535358131,0.208908632,9.781142235
1784152363.408503,0.021580942,-0.055498015,-0.446036071,0.001074228,0.000758135,-0.001166126,0.553731561,0.206461728,9.777111053
1784152363.410497,0.021576500,-0.055498075,-0.446036637,0.000612575,0.000577957,-0.001593211,0.565121472,0.183463052,9.777421951
1784152363.412502,0.021574724,-0.055501737,-0.446037948,0.000128161,0.000264429,-0.001273776,0.537472725,0.198135167,9.780179977
1784152363.414505,0.021580055,-0.055500504,-0.446041077,0.000427622,0.000120317,-0.001256186,0.571942508,0.189359277,9.755050659
1784152363.416509,0.021574838,-0.055506457,-0.446042478,0.000336434,-0.000161434,-0.001226797,0.548510551,0.219979063,9.775847435
1784152363.418504,0.021571217,-0.055511795,-0.446044326,-0.000331790,-0.000810953,-0.001082456,0.563259959,0.214064404,9.761924744
1784152363.420511,0.021576716,-0.055512719,-0.446046174,-0.000128472,-0.001021132,-0.001046950,0.538182139,0.219641075,9.778973579
1784152363.422509,0.021586675,-0.055508897,-0.446057081,0.000859527,-0.000567233,-0.001684286,0.526292324,0.201814890,9.786917686
1784152363.424510,0.021595845,-0.055507910,-0.446052819,0.001851068,-0.000097944,-0.001750234,0.538356304,0.195988804,9.765371323
1784152363.426515,0.021595795,-0.055514008,-0.446052432,0.002003574,-0.000438878,-0.000990654,0.531013608,0.220222369,9.773140907
1784152363.428517,0.021598257,-0.055515211,-0.446052462,0.001643508,-0.000842497,-0.000709699,0.536258996,0.246109053,9.777795792
1784152363.430516,0.021604380,-0.055516884,-0.446056128,0.001765117,-0.000814802,-0.000809505,0.534192383,0.260907859,9.779682159
1784152363.432514,0.021609696,-0.055519447,-0.446060032,0.001834874,-0.000918867,-0.001135660,0.505947948,0.263484389,9.783257484
1784152363.434524,0.021608550,-0.055515815,-0.446061403,0.001401013,-0.000630575,-0.001191484,0.530359447,0.239985466,9.767439842
1784152363.436525,0.021611985,-0.055511795,-0.446061254,0.001089174,0.000027718,-0.000958869,0.533333719,0.227688134,9.790228844
1784152363.438523,0.021616081,-0.055510897,-0.446061611,0.001221509,0.000323077,-0.000735712,0.555059969,0.243084446,9.791244507
1784152363.440528,0.021620007,-0.055509415,-0.446063548,0.001425178,0.000393978,-0.000718192,0.551293850,0.229173675,9.801014900
1784152363.442531,0.021624893,-0.055505171,-0.446067870,0.001504223,0.000664027,-0.000975099,0.526636422,0.230468512,9.789343834
1784152363.444531,0.021625441,-0.055501632,-0.446075559,0.001310973,0.000991778,-0.001541010,0.558371782,0.219366461,9.781231880
1784152363.446535,0.021630768,-0.055504415,-0.446078718,0.001273815,0.000797000,-0.001883314,0.520264208,0.221729681,9.769554138
1784152363.448531,0.021639232,-0.055509433,-0.446077228,0.001817809,0.000087321,-0.001539224,0.524680138,0.215032250,9.758307457
1784152363.450529,0.021644376,-0.055509865,-0.446086764,0.002216314,-0.000319044,-0.001721183,0.515799761,0.187212095,9.780088425
1784152363.452529,0.021644957,-0.055512894,-0.446089089,0.002073671,-0.000572971,-0.002088864,0.530649781,0.190602884,9.780572891
1784152363.454550,0.021646963,-0.055516951,-0.446081877,0.001820004,-0.000979413,-0.001202872,0.553329170,0.209669977,9.767715454
1784152363.456538,0.021652352,-0.055519808,-0.446080238,0.001817150,-0.001117021,-0.000303539,0.541839182,0.262579679,9.782838821
1784152363.458542,0.021650063,-0.055520028,-0.446085662,0.001476139,-0.000974421,-0.000496005,0.534025133,0.244187355,9.736983299
1784152363.460542,0.021648539,-0.055522226,-0.446086347,0.000793922,-0.000883085,-0.000763336,0.494260311,0.223848596,9.770439148
1784152363.462540,0.021656465,-0.055521030,-0.446087331,0.000928865,-0.000843020,-0.000686450,0.495256990,0.233536437,9.792471886
1784152363.464540,0.021666927,-0.055520996,-0.446087271,0.001842493,-0.000660631,-0.000628291,0.534862459,0.241675347,9.773731232
1784152363.466539,0.021661006,-0.055516228,-0.446085006,0.001571185,-0.000159337,-0.000314581,0.527562439,0.231492847,9.769623756
1784152363.468551,0.021656446,-0.055510938,-0.446077794,0.000381774,0.000573207,0.000455978,0.562864900,0.218546599,9.762401581
1784152363.470543,0.021656808,-0.055513151,-0.446069568,0.000051894,0.000648768,0.001394711,0.558049560,0.193317980,9.790479660
1784152363.472548,0.021655262,-0.055515714,-0.446062714,0.000005472,0.000233964,0.002040155,0.526415527,0.211298376,9.776217461
1784152363.474551,0.021652438,-0.055514332,-0.446058691,-0.000260192,0.000169933,0.002240535,0.525500774,0.208336309,9.753334045
1784152363.476550,0.021655327,-0.055508368,-0.446049750,-0.000141418,0.000605124,0.002516054,0.481611609,0.255254984,9.787217140
1784152363.478549,0.021657407,-0.055508967,-0.446043223,0.000286904,0.000791591,0.002860996,0.515659213,0.286714882,9.775346756
1784152363.480551,0.021653198,-0.055513792,-0.446034700,0.000121267,0.000230612,0.003107642,0.527265549,0.244044647,9.769256592
1784152363.482556,0.021652982,-0.055517912,-0.446029335,-0.000310124,-0.000498357,0.003230887,0.590546787,0.206972063,9.765043259
1784152363.484558,0.021657307,-0.055522043,-0.446029872,-0.000080054,-0.000995290,0.002671859,0.578743637,0.196719870,9.778864861
1784152363.486561,0.021653414,-0.055522077,-0.446026385,0.000020408,-0.000905823,0.002140660,0.557164609,0.229801312,9.765158653
1784152363.488563,0.021656912,-0.055523045,-0.446025968,0.000041522,-0.000624538,0.001827015,0.569502115,0.210428849,9.757872581
1784152363.490559,0.021655697,-0.055527214,-0.446023166,0.000197574,-0.000798793,0.001542483,0.523388386,0.221152425,9.782106400
1784152363.492564,0.021656245,-0.055525463,-0.446019202,0.000076788,-0.000816761,0.001588165,0.514567316,0.232606351,9.762444496
1784152363.494561,0.021655299,-0.055532802,-0.446016908,0.000004623,-0.001045790,0.001584162,0.526444852,0.247903764,9.732069016
1784152363.496565,0.021657605,-0.055535983,-0.446008652,0.000038830,-0.001485330,0.001868694,0.513916373,0.254421681,9.783206940
1784152363.498573,0.021662790,-0.055534411,-0.446004689,0.000485985,-0.001198664,0.002170283,0.546107113,0.244988114,9.791696548
1784152363.500570,0.021663040,-0.055530760,-0.445998013,0.000763021,-0.000502663,0.002284314,0.541159630,0.281332403,9.793270111
1784152363.502570,0.021663666,-0.055530138,-0.445987523,0.000439216,-0.000010843,0.002835811,0.534853756,0.242012039,9.789424896
1784152363.504570,0.021659959,-0.055531558,-0.445987284,-0.000088842,-0.000006845,0.002819941,0.519755661,0.256421417,9.806540489
1784152363.506573,0.021659985,-0.055528317,-0.445987433,-0.000435241,0.000036080,0.002086591,0.523260295,0.247193977,9.774652481
1784152363.508570,0.021658443,-0.055529479,-0.445987493,-0.000542671,0.000084010,0.001516573,0.560663402,0.256902635,9.728123665
1784152363.510572,0.021660976,-0.055532493,-0.445989192,-0.000335064,-0.000225367,0.000973494,0.583040297,0.253723890,9.756818771
1784152363.512578,0.021671219,-0.055535879,-0.445984900,0.000538158,-0.000514077,0.000831387,0.565570295,0.254990280,9.736186028
1784152363.514577,0.021674372,-0.055537142,-0.445983142,0.001229328,-0.000600438,0.000963314,0.547366321,0.237800285,9.792100906
1784152363.516581,0.021680364,-0.055538014,-0.445990592,0.001446216,-0.000583504,0.000283184,0.520976365,0.242851213,9.759378433
1784152363.518578,0.021679662,-0.055536404,-0.445995450,0.001317940,-0.000385432,-0.000644947,0.580266774,0.210662514,9.768643379
1784152363.520581,0.021677762,-0.055534985,-0.445993483,0.000772657,-0.000078370,-0.000652975,0.557107270,0.225296229,9.768715858
1784152363.522581,0.021679066,-0.055538673,-0.445992678,0.000497753,-0.000164309,-0.000281266,0.538252771,0.224251062,9.760620117
1784152363.524584,0.021677384,-0.055544265,-0.445995748,0.000293051,-0.000710742,-0.000356167,0.521445572,0.209064588,9.784269333
1784152363.526608,0.021677211,-0.055547476,-0.445999026,0.000071481,-0.001178367,-0.000682012,0.540239453,0.241952553,9.788085938
1784152363.528594,0.021676678,-0.055555150,-0.446003914,-0.000018868,-0.001663012,-0.001046438,0.536104500,0.231920570,9.757081032
1784152363.530600,0.021674946,-0.055557333,-0.445996344,-0.000157225,-0.001875833,-0.000571128,0.532976389,0.197309449,9.778375626
1784152363.532658,0.021672450,-0.055559307,-0.445992529,-0.000381910,-0.001655204,0.000372736,0.526637673,0.192888096,9.781480789
1784152363.534602,0.021669593,-0.055558473,-0.445997238,-0.000668200,-0.001308073,0.000230791,0.520594358,0.213898733,9.799094200
1784152363.536598,0.021664539,-0.055559315,-0.446000218,-0.001056466,-0.001050486,-0.000324169,0.516707838,0.224469796,9.768671989
1784152363.538602,0.021659710,-0.055553235,-0.446002126,-0.001462448,-0.000502742,-0.000528070,0.536532760,0.230132535,9.755726814
1784152363.540600,0.021655980,-0.055554666,-0.446010649,-0.001684582,-0.000066188,-0.001055373,0.539433658,0.248766124,9.776472092
1784152363.542600,0.021654315,-0.055559248,-0.446017534,-0.001762785,-0.000448930,-0.001786263,0.557941735,0.257515073,9.772957802
1784152363.544603,0.021655418,-0.055562165,-0.446022213,-0.001477787,-0.000822876,-0.002084021,0.577943087,0.241164744,9.767941475
1784152363.546601,0.021657119,-0.055565335,-0.446021199,-0.001016172,-0.000903250,-0.001775960,0.563608170,0.241939768,9.747757912
1784152363.548614,0.021657988,-0.055572055,-0.446022511,-0.000683184,-0.001215194,-0.001318283,0.574690223,0.194220573,9.759566307
1784152363.550608,0.021662194,-0.055576511,-0.446030378,-0.000188358,-0.001657389,-0.001599429,0.542729259,0.187331006,9.777873039
1784152363.552608,0.021660976,-0.055577535,-0.446034670,0.000122645,-0.001581791,-0.002000674,0.543786943,0.200742438,9.780202866
1784152363.554614,0.021663995,-0.055583354,-0.446040690,0.000275611,-0.001616695,-0.002167231,0.546013594,0.199770078,9.786923409
1784152363.556610,0.021661155,-0.055583127,-0.446048021,0.000207899,-0.001530979,-0.002486802,0.533708572,0.221830294,9.794225693
1784152363.558615,0.021657217,-0.055579118,-0.446061105,-0.000339546,-0.000812426,-0.003168038,0.535356045,0.210512862,9.807604790
1784152363.560618,0.021661062,-0.055583622,-0.446067303,-0.000326559,-0.000653724,-0.003611533,0.515318215,0.222116858,9.787037849
1784152363.562611,0.021662049,-0.055579193,-0.446065158,0.000041278,-0.000620169,-0.002923601,0.549335599,0.214938253,9.790162086
1784152363.564618,0.021658912,-0.055576120,-0.446064621,-0.000138259,-0.000071911,-0.001932844,0.570202291,0.232671708,9.779087067
1784152363.566622,0.021664428,-0.055576582,-0.446065426,-0.000035057,0.000182300,-0.001428146,0.549521208,0.265341401,9.758654594
1784152363.568622,0.021670796,-0.055575367,-0.446067989,0.000672146,0.000236231,-0.001312932,0.558268845,0.210448593,9.775346756
1784152363.570621,0.021672741,-0.055573929,-0.446077257,0.001008473,0.000334875,-0.001788559,0.549753308,0.211040750,9.770410538
1784152363.572624,0.021670269,-0.055569772,-0.446073204,0.000621875,0.000626549,-0.001647428,0.562425256,0.221055672,9.788419724
1784152363.574630,0.021669773,-0.055571765,-0.446072996,0.000209785,0.000620463,-0.000896176,0.545008421,0.228415504,9.792934418
1784152363.576628,0.021674030,-0.055576846,-0.446079761,0.000338681,0.000004077,-0.001109800,0.547697365,0.263918787,9.772989273
1784152363.578625,0.021679275,-0.055577099,-0.446077108,0.000831343,-0.000324144,-0.001119702,0.563307822,0.217279643,9.750737190
1784152363.580630,0.021677049,-0.055576615,-0.446078837,0.000813412,-0.000219416,-0.000764562,0.570512056,0.220221639,9.765109062
1784152363.582633,0.021671291,-0.055574823,-0.446078897,0.000026015,0.000118099,-0.000650036,0.553650081,0.235708952,9.759813309
1784152363.584637,0.021667518,-0.055575624,-0.446081817,-0.000656872,0.000275601,-0.000639478,0.543455005,0.210180804,9.776676178
1784152363.586644,0.021668263,-0.055578381,-0.446080714,-0.000652936,-0.000047380,-0.000579274,0.584599257,0.198443338,9.777984619
1784152363.588643,0.021665573,-0.055578515,-0.446079284,-0.000559783,-0.000231415,-0.000246157,0.556013465,0.210788563,9.794624329
1784152363.590636,0.021668034,-0.055584863,-0.446075708,-0.000404450,-0.000601411,0.000157805,0.520452440,0.201025516,9.782423019
1784152363.592639,0.021668298,-0.055586323,-0.446071446,-0.000058449,-0.001036559,0.000632053,0.554240465,0.212199956,9.788355827
1784152363.594641,0.021663180,-0.055583943,-0.446073651,-0.000341664,-0.000769600,0.000618905,0.535999179,0.224200308,9.771825790
1784152363.596645,0.021655999,-0.055582363,-0.446069330,-0.001105995,-0.000335338,0.000645879,0.589246750,0.208568469,9.731876373
1784152363.598642,0.021655187,-0.055587005,-0.446068883,-0.001360913,-0.000491212,0.000825845,0.547035873,0.206417933,9.732271194
1784152363.600650,0.021654923,-0.055594806,-0.446069270,-0.001064084,-0.001201839,0.000611403,0.531416476,0.215397179,9.757867813
1784152363.602645,0.021646934,-0.055595219,-0.446067601,-0.001297167,-0.001445354,0.000564310,0.535922587,0.216705814,9.754741669
1784152363.604649,0.021643782,-0.055595055,-0.446067303,-0.001660120,-0.001081026,0.000586869,0.555082202,0.206886083,9.778009415
1784152363.606652,0.021648439,-0.055597313,-0.446073920,-0.001128536,-0.000910432,-0.000009722,0.577537894,0.209597602,9.797327995
1784152363.608657,0.021653512,-0.055596728,-0.446072876,-0.000180477,-0.000756316,-0.000425223,0.554155052,0.206662238,9.811183929
1784152363.610663,0.021657975,-0.055594720,-0.446065396,0.000547151,-0.000362322,0.000230463,0.555897355,0.199335530,9.767204285
1784152363.612671,0.021660913,-0.055598680,-0.446063936,0.000965927,-0.000326312,0.000742652,0.547278166,0.228593454,9.763796806
1784152363.614663,0.021661654,-0.055604808,-0.446058303,0.001012108,-0.000854599,0.001003965,0.546464086,0.203020513,9.833123207
1784152363.616668,0.021654833,-0.055612326,-0.446059108,0.000373567,-0.001555524,0.001083188,0.584001064,0.224322096,9.794290543
1784152363.618683,0.021651952,-0.055614140,-0.446063817,-0.000376299,-0.001788876,0.000456025,0.532797933,0.220926777,9.796909332
1784152363.620707,0.021651670,-0.055612974,-0.446062237,-0.000500419,-0.001352225,0.000129557,0.551273525,0.226987958,9.793378830
1784152363.622671,0.021649307,-0.055607706,-0.446056515,-0.000514758,-0.000535289,0.000598649,0.589160562,0.205051199,9.785654068
1784152363.624729,0.021647764,-0.055605698,-0.446046770,-0.000580008,0.000128998,0.001500282,0.586679459,0.184562743,9.772967339
1784152363.626681,0.021645157,-0.055605140,-0.446046382,-0.000611128,0.000380969,0.001794810,0.539716899,0.196085975,9.749234200
1784152363.628678,0.021638945,-0.055602770,-0.446048081,-0.000993563,0.000573056,0.001250670,0.541729391,0.215207681,9.765947342
1784152363.630676,0.021633204,-0.055600286,-0.446044117,-0.001525490,0.000750169,0.001106800,0.530585885,0.222420245,9.779880524
1784152363.632679,0.021632126,-0.055599388,-0.446042478,-0.001589451,0.000748383,0.001218399,0.545226038,0.207943439,9.773077011
1784152363.634678,0.021627525,-0.055599928,-0.446044832,-0.001583106,0.000533177,0.000865347,0.565866351,0.208489046,9.785204887
1784152363.636682,0.021629713,-0.055600654,-0.446036220,-0.001290104,0.000388524,0.001059973,0.547753811,0.228800699,9.733759880
1784152363.638683,0.021631235,-0.055599276,-0.446033478,-0.000641974,0.000420460,0.001528144,0.543625832,0.224093050,9.773178101
1784152363.640682,0.021626340,-0.055599298,-0.446035385,-0.000693052,0.000399575,0.001182156,0.565530956,0.255895406,9.798062325
1784152363.642679,0.021628581,-0.055597637,-0.446033835,-0.000819900,0.000439767,0.000858066,0.564652443,0.219276428,9.782583237
1784152363.644688,0.021629602,-0.055596512,-0.446031690,-0.000496115,0.000553005,0.000875825,0.552332580,0.201198816,9.763625145
1784152363.646694,0.021629609,-0.055590093,-0.446027637,-0.000221160,0.000940066,0.001052987,0.556137502,0.181878388,9.764401436
1784152363.648710,0.021625984,-0.055587258,-0.446027875,-0.000344770,0.001334410,0.001037744,0.546972811,0.204298615,9.778434753
1784152363.650713,0.021618972,-0.055587769,-0.446030200,-0.000981700,0.001126039,0.000625870,0.550860643,0.228896841,9.777699471
1784152363.652698,0.021612484,-0.055588104,-0.446030557,-0.001682873,0.000778809,0.000324359,0.569145739,0.220889971,9.799634933
1784152363.654702,0.021612762,-0.055591289,-0.446034789,-0.001707086,0.000341613,-0.000058009,0.543209672,0.189196602,9.766675949
1784152363.656694,0.021608420,-0.055590350,-0.446041733,-0.001488415,0.000041339,-0.000787378,0.540072441,0.191292226,9.792691231
1784152363.658702,0.021610390,-0.055587839,-0.446041912,-0.001198922,0.000215511,-0.001045543,0.532951653,0.197518945,9.812003136
1784152363.660702,0.021609336,-0.055587448,-0.446040958,-0.000808301,0.000355245,-0.000709753,0.550405443,0.228851706,9.784871101
1784152363.662699,0.021610580,-0.055589344,-0.446046174,-0.000598154,0.000189957,-0.000809725,0.556793034,0.237304702,9.781794548
1784152363.664701,0.021612182,-0.055588596,-0.446049541,-0.000281417,0.000087662,-0.001189073,0.581614792,0.210661173,9.766404152
1784152363.666700,0.021614525,-0.055588510,-0.446049958,0.000077240,0.000207761,-0.001139204,0.567378759,0.183542401,9.762181282
1784152363.668706,0.021612339,-0.055584840,-0.446052015,0.000087291,0.000495286,-0.000993849,0.562635064,0.200116605,9.771249771
1784152363.670705,0.021610208,-0.055583518,-0.446045995,-0.000213821,0.000705305,-0.000437151,0.525096714,0.213962063,9.782062531
1784152363.672709,0.021609571,-0.055585727,-0.446042329,-0.000293939,0.000440494,0.000345380,0.587054968,0.214274451,9.752532959
1784152363.674709,0.021609420,-0.055582393,-0.446042597,-0.000241421,0.000375037,0.000483087,0.537129343,0.207077891,9.783374786
1784152363.676707,0.021609312,-0.055576246,-0.446048200,-0.000195989,0.000853126,-0.000045466,0.538777411,0.196170270,9.802136421
1784152363.678709,0.021605995,-0.055573270,-0.446044415,-0.000362656,0.001183793,-0.000142099,0.525297940,0.194576338,9.798525810
1784152363.680710,0.021604855,-0.055571735,-0.446046382,-0.000559724,0.001171959,0.000038702,0.511257768,0.218346804,9.757419586
1784152363.682712,0.021610251,-0.055564348,-0.446056992,-0.000156331,0.001361630,-0.000838513,0.542477608,0.202265739,9.757345200
1784152363.684715,0.021611936,-0.055559732,-0.446065694,0.000303523,0.001698882,-0.001945530,0.577474654,0.203424722,9.783390045
1784152363.686722,0.021609444,-0.055557646,-0.446065843,0.000164925,0.001783142,-0.002013508,0.574418783,0.208999470,9.761005402
1784152363.688731,0.021610020,-0.055556595,-0.446069747,0.000006404,0.001609163,-0.001739499,0.542041659,0.203993365,9.767220497
1784152363.690723,0.021611949,-0.055558849,-0.446079493,0.000123076,0.001070031,-0.002209732,0.528265476,0.175741166,9.732503891
1784152363.692725,0.021613697,-0.055562247,-0.446084619,0.000440394,0.000405339,-0.002643697,0.526459754,0.176488400,9.756717682
1784152363.694726,0.021607634,-0.055562697,-0.446089536,0.000147752,0.000050547,-0.002598911,0.536904991,0.187475681,9.768005371
1784152363.696725,0.021599377,-0.055560168,-0.446094573,-0.000857352,0.000142276,-0.002511436,0.532559216,0.199589968,9.773459435
1784152363.698725,0.021601886,-0.055555549,-0.446094453,-0.000989781,0.000560736,-0.002137919,0.512576997,0.218523160,9.793288231
1784152363.700728,0.021600392,-0.055551939,-0.446094573,-0.000651918,0.000967009,-0.001557680,0.524659038,0.214460298,9.775788307
1784152363.702728,0.021594219,-0.055543955,-0.446095228,-0.001018883,0.001413691,-0.001153168,0.530761778,0.199997336,9.782425880
1784152363.704735,0.021589812,-0.055539254,-0.446095556,-0.001484306,0.001813227,-0.000858387,0.541925013,0.195777446,9.788686752
1784152363.706731,0.021590944,-0.055541459,-0.446089029,-0.001216379,0.001483000,-0.000194843,0.557251036,0.200188771,9.770796776
1784152363.708732,0.021594852,-0.055541836,-0.446081638,-0.000429260,0.000909077,0.000775023,0.579462409,0.218298882,9.767348289
1784152363.710736,0.021593520,-0.055538017,-0.446079850,-0.000103741,0.000909515,0.001176617,0.561806917,0.241911873,9.754928589
1784152363.712746,0.021603029,-0.055534288,-0.446077704,0.000427281,0.001250974,0.001092455,0.548580289,0.225392759,9.770501137
1784152363.714742,0.021612998,-0.055534627,-0.446073771,0.001588352,0.001220724,0.001139129,0.499988556,0.216056794,9.784741402
1784152363.716740,0.021619065,-0.055530332,-0.446072429,0.002214976,0.000985282,0.001135490,0.525488138,0.209451258,9.785620689
1784152363.718750,0.021618502,-0.055526271,-0.446070105,0.001951585,0.001109959,0.001061139,0.557438850,0.253444701,9.779208183
1784152363.720750,0.021625593,-0.055527207,-0.446071833,0.001866757,0.001020966,0.000789521,0.547137320,0.254129767,9.764408112
1784152363.722753,0.021638615,-0.055528641,-0.446074277,0.002471256,0.000627179,0.000229840,0.539777219,0.203856781,9.790530205
1784152363.724762,0.021643268,-0.055529837,-0.446075320,0.002748589,0.000323736,-0.000124078,0.534982920,0.215573356,9.789704323
1784152363.726757,0.021646557,-0.055527076,-0.446070403,0.002535683,0.000301937,0.000142050,0.542876661,0.199842140,9.782436371
1784152363.728755,0.021650914,-0.055526841,-0.446066141,0.002380885,0.000391835,0.000697547,0.523813546,0.220555633,9.802278519
1784152363.730805,0.021652613,-0.055522222,-0.446065843,0.002162133,0.000622341,0.000796091,0.570038378,0.217193410,9.750742912
1784152363.732763,0.021650171,-0.055521470,-0.446063310,0.001498330,0.000940248,0.000777655,0.577431202,0.199434415,9.777536392
1784152363.734774,0.021650167,-0.055521891,-0.446052909,0.000937281,0.000844483,0.001448246,0.550416946,0.230157450,9.790260315
1784152363.736759,0.021656170,-0.055523612,-0.446054250,0.000959848,0.000465854,0.001646900,0.541558564,0.240102127,9.793902397
1784152363.738765,0.021655122,-0.055522688,-0.446053296,0.000870112,0.000267042,0.001160064,0.547599852,0.258285701,9.809267044
1784152363.740762,0.021658564,-0.055522878,-0.446051806,0.000805628,0.000246978,0.001004676,0.568160117,0.250094622,9.789957047
1784152363.742770,0.021662021,-0.055528574,-0.446043998,0.000951762,-0.000204470,0.001340646,0.548479080,0.218514353,9.792874336
1784152363.744765,0.021670340,-0.055531949,-0.446035028,0.001416489,-0.000738187,0.002072223,0.529962540,0.207268432,9.769470215
1784152363.746764,0.021676149,-0.055530038,-0.446025908,0.002030343,-0.000734422,0.002680001,0.544327617,0.207541943,9.768140793
1784152363.748770,0.021677557,-0.055531487,-0.446017087,0.002008787,-0.000600741,0.003140798,0.567116737,0.237201095,9.777769089
1784152363.750772,0.021676963,-0.055534169,-0.446010649,0.001575507,-0.000695848,0.003312281,0.555701137,0.222002894,9.793351173
1784152363.752773,0.021682123,-0.055535249,-0.446003735,0.001477556,-0.000730596,0.003293328,0.579010427,0.256679267,9.789561272
1784152363.754776,0.021688094,-0.055534888,-0.446004242,0.001825341,-0.000559450,0.002793883,0.560624242,0.258214325,9.795830727
1784152363.756775,0.021691930,-0.055534769,-0.446006805,0.001809419,-0.000391995,0.001798040,0.520627201,0.251342803,9.763019562
1784152363.758777,0.021691991,-0.055533178,-0.446001828,0.001418175,-0.000178352,0.001469626,0.527249098,0.243104205,9.775527000
1784152363.760777,0.021696554,-0.055528749,-0.445995688,0.001388388,0.000294976,0.001810213,0.562478185,0.225525767,9.789793968
1784152363.762778,0.021699211,-0.055528104,-0.445999265,0.001494482,0.000624066,0.001462733,0.551887393,0.240443304,9.790328026
1784152363.764783,0.021698490,-0.055535205,-0.446005553,0.001167207,0.000063183,0.000392162,0.543641150,0.225023940,9.768252373
1784152363.766784,0.021695929,-0.055540264,-0.446013808,0.000526672,-0.000807286,-0.000679778,0.526473105,0.215399981,9.766382217
1784152363.768786,0.021696622,-0.055539291,-0.446024418,0.000138952,-0.000900407,-0.001764417,0.548340440,0.206883267,9.790557861
1784152363.770782,0.021697510,-0.055534922,-0.446024120,0.000169718,-0.000309083,-0.001990788,0.533524632,0.205789551,9.782018661
1784152363.772786,0.021697752,-0.055531822,-0.446024060,0.000300428,0.000260090,-0.001432682,0.553291738,0.206537411,9.767247200
1784152363.774790,0.021699261,-0.055530459,-0.446021140,0.000447308,0.000475071,-0.000846620,0.550655186,0.211874291,9.777589798
1784152363.776793,0.021701714,-0.055525322,-0.446022004,0.000610475,0.000793512,-0.000490896,0.559992254,0.242589146,9.789004326
1784152363.778788,0.021700650,-0.055524804,-0.446025521,0.000530731,0.000958294,-0.000665688,0.531151652,0.269033611,9.776592255
1784152363.780788,0.021699872,-0.055522304,-0.446024328,0.000253345,0.000899713,-0.000631900,0.535583377,0.226897016,9.771396637
1784152363.782796,0.021702560,-0.055518690,-0.446019948,0.000286605,0.000995285,-0.000082639,0.525892735,0.243445426,9.793012619
1784152363.784797,0.021707935,-0.055521116,-0.446015358,0.000740752,0.000735068,0.000514907,0.536507130,0.265898883,9.766714096
1784152363.786798,0.021717422,-0.055517297,-0.446016014,0.001252823,0.000509655,0.000607317,0.529871702,0.238872737,9.798814774
1784152363.788799,0.021721203,-0.055511530,-0.446019232,0.001488337,0.000890113,0.000153951,0.517747402,0.274518013,9.785581589
1784152363.790799,0.021727089,-0.055511471,-0.446018428,0.001730643,0.001039963,-0.000086660,0.546352446,0.263945550,9.771643639
1784152363.792801,0.021729551,-0.055513814,-0.446010739,0.001627911,0.000571515,0.000492571,0.537357271,0.225898609,9.782600403
1784152363.794806,0.021727391,-0.055513840,-0.446013778,0.000992981,0.000219734,0.000678914,0.558145821,0.236124843,9.756232262
1784152363.796807,0.021726975,-0.055513840,-0.446022511,0.000391186,0.000223707,-0.000285270,0.545267224,0.212321326,9.787450790
1784152363.798808,0.021727834,-0.055510547,-0.446031004,0.000136830,0.000442931,-0.001365258,0.530106902,0.220970809,9.795561790
1784152363.800810,0.021722922,-0.055509910,-0.446027875,-0.000195249,0.000581237,-0.001340038,0.530764997,0.236802697,9.773247719
1784152363.802811,0.021724762,-0.055508576,-0.446024418,-0.000422988,0.000496866,-0.000510344,0.512092352,0.215002477,9.785195351
1784152363.804814,0.021730391,-0.055507597,-0.446028203,0.000099531,0.000449078,-0.000410201,0.547849178,0.238874897,9.766103745
