time_sec,roll_rad,pitch_rad,yaw_rad,gyro_x,gyro_y,gyro_z,acc_x,acc_y,acc_z
1784147946.536596,0.000884778,-0.055749673,0.001160360,-0.001746405,0.001355472,-0.000858632,0.527326822,-0.008874570,9.799913406
1784147946.538565,0.000884778,-0.055749673,0.001160360,-0.001772130,0.000663777,-0.000583506,0.551604331,-0.006783063,9.777086258
1784147946.540536,0.000883934,-0.055749498,0.001160360,-0.001015085,-0.000010141,-0.000436950,0.559863389,-0.028041860,9.790407181
1784147946.542569,0.000883934,-0.055749498,0.001160360,-0.000495590,0.000069923,0.000539431,0.570037186,-0.003492328,9.785194397
1784147946.544517,0.000883926,-0.055750873,0.001160361,0.000040611,-0.000323654,0.001284552,0.552943051,0.030325787,9.785842896
1784147946.546524,0.000883926,-0.055750873,0.001160361,0.000395398,-0.000766664,0.000959950,0.537158668,0.025033843,9.802381516
1784147946.548525,0.000883926,-0.055750873,0.001160361,0.000061096,-0.000758130,0.000579970,0.540221453,0.018703066,9.805034637
1784147946.550505,0.000884266,-0.055750601,0.001160361,-0.000655515,-0.000947017,0.000662356,0.534863114,0.020598873,9.800109863
1784147946.552512,0.000884266,-0.055750601,0.001160361,-0.001157443,-0.000939625,0.000524643,0.548457026,0.029986199,9.778662682
1784147946.554509,0.000885322,-0.055750925,0.001160361,-0.000630032,-0.000383017,-0.000040536,0.565493286,0.026006358,9.740545273
1784147946.556510,0.000885322,-0.055750925,0.001160361,0.000532113,0.000050409,-0.000505027,0.563381970,0.002052119,9.773566246
1784147946.558509,0.000885322,-0.055750925,0.001160361,0.001644388,-0.000088350,-0.000574737,0.535017610,-0.002802603,9.814306259
1784147946.560515,0.000885076,-0.055750415,0.001160361,0.002127202,-0.000226107,0.000059724,0.536969304,0.007328433,9.772229195
1784147946.562492,0.000885076,-0.055750415,0.001160361,0.002032639,0.000200438,0.000506098,0.535382807,-0.010356921,9.804842949
1784147946.564487,0.000883842,-0.055749673,0.001160360,0.002004246,0.000731816,0.000002186,0.546574116,-0.015570939,9.761780739
1784147946.566568,0.000883842,-0.055749673,0.001160360,0.001870865,0.000636814,-0.000801017,0.565901995,-0.013120849,9.760470390
1784147946.568510,0.000883842,-0.055749673,0.001160360,0.001754035,0.000511274,-0.000971295,0.544730008,-0.018369248,9.780590057
1784147946.570496,0.000883044,-0.055749826,0.001160360,0.001816288,0.000705222,-0.000931050,0.556728780,0.010042669,9.796029091
1784147946.572499,0.000883044,-0.055749826,0.001160360,0.001714187,0.000630892,-0.000704598,0.550698817,-0.006025088,9.798161507
1784147946.574487,0.000882674,-0.055750012,0.001160360,0.001601244,0.000378505,-0.000432485,0.559372663,0.005169636,9.783445358
1784147946.576485,0.000882674,-0.055750012,0.001160360,0.001376349,0.000253831,-0.000829860,0.557575643,-0.032009792,9.785448074
1784147946.578490,0.000882674,-0.055750012,0.001160360,0.000632501,0.000165498,-0.000506489,0.550609350,-0.014431422,9.783311844
1784147946.580497,0.000881593,-0.055750489,0.001160361,-0.000581294,0.000048308,0.000720570,0.541839361,0.003099996,9.791037560
1784147946.582497,0.000881593,-0.055750489,0.001160361,-0.001463948,0.000054465,0.001362257,0.553716183,0.022037962,9.815828323
1784147946.584493,0.000882022,-0.055750240,0.001160361,-0.001256638,0.000068777,0.001668659,0.539400876,0.024588931,9.797898293
1784147946.586498,0.000882022,-0.055750240,0.001160361,-0.000635552,0.000074135,0.001892588,0.537169337,0.024713062,9.784447670
1784147946.588504,0.000882022,-0.055750240,0.001160361,-0.000071782,0.000276600,0.001768172,0.534224749,0.041702699,9.794862747
1784147946.590497,0.000883461,-0.055749804,0.001160360,0.000666100,0.000652563,0.002004262,0.525150478,0.033732127,9.797943115
1784147946.592500,0.000883461,-0.055749804,0.001160360,0.000605656,0.000841904,0.002337296,0.536062002,0.007667068,9.789268494
1784147946.594501,0.000883263,-0.055750083,0.001160360,-0.000001582,0.000541353,0.001692031,0.555878520,0.011642887,9.761515617
1784147946.596499,0.000883263,-0.055750083,0.001160360,0.000029128,0.000447504,0.000537442,0.559495866,0.016273271,9.796966553
1784147946.598512,0.000883263,-0.055750083,0.001160360,0.000272457,0.000824519,0.000060205,0.563714683,-0.007379894,9.776196480
1784147946.600510,0.000882526,-0.055750884,0.001160361,0.000323271,0.001188317,0.000073875,0.566261530,-0.019909607,9.769393921
1784147946.602516,0.000882526,-0.055750884,0.001160361,0.000374707,0.001076308,-0.000098762,0.541967273,0.013835165,9.793347359
1784147946.604515,0.000882513,-0.055750076,0.001160360,0.000518227,0.000812357,-0.000026805,0.541445315,0.005968391,9.766397476
1784147946.606524,0.000882513,-0.055750076,0.001160360,0.000336627,0.001016152,0.000514767,0.543467462,-0.012423583,9.765833855
1784147946.608511,0.000882513,-0.055750076,0.001160360,0.000043310,0.001275674,0.000693037,0.526161551,0.004727770,9.779376030
1784147946.610511,0.000882134,-0.055750046,0.001160360,0.000366943,0.000990960,0.000821119,0.525773883,0.010483886,9.789725304
1784147946.612512,0.000882134,-0.055750046,0.001160360,0.001229762,0.000342151,0.001346206,0.539654374,0.008453402,9.798243523
1784147946.614518,0.000881468,-0.055749532,0.001160360,0.001590353,0.000178155,0.001766124,0.524178803,-0.011321775,9.771650314
1784147946.616551,0.000881468,-0.055749532,0.001160360,0.001330103,0.000225320,0.002234594,0.540151775,0.011669229,9.786159515
1784147946.618532,0.000881468,-0.055749532,0.001160360,0.000919836,-0.000062480,0.002663983,0.574414313,0.024661586,9.787619591
1784147946.620523,0.000881931,-0.055750828,0.001160361,0.000589136,0.000054292,0.002635572,0.571103156,0.012416100,9.814437866
1784147946.622534,0.000881931,-0.055750828,0.001160361,0.000153903,0.000503099,0.002345815,0.540576816,0.011475882,9.812609673
1784147946.624532,0.000882198,-0.055750463,0.001160361,-0.000236299,0.000688726,0.001826946,0.524446845,0.011057206,9.774482727
1784147946.626533,0.000882198,-0.055750463,0.001160361,-0.000227063,0.001164103,0.001234695,0.529389501,0.012264708,9.784807205
1784147946.628533,0.000882198,-0.055750463,0.001160361,-0.000347625,0.001404893,0.000621939,0.576841950,0.001060031,9.762813568
1784147946.630586,0.000882304,-0.055751760,0.001160362,-0.000442232,0.000915515,-0.000008681,0.551821470,-0.025638154,9.781895638
1784147946.632580,0.000882304,-0.055751760,0.001160362,-0.000579503,0.000832390,-0.000899910,0.553666890,0.013949592,9.756148338
1784147946.634557,0.000882805,-0.055751711,0.001160362,-0.000855271,0.001206596,-0.001691432,0.553280115,0.018091919,9.741380692
1784147946.636606,0.000882805,-0.055751711,0.001160362,-0.000497333,0.001451523,-0.001671604,0.532273293,0.028331384,9.788499832
1784147946.638640,0.000882805,-0.055751711,0.001160362,0.000297286,0.000919901,-0.001281180,0.548678637,0.010356019,9.766432762
1784147946.640556,0.000882749,-0.055751957,0.001160362,0.000707074,-0.000006862,-0.000783412,0.567376554,0.000033649,9.798214912
1784147946.642550,0.000882749,-0.055751957,0.001160362,0.000684052,-0.000406108,-0.000816907,0.554925561,0.010405527,9.811271667
1784147946.644590,0.000882694,-0.055751666,0.001160362,0.000431319,-0.000819298,-0.001022883,0.565876126,0.023048926,9.777738571
1784147946.646573,0.000882694,-0.055751666,0.001160362,0.000114886,-0.001553624,-0.000724263,0.546982467,0.018451855,9.765137672
1784147946.648581,0.000882694,-0.055751666,0.001160362,0.000373811,-0.002020525,-0.000722186,0.566250920,0.017191069,9.781735420
1784147946.650592,0.000882828,-0.055752236,0.001160362,0.000839562,-0.001893453,-0.001078667,0.545097768,0.014928949,9.822947502
1784147946.652565,0.000882828,-0.055752236,0.001160362,0.000783190,-0.001581290,-0.001229453,0.519206583,0.024421936,9.794738770
1784147946.654558,0.000883936,-0.055751339,0.001160361,0.001103298,-0.001341327,-0.001085930,0.530651212,0.004285915,9.770411491
1784147946.656559,0.000883936,-0.055751339,0.001160361,0.001736904,-0.000971514,-0.001196275,0.548830330,-0.012257648,9.795876503
1784147946.658579,0.000883936,-0.055751339,0.001160361,0.001603031,-0.000587694,-0.001276968,0.548329234,0.019251039,9.776352882
1784147946.660568,0.000883861,-0.055751730,0.001160362,0.000690875,-0.000389519,-0.001301397,0.545167625,0.018722495,9.793381691
1784147946.662565,0.000883861,-0.055751730,0.001160362,0.000389332,-0.000193074,-0.001643258,0.569746017,0.009104029,9.778550148
1784147946.664565,0.000883952,-0.055753306,0.001160363,0.001331068,0.000403609,-0.001581048,0.583198607,0.006027940,9.745814323
1784147946.666563,0.000883952,-0.055753306,0.001160363,0.002020252,0.001178797,-0.001299152,0.547601104,-0.004427917,9.768130302
1784147946.668615,0.000883952,-0.055753306,0.001160363,0.001778163,0.001394099,-0.001512115,0.541384518,0.000624656,9.761879921
1784147946.670578,0.000883592,-0.055753540,0.001160363,0.001595759,0.001028036,-0.001507713,0.545983136,0.010365075,9.770016670
1784147946.672575,0.000883592,-0.055753540,0.001160363,0.001835371,0.000301501,-0.000549731,0.571468294,0.039614908,9.769330978
1784147946.674574,0.000884307,-0.055754256,0.001160364,0.001846671,-0.000279899,0.000129548,0.546103716,0.021043004,9.780396461
1784147946.676570,0.000884307,-0.055754256,0.001160364,0.001412452,0.000130729,0.000393666,0.523641169,0.019087486,9.780812263
1784147946.678579,0.000884307,-0.055754256,0.001160364,0.001004777,0.000393415,0.000820399,0.562524557,0.044831976,9.807913780
1784147946.680573,0.000885885,-0.055754468,0.001160364,0.000412068,-0.000058564,0.000892541,0.545044422,0.046018902,9.798488617
1784147946.682574,0.000885885,-0.055754468,0.001160364,-0.000325155,-0.000274656,0.000638361,0.534914374,0.024246158,9.791166306
1784147946.684578,0.000885935,-0.055753656,0.001160364,-0.000064601,-0.000225240,0.000545872,0.546378732,0.007912843,9.799142838
1784147946.686641,0.000885935,-0.055753656,0.001160364,0.000706476,0.000091483,0.000643448,0.531132221,0.008588073,9.794649124
1784147946.688604,0.000885935,-0.055753656,0.001160364,0.000853847,0.000400448,0.000425480,0.539531708,-0.002647059,9.784273148
1784147946.690589,0.000885692,-0.055753674,0.001160364,0.000671938,0.000558640,-0.000059072,0.548466146,-0.005100419,9.798164368
1784147946.692632,0.000885692,-0.055753674,0.001160364,0.000591925,0.000493876,-0.000503241,0.561221123,0.007596301,9.753872871
1784147946.694602,0.000885558,-0.055754185,0.001160364,0.000674502,0.000120528,-0.000720097,0.559318483,-0.001336743,9.753365517
1784147946.696592,0.000885558,-0.055754185,0.001160364,0.000701920,0.000207667,-0.000677555,0.561539352,-0.002760248,9.760532379
1784147946.698590,0.000885558,-0.055754185,0.001160364,0.000309035,0.000615702,-0.000338419,0.553278267,-0.018297246,9.755044937
1784147946.700590,0.000884379,-0.055754252,0.001160364,-0.000053071,0.000642121,0.000177785,0.584719539,-0.013178262,9.797698975
1784147946.702637,0.000884379,-0.055754252,0.001160364,0.000117327,0.000604901,0.000193174,0.572410762,0.006016477,9.766875267
1784147946.704603,0.000884514,-0.055754751,0.001160364,-0.000033479,0.000273658,0.000382771,0.564303577,0.004258162,9.776719093
1784147946.706604,0.000884514,-0.055754751,0.001160364,-0.000604120,-0.000650192,0.001094014,0.562575340,0.009669415,9.774959564
1784147946.708604,0.000884514,-0.055754751,0.001160364,-0.000947595,-0.001324207,0.001648359,0.525876343,0.017371820,9.766008377
1784147946.710601,0.000884609,-0.055753972,0.001160364,-0.000737078,-0.001062782,0.001822445,0.559978306,0.018154759,9.783530235
1784147946.712601,0.000884609,-0.055753972,0.001160364,0.000107760,-0.000518370,0.001717662,0.557316184,0.020857947,9.786234856
1784147946.714607,0.000884754,-0.055754643,0.001160364,0.000740730,-0.000158402,0.001713359,0.544197857,0.012894603,9.795586586
1784147946.716605,0.000884754,-0.055754643,0.001160364,0.000897877,0.000290753,0.001115074,0.578278303,0.010265542,9.788876534
1784147946.718610,0.000884754,-0.055754643,0.001160364,0.000812229,0.000441894,0.000389101,0.551872969,0.015195651,9.773190498
1784147946.720607,0.000884675,-0.055755422,0.001160365,0.000185214,0.000302445,0.000453660,0.556382120,0.016933179,9.772759438
1784147946.722617,0.000884675,-0.055755422,0.001160365,-0.000629811,0.000563266,0.000736814,0.544061005,0.000466151,9.779366493
1784147946.724610,0.000884391,-0.055755455,0.001160365,-0.000390060,0.000941501,0.001071824,0.546568632,0.023191221,9.792515755
1784147946.726614,0.000884391,-0.055755455,0.001160365,0.000614449,0.001010987,0.001171632,0.542872787,0.012267115,9.760162354
1784147946.728621,0.000884391,-0.055755455,0.001160365,0.000765626,0.000870098,0.001206247,0.548586428,0.003144122,9.772663116
1784147946.730654,0.000884015,-0.055756014,0.001160366,0.000024535,0.000615310,0.001120953,0.540070653,0.004949814,9.786115646
1784147946.732682,0.000884015,-0.055756014,0.001160366,-0.000696696,0.000290208,0.000642561,0.547136545,0.030610397,9.756249428
1784147946.734635,0.000885145,-0.055755924,0.001160366,-0.000822564,0.000316177,0.000765503,0.541662395,0.024703272,9.777725220
1784147946.736652,0.000885145,-0.055755924,0.001160366,-0.000081160,0.000557334,0.001308922,0.557772219,0.021316061,9.783996582
1784147946.738643,0.000885145,-0.055755924,0.001160366,0.000547892,0.000535836,0.001415011,0.554490089,0.008489435,9.766426086
1784147946.740630,0.000885241,-0.055756256,0.001160366,0.000373029,0.000421108,0.001147753,0.538161933,-0.002410782,9.816553116
1784147946.742632,0.000885241,-0.055756256,0.001160366,-0.000260838,0.000307326,0.000897930,0.513997376,0.001658245,9.791898727
1784147946.744652,0.000884958,-0.055754546,0.001160364,-0.000564918,-0.000105123,0.001346165,0.523357153,-0.002201981,9.813850403
1784147946.746642,0.000884958,-0.055754546,0.001160364,-0.000319647,-0.000646491,0.001978979,0.539728165,0.015115581,9.806355476
1784147946.748635,0.000884958,-0.055754546,0.001160364,-0.000531717,-0.000476249,0.002045363,0.526539922,0.000925297,9.809390068
1784147946.750637,0.000884660,-0.055753861,0.001160363,-0.001024231,0.000032941,0.001517673,0.543181121,0.003047769,9.795969963
1784147946.752636,0.000884660,-0.055753861,0.001160363,-0.001054711,0.000565211,0.000665331,0.567521930,0.010502093,9.774969101
1784147946.754643,0.000884730,-0.055754714,0.001160364,-0.000824111,0.001019468,0.000496476,0.559986889,0.019438228,9.792056084
1784147946.756636,0.000884730,-0.055754714,0.001160364,-0.000374478,0.000697831,0.000623003,0.549273610,0.022851845,9.772340775
1784147946.758657,0.000884730,-0.055754714,0.001160364,-0.000064502,0.000342476,-0.000061752,0.570189536,0.010273644,9.802318573
1784147946.760673,0.000884899,-0.055755269,0.001160364,-0.000085646,0.000662020,-0.000521656,0.571798146,0.032997482,9.817261696
1784147946.762672,0.000884899,-0.055755269,0.001160364,-0.000374542,0.000926889,0.000262265,0.549642682,0.016949473,9.782615662
1784147946.764654,0.000884978,-0.055755042,0.001160364,-0.000824213,0.000814223,0.001192297,0.542656541,-0.004434633,9.777989388
1784147946.766668,0.000884978,-0.055755042,0.001160364,-0.000773643,0.000549184,0.001688879,0.572240353,-0.008702647,9.757814407
1784147946.768658,0.000884978,-0.055755042,0.001160364,-0.000229604,0.000300624,0.001401265,0.568753600,0.000261232,9.763696671
1784147946.770657,0.000883994,-0.055755816,0.001160365,0.000185630,-0.000018560,0.000198153,0.532418549,0.002019928,9.770847321
1784147946.772665,0.000883994,-0.055755816,0.001160365,-0.000341272,-0.000061372,-0.000804926,0.516769946,0.006310035,9.762788773
1784147946.774663,0.000884087,-0.055754717,0.001160364,-0.000994250,0.000213119,-0.001010880,0.532019496,0.044060286,9.782323837
1784147946.776659,0.000884087,-0.055754717,0.001160364,-0.001020687,0.000296259,-0.000510987,0.560230315,0.001196443,9.773557663
1784147946.778663,0.000884087,-0.055754717,0.001160364,-0.000768432,0.000407232,-0.000037797,0.576481104,-0.028130574,9.772936821
1784147946.780675,0.000882653,-0.055755340,0.001160364,-0.000275608,0.000646623,0.000326343,0.556278586,0.010442329,9.803652763
1784147946.782673,0.000882653,-0.055755340,0.001160364,-0.000135449,0.000643496,0.000572226,0.541576207,0.017539071,9.777231216
1784147946.784767,0.000883054,-0.055755123,0.001160364,-0.000416884,0.000162917,0.000170418,0.539857090,0.023426902,9.771439552
1784147946.786716,0.000883054,-0.055755123,0.001160364,-0.000079287,-0.000244925,-0.000464740,0.532894492,0.004660615,9.776692390
1784147946.788695,0.000883054,-0.055755123,0.001160364,0.000315445,-0.000252995,-0.001358842,0.557904780,0.031682756,9.775095940
1784147946.790694,0.000883216,-0.055755928,0.001160365,-0.000140657,-0.000309502,-0.001253473,0.518978775,0.043597810,9.807863235
1784147946.792683,0.000883216,-0.055755928,0.001160365,-0.000224973,-0.000611527,-0.000166872,0.535416782,0.026690071,9.761592865
1784147946.794684,0.000883973,-0.055755571,0.001160365,-0.000047466,-0.000509143,0.000464416,0.554385841,0.001182145,9.786106110
1784147946.796688,0.000883973,-0.055755571,0.001160365,0.000050629,-0.000071581,0.000493032,0.555123270,0.024124166,9.771906853
1784147946.798696,0.000883973,-0.055755571,0.001160365,0.000300528,-0.000163303,-0.000372664,0.543062806,-0.005990939,9.807120323
1784147946.800691,0.000884366,-0.055754840,0.001160364,0.000244948,-0.000549221,-0.001384558,0.583044112,-0.006133784,9.755151749
1784147946.802684,0.000884366,-0.055754840,0.001160364,0.000261814,-0.000472984,-0.001794697,0.574953556,-0.005734957,9.776666641
1784147946.804691,0.000883497,-0.055756353,0.001160366,0.000364775,-0.000225193,-0.001316037,0.553554952,0.006581899,9.784345627
1784147946.806686,0.000883497,-0.055756353,0.001160366,0.000181207,-0.000405861,-0.000319895,0.544435203,-0.006611584,9.765872002
1784147946.808686,0.000883497,-0.055756353,0.001160366,-0.000133267,-0.000640422,-0.000100528,0.525056779,-0.012702595,9.775229454
1784147946.810694,0.000881522,-0.055754699,0.001160364,-0.000518723,-0.000390870,-0.000714855,0.538672388,-0.000713352,9.765904427
1784147946.812689,0.000881522,-0.055754699,0.001160364,-0.000451772,0.000218050,-0.000978936,0.567498565,0.009507609,9.788861275
1784147946.814692,0.000882038,-0.055755973,0.001160365,-0.000064106,0.000313679,-0.000793628,0.536710262,0.023826072,9.783992767
1784147946.816690,0.000882038,-0.055755973,0.001160365,-0.000111132,0.000044135,-0.000534684,0.539644778,0.007567018,9.796892166
1784147946.818694,0.000882038,-0.055755973,0.001160365,0.000019924,0.000062647,-0.000452897,0.547271729,0.007056297,9.791965485
1784147946.820692,0.000881704,-0.055755898,0.001160365,0.000948216,0.000140147,-0.000554102,0.549971044,0.006672407,9.778066635
1784147946.822691,0.000881704,-0.055755898,0.001160365,0.001278252,-0.000034095,-0.000557457,0.525193512,0.034882423,9.762084007
1784147946.824707,0.000883332,-0.055754889,0.001160364,0.000452368,-0.000096087,-0.000470975,0.537525475,0.018302314,9.803236008
1784147946.826706,0.000883332,-0.055754889,0.001160364,0.000104978,0.000016455,-0.000153965,0.536440849,0.001030928,9.776671410
1784147946.828704,0.000883332,-0.055754889,0.001160364,0.000665065,0.000071121,0.000168372,0.523408532,0.000635224,9.792798042
1784147946.830726,0.000882216,-0.055752926,0.001160362,0.001036684,0.000128230,0.000583747,0.550041616,0.011282389,9.759715080
1784147946.832723,0.000882216,-0.055752926,0.001160362,0.000548919,0.000232674,0.000777178,0.551194251,-0.002825161,9.788319588
1784147946.834707,0.000881613,-0.055753186,0.001160362,-0.000219117,0.000531192,0.000593741,0.549626291,0.015198960,9.776777267
1784147946.836750,0.000881613,-0.055753186,0.001160362,-0.000345066,0.000708097,0.000442521,0.561245143,0.010217299,9.763304710
1784147946.838731,0.000881613,-0.055753186,0.001160362,0.000448092,0.000807437,0.000658532,0.553081691,0.003556849,9.769530296
1784147946.840722,0.000881293,-0.055753432,0.001160363,0.001078358,0.000804697,0.001230751,0.558703661,-0.013584928,9.775703430
1784147946.842717,0.000881293,-0.055753432,0.001160363,0.000700916,0.000274070,0.001264244,0.529672444,0.000818278,9.818807602
1784147946.844715,0.000880917,-0.055752553,0.001160362,0.000030333,-0.000032792,0.000728852,0.546553671,0.021856874,9.791162491
1784147946.846730,0.000880917,-0.055752553,0.001160362,-0.000305445,0.000532763,0.000542034,0.566836894,0.027590176,9.767457008
1784147946.848728,0.000880917,-0.055752553,0.001160362,-0.000405988,0.001046778,0.001128809,0.570759416,0.017708721,9.763811111
1784147946.850721,0.000881776,-0.055753902,0.001160363,0.000076028,0.000946933,0.001608663,0.555814683,0.008707108,9.796466827
1784147946.852720,0.000881776,-0.055753902,0.001160363,0.000805759,0.000587330,0.001108800,0.529957831,0.022523910,9.790253639
1784147946.854722,0.000882378,-0.055753190,0.001160362,0.000395285,0.000190532,0.000904873,0.549530387,0.006741753,9.769100189
1784147946.856723,0.000882378,-0.055753190,0.001160362,-0.000231924,-0.000154525,0.001658072,0.558752358,-0.009553277,9.775729179
1784147946.858725,0.000882378,-0.055753190,0.001160362,-0.000198508,-0.000248082,0.002027909,0.515137374,0.022608701,9.805036545
1784147946.860724,0.000883322,-0.055752151,0.001160362,-0.000386501,0.000030362,0.001919838,0.519884229,0.006059940,9.792380333
1784147946.862727,0.000883322,-0.055752151,0.001160362,-0.000484975,0.000396222,0.001607404,0.540720284,-0.015254910,9.790918350
1784147946.864731,0.000882472,-0.055751897,0.001160361,-0.000609496,0.000719528,0.001018996,0.562935710,0.002887016,9.782986641
1784147946.866738,0.000882472,-0.055751897,0.001160361,-0.000992663,0.000652552,0.000534042,0.544174075,0.010680234,9.791984558
1784147946.868735,0.000882472,-0.055751897,0.001160361,-0.000966353,0.000455589,0.000324832,0.528689146,0.030852104,9.818551064
1784147946.870734,0.000883413,-0.055750832,0.001160361,-0.000764922,0.000523915,0.000534930,0.541271687,0.031650640,9.809601784
1784147946.872741,0.000883413,-0.055750832,0.001160361,-0.000532576,0.000263017,0.001300152,0.565985918,-0.002732261,9.811646461
1784147946.874739,0.000883089,-0.055751674,0.001160361,-0.000473979,-0.000088951,0.002037048,0.549156904,0.014635924,9.793807030
1784147946.876738,0.000883089,-0.055751674,0.001160361,-0.000449370,-0.000380164,0.002411179,0.558323145,-0.008178207,9.772151947
1784147946.878745,0.000883089,-0.055751674,0.001160361,-0.000196344,-0.000682184,0.002250360,0.557472467,-0.002934259,9.792359352
1784147946.880742,0.000882555,-0.055752512,0.001160362,-0.000025005,-0.000486531,0.001882775,0.534668028,0.004469097,9.800455093
1784147946.882745,0.000882555,-0.055752512,0.001160362,0.000028640,-0.000112786,0.002193826,0.544348955,0.025434328,9.796114922
1784147946.884745,0.000883219,-0.055752210,0.001160362,-0.000243182,-0.000091255,0.002761517,0.514416099,0.036573771,9.795708656
1784147946.886748,0.000883219,-0.055752210,0.001160362,-0.000782235,0.000004420,0.002470957,0.564441502,0.052662797,9.774339676
1784147946.888749,0.000883219,-0.055752210,0.001160362,-0.001080628,0.000223073,0.001285469,0.533449233,0.013191555,9.773160934
1784147946.890752,0.000884350,-0.055751640,0.001160361,-0.001082937,0.000217715,0.000475433,0.544674873,0.013111426,9.764204025
1784147946.892749,0.000884350,-0.055751640,0.001160361,-0.000813801,0.000332459,0.000608494,0.567972660,0.013349086,9.814890862
1784147946.894755,0.000884308,-0.055752244,0.001160362,-0.000314419,0.000052462,0.000758040,0.554504633,0.011440741,9.792448044
1784147946.896753,0.000884308,-0.055752244,0.001160362,-0.000265228,-0.000884206,0.000555519,0.536666334,-0.017757390,9.772068977
1784147946.898760,0.000884308,-0.055752244,0.001160362,-0.000609190,-0.001527793,0.000624219,0.525796115,0.011875462,9.783008575
1784147946.900760,0.000884150,-0.055750944,0.001160360,-0.000565446,-0.001549390,0.000605019,0.561816514,0.021312011,9.777275085
1784147946.902760,0.000884150,-0.055750944,0.001160360,-0.000438455,-0.001309069,-0.000237774,0.549948871,0.006497525,9.802723885
1784147946.904763,0.000883684,-0.055751331,0.001160361,-0.000617828,-0.001167839,-0.000725998,0.563747704,-0.004282320,9.781596184
1784147946.906841,0.000883684,-0.055751331,0.001160361,-0.000590814,-0.001394514,-0.000451436,0.568711281,-0.001289326,9.792828560
1784147946.908770,0.000883684,-0.055751331,0.001160361,-0.000532114,-0.001412751,-0.000792094,0.536283612,0.025626848,9.783555984
1784147946.910773,0.000884102,-0.055750951,0.001160360,-0.000918143,-0.000953323,-0.001056360,0.548629165,0.043907970,9.773819923
1784147946.912768,0.000884102,-0.055750951,0.001160360,-0.001021930,-0.000751634,-0.000418950,0.544778407,-0.013124080,9.799006462
1784147946.914767,0.000882789,-0.055750672,0.001160360,-0.000576182,-0.000932873,-0.000190277,0.517717481,0.012773126,9.797352791
1784147946.916771,0.000882789,-0.055750672,0.001160360,-0.000102295,-0.000792429,-0.000689854,0.541596591,0.018914748,9.772757530
1784147946.918773,0.000882789,-0.055750672,0.001160360,0.000353981,-0.000457215,-0.001070367,0.546684384,0.032210849,9.784055710
1784147946.920776,0.000883600,-0.055750325,0.001160360,0.000649196,-0.000267717,-0.001167414,0.549490750,0.039966576,9.759450912
1784147946.922778,0.000883600,-0.055750325,0.001160360,0.000669108,0.000266977,-0.001001537,0.572433591,-0.026935264,9.801185608
1784147946.924778,0.000882281,-0.055751048,0.001160361,0.000557360,0.000763639,-0.000519265,0.541840494,0.001892833,9.771751404
1784147946.926779,0.000882281,-0.055751048,0.001160361,0.000203159,0.000984289,-0.000151104,0.537789345,0.001032762,9.773983002
1784147946.928785,0.000882281,-0.055751048,0.001160361,-0.000347454,0.000737192,-0.000373038,0.525637627,-0.000318057,9.796829224
1784147946.930794,0.000881269,-0.055749968,0.001160360,-0.000570439,0.000250938,-0.000806914,0.539482534,-0.006681887,9.784695625
1784147946.932796,0.000881269,-0.055749968,0.001160360,-0.000201564,0.000573951,-0.000955905,0.571976244,0.008160286,9.781235695
1784147946.934786,0.000881891,-0.055751819,0.001160361,-0.000129855,0.001096164,-0.000539656,0.543606281,0.036394030,9.768388748
1784147946.936826,0.000881891,-0.055751819,0.001160361,-0.000952332,0.000820826,-0.000367829,0.557633519,0.008468267,9.763738632
1784147946.938806,0.000881891,-0.055751819,0.001160361,-0.001423468,0.000692633,-0.000530877,0.553684056,0.016516538,9.773201942
1784147946.940798,0.000882210,-0.055752240,0.001160362,-0.000602615,0.001357117,-0.000065925,0.557072878,0.001106321,9.791936874
1784147946.942801,0.000882210,-0.055752240,0.001160362,-0.000004653,0.001788628,0.000037820,0.540835202,0.030131638,9.771932602
1784147946.944804,0.000884014,-0.055751670,0.001160361,-0.000510247,0.001830343,-0.000738051,0.536463559,0.039205581,9.763916016
1784147946.946808,0.000884014,-0.055751670,0.001160361,-0.000772863,0.001642495,-0.001123796,0.531529129,0.003715166,9.786099434
1784147946.948807,0.000884014,-0.055751670,0.001160361,-0.000536015,0.001048840,-0.001045635,0.550604701,-0.013252879,9.806632042
1784147946.950810,0.000882455,-0.055752128,0.001160362,-0.000487190,0.000782462,-0.001439262,0.553084850,0.005202426,9.790165901
1784147946.952810,0.000882455,-0.055752128,0.001160362,-0.001047025,0.000667931,-0.001907037,0.545472860,0.007047500,9.796446800
1784147946.954813,0.000882014,-0.055751882,0.001160362,-0.001767083,0.000207889,-0.001925467,0.518851042,-0.005537400,9.786925316
1784147946.956816,0.000882014,-0.055751882,0.001160362,-0.001659882,-0.000119160,-0.001432394,0.505791962,-0.008576349,9.796756744
1784147946.958811,0.000882014,-0.055751882,0.001160362,-0.000982876,-0.000077983,-0.000727702,0.523246586,-0.013207052,9.786432266
1784147946.960807,0.000880120,-0.055749755,0.001160360,-0.000418407,-0.000191420,-0.000431650,0.558974326,0.009219755,9.781678200
1784147946.962809,0.000880120,-0.055749755,0.001160360,0.000228812,-0.000256611,-0.000540439,0.560307384,0.008694135,9.790194511
1784147946.964811,0.000879784,-0.055750664,0.001160361,0.000361497,0.000079084,-0.000870819,0.546937227,0.016068960,9.785296440
1784147946.966811,0.000879784,-0.055750664,0.001160361,-0.000089464,-0.000138884,-0.001042738,0.537954092,-0.021072524,9.794914246
1784147946.968814,0.000879784,-0.055750664,0.001160361,-0.000186466,-0.000519146,-0.000681446,0.557309210,-0.016786076,9.787337303
1784147946.970817,0.000879287,-0.055751570,0.001160361,0.000106811,-0.000356528,0.000631785,0.547800064,-0.023426093,9.793114662
1784147946.972820,0.000879287,-0.055751570,0.001160361,0.000231254,-0.000111548,0.001661229,0.554362476,-0.000218965,9.794166565
1784147946.974816,0.000878202,-0.055752199,0.001160362,-0.000320795,0.000549684,0.001131159,0.550821006,0.002638798,9.776697159
1784147946.976817,0.000878202,-0.055752199,0.001160362,-0.001047039,0.001038310,0.000184926,0.541236639,-0.011079567,9.769875526
1784147946.978824,0.000878202,-0.055752199,0.001160362,-0.001373753,0.000269717,0.000536666,0.571343899,-0.005441323,9.804909706
1784147946.980821,0.000877146,-0.055754110,0.001160363,-0.001272806,-0.000620493,0.001224847,0.538468540,0.021893583,9.800569534
1784147946.982839,0.000877146,-0.055754110,0.001160363,-0.000595431,-0.000784553,0.000917507,0.523104370,0.049503103,9.789076805
1784147946.984838,0.000879662,-0.055753514,0.001160363,0.000079323,-0.000922252,0.000404970,0.543027043,0.025642356,9.769214630
1784147946.986831,0.000879662,-0.055753514,0.001160363,0.000569856,-0.001077657,0.000211802,0.530473411,-0.008870300,9.793640137
1784147946.988832,0.000879662,-0.055753514,0.001160363,0.000915105,-0.000685432,-0.000142744,0.525202453,-0.000610825,9.775754929
1784147946.990830,0.000879601,-0.055752203,0.001160362,0.000396657,0.000187676,-0.000904428,0.544637024,-0.026397575,9.775608063
1784147946.992835,0.000879601,-0.055752203,0.001160362,-0.000560477,0.000827650,-0.001081118,0.544860959,-0.007608643,9.779314995
1784147946.994834,0.000878802,-0.055751920,0.001160362,-0.000543124,0.000581755,-0.000815527,0.558922052,0.004349411,9.773577690
1784147946.996849,0.000878802,-0.055751920,0.001160362,-0.000159805,-0.000446893,-0.000698398,0.535891652,-0.005835359,9.798148155
1784147946.998841,0.000878802,-0.055751920,0.001160362,-0.000292815,-0.000780150,-0.000232319,0.538928330,0.021570241,9.782185555
1784147947.000839,0.000878996,-0.055751026,0.001160361,-0.000291302,-0.000198456,0.000509104,0.597735941,0.023466701,9.787634850
1784147947.002842,0.000878996,-0.055751026,0.001160361,0.000507178,0.000309024,0.000671868,0.581621468,0.027222384,9.792575836
1784147947.004841,0.000879055,-0.055752017,0.001160362,0.001269915,0.000677429,0.000682410,0.545463860,0.004950774,9.776259422
1784147947.006846,0.000879055,-0.055752017,0.001160362,0.000773188,0.000737513,0.001282966,0.531207025,0.013636478,9.777645111
1784147947.008855,0.000879055,-0.055752017,0.001160362,0.000375234,0.000799339,0.001774664,0.540233850,0.017584931,9.773195267
1784147947.010847,0.000879810,-0.055750757,0.001160361,0.000430096,0.000843873,0.001609903,0.559555531,0.018770630,9.760667801
1784147947.012847,0.000879810,-0.055750757,0.001160361,-0.000091522,0.000704481,0.001145043,0.543537199,-0.006199818,9.772598267
1784147947.014914,0.000878104,-0.055750299,0.001160360,-0.000202168,0.000472819,0.001004670,0.526244104,0.011863353,9.783905983
1784147947.016882,0.000878104,-0.055750299,0.001160360,0.000093081,-0.000059759,0.000864876,0.540537655,0.043893814,9.790400505
1784147947.018882,0.000878104,-0.055750299,0.001160360,-0.000086762,-0.000191267,0.000727735,0.519748867,0.032044251,9.792994499
1784147947.020890,0.000880385,-0.055748951,0.001160359,0.000271403,-0.000044672,0.001333978,0.544948936,0.000784970,9.795956612
1784147947.022877,0.000880385,-0.055748951,0.001160359,0.000942518,-0.000551729,0.001357660,0.544847965,-0.008927086,9.775719643
1784147947.024868,0.000879226,-0.055748817,0.001160359,0.001056349,-0.000695324,0.000436880,0.565172851,0.001187252,9.765941620
1784147947.026872,0.000879226,-0.055748817,0.001160359,0.001000008,-0.000224669,0.000130121,0.538058221,-0.012145101,9.799454689
1784147947.028869,0.000879226,-0.055748817,0.001160359,0.000649966,0.000117324,0.000592123,0.540946364,0.001929772,9.768163681
1784147947.030900,0.000878617,-0.055748526,0.001160359,0.000269620,0.000510922,0.001073708,0.519454718,0.005811685,9.765029907
1784147947.032911,0.000878617,-0.055748526,0.001160359,0.000278933,0.000454684,0.001080096,0.509607911,0.008968966,9.779836655
1784147947.034899,0.000878650,-0.055746719,0.001160357,0.000318024,-0.000086515,0.000414098,0.563877523,0.005252048,9.763724327
1784147947.036906,0.000878650,-0.055746719,0.001160357,0.000130394,-0.000423780,-0.000179412,0.556707621,0.009470706,9.813508987
1784147947.038894,0.000878650,-0.055746719,0.001160357,-0.000405428,-0.000598707,0.000290573,0.536506176,0.006409642,9.776259422
1784147947.040890,0.000879225,-0.055746354,0.001160357,-0.000799520,-0.000893184,0.001462399,0.557541788,0.002476248,9.787462234
1784147947.042896,0.000879225,-0.055746354,0.001160357,-0.000543992,-0.001200455,0.001810957,0.542059422,0.021047056,9.787117958
1784147947.044936,0.000880047,-0.055745654,0.001160356,-0.000192566,-0.001419550,0.001000109,0.540504277,0.001582947,9.754712105
1784147947.046914,0.000880047,-0.055745654,0.001160356,-0.000205859,-0.001448931,0.000193092,0.548356891,0.021900643,9.781749725
1784147947.048908,0.000880047,-0.055745654,0.001160356,-0.000268138,-0.001220547,0.000057791,0.555031836,0.016512003,9.771409988
1784147947.050948,0.000880446,-0.055746276,0.001160357,-0.000364585,-0.000660517,0.000430685,0.533828259,0.008988820,9.796446800
1784147947.052902,0.000880446,-0.055746276,0.001160357,-0.000651948,-0.000338092,0.000358528,0.541649640,0.023791447,9.779961586
1784147947.054914,0.000880977,-0.055746458,0.001160357,-0.001102492,-0.000693918,0.000193978,0.533223867,0.031576440,9.771485329
1784147947.056924,0.000880977,-0.055746458,0.001160357,-0.001395116,-0.000884952,0.000634147,0.565576136,0.000012132,9.804490089
1784147947.058912,0.000880977,-0.055746458,0.001160357,-0.001098860,-0.000846409,0.000433103,0.532956183,0.010010709,9.780313492
1784147947.060907,0.000881079,-0.055745710,0.001160356,-0.000793397,-0.001083751,-0.000617283,0.553864062,0.032932110,9.795723915
1784147947.062928,0.000881079,-0.055745710,0.001160356,-0.001007202,-0.001398154,-0.001022923,0.573584557,0.030070873,9.784516335
1784147947.064909,0.000881207,-0.055747688,0.001160358,-0.000728753,-0.001456090,-0.000630816,0.554216683,-0.014337509,9.763589859
1784147947.066939,0.000881207,-0.055747688,0.001160358,0.000145456,-0.001324327,-0.000541704,0.533885241,-0.022072507,9.816871643
1784147947.068907,0.000881207,-0.055747688,0.001160358,0.000168999,-0.001183181,-0.000892701,0.539117277,-0.001154339,9.764107704
1784147947.070914,0.000881194,-0.055747267,0.001160358,-0.000497570,-0.000819557,-0.001382706,0.554533184,0.013286637,9.784838676
1784147947.072919,0.000881194,-0.055747267,0.001160358,-0.000859205,-0.000737650,-0.001469714,0.538505137,0.023803074,9.783993721
1784147947.074909,0.000881288,-0.055747256,0.001160358,-0.000874701,-0.000973845,-0.000685919,0.566688538,0.016692838,9.788011551
1784147947.076907,0.000881288,-0.055747256,0.001160358,-0.000840884,-0.000370992,-0.000345216,0.529959500,0.021726560,9.776350975
1784147947.078916,0.000881288,-0.055747256,0.001160358,-0.001061904,0.000614900,-0.000762279,0.540803432,0.026233528,9.753077507
1784147947.080918,0.000882341,-0.055747248,0.001160358,-0.001354737,0.000988564,-0.000418369,0.526376009,-0.014553022,9.781046867
1784147947.082911,0.000882341,-0.055747248,0.001160358,-0.001281438,0.001110923,0.000283081,0.520146072,-0.011225519,9.765370369
1784147947.084957,0.000881563,-0.055745773,0.001160356,-0.000774366,0.001234488,0.000253439,0.557472348,-0.004961029,9.762307167
1784147947.086927,0.000881563,-0.055745773,0.001160356,-0.000171343,0.001090873,-0.000238432,0.545261800,-0.013666449,9.748342514
1784147947.088933,0.000881563,-0.055745773,0.001160356,0.000210616,0.000751442,-0.000363481,0.561850071,0.023602683,9.770116806
1784147947.090987,0.000882029,-0.055746049,0.001160357,0.000056761,0.000775938,0.000015596,0.549176455,0.016411863,9.796061516
1784147947.092935,0.000882029,-0.055746049,0.001160357,-0.000067181,0.001282325,-0.000102686,0.535838723,0.025257764,9.773241043
1784147947.094933,0.000882599,-0.055745762,0.001160356,-0.000034964,0.001167023,-0.000696808,0.553430259,-0.005344530,9.760508537
1784147947.096929,0.000882599,-0.055745762,0.001160356,-0.000524973,0.000457484,-0.000953402,0.556622386,0.002719495,9.817948341
1784147947.098927,0.000882599,-0.055745762,0.001160356,-0.001023498,0.000264997,-0.000958228,0.540113330,0.008933770,9.792866707
1784147947.100926,0.000882470,-0.055745821,0.001160356,-0.001133300,0.000192709,-0.000744340,0.550547421,0.018211901,9.792487144
1784147947.102938,0.000882470,-0.055745821,0.001160356,-0.001342313,-0.000109885,-0.000698434,0.553530097,0.040327817,9.764388084
1784147947.104938,0.000883477,-0.055746000,0.001160357,-0.001836110,-0.000269100,-0.001242851,0.560011804,-0.015927833,9.787796021
1784147947.106931,0.000883477,-0.055746000,0.001160357,-0.002212118,-0.000187805,-0.001493965,0.538820863,-0.024162516,9.786825180
1784147947.108933,0.000883477,-0.055746000,0.001160357,-0.001761847,0.000058723,-0.001205358,0.534765840,-0.026674537,9.769320488
1784147947.110934,0.000881526,-0.055745292,0.001160356,-0.000998627,0.000341950,-0.001047998,0.569483459,0.025979679,9.800177574
1784147947.112942,0.000881526,-0.055745292,0.001160356,-0.000498600,0.000404446,-0.000862045,0.581216455,0.028788235,9.762098312
1784147947.114935,0.000882455,-0.055746850,0.001160357,-0.000156555,0.000177125,-0.000222685,0.560177445,0.034316339,9.778702736
1784147947.116949,0.000882455,-0.055746850,0.001160357,-0.000179197,-0.000039654,0.000260416,0.560040176,0.023911482,9.792982101
1784147947.118944,0.000882455,-0.055746850,0.001160357,-0.000447110,-0.000085540,0.000395954,0.533232570,0.033266522,9.785842896
1784147947.120953,0.000882984,-0.055746291,0.001160357,-0.000638190,0.000328976,0.000822126,0.530594468,0.000190670,9.779351234
1784147947.122947,0.000882984,-0.055746291,0.001160357,-0.000344465,0.000676291,0.001783394,0.561224520,0.008838433,9.768228531
1784147947.124945,0.000882797,-0.055747263,0.001160358,0.000622499,0.000257431,0.002120084,0.535388768,0.026064049,9.786696434
1784147947.126949,0.000882797,-0.055747263,0.001160358,0.001146761,-0.000166665,0.001534027,0.559857786,0.008693520,9.791090965
1784147947.128959,0.000882797,-0.055747263,0.001160358,0.000698026,-0.000324104,0.001341289,0.565887094,0.024351476,9.783575058
1784147947.130952,0.000882753,-0.055748262,0.001160359,0.000623608,-0.000425623,0.001544340,0.531222582,0.016190691,9.796490669
1784147947.132954,0.000882753,-0.055748262,0.001160359,0.000844097,-0.000283562,0.001206501,0.562043190,0.001316524,9.753386497
1784147947.134953,0.000882848,-0.055749264,0.001160360,0.000807759,-0.000173078,0.000165836,0.545335412,0.031799223,9.781362534
1784147947.136963,0.000882848,-0.055749264,0.001160360,0.000577625,-0.000435148,-0.000143215,0.555704832,0.034488294,9.762557983
1784147947.138964,0.000882848,-0.055749264,0.001160360,0.000084609,-0.000499882,0.000173386,0.558306932,0.026447730,9.754440308
1784147947.140980,0.000884077,-0.055750173,0.001160361,-0.000069305,-0.000007948,0.000190733,0.522993088,0.004145175,9.804027557
1784147947.142965,0.000884077,-0.055750173,0.001160361,0.000019091,0.000387466,-0.000319606,0.562007070,0.000220288,9.781622887
1784147947.144967,0.000883200,-0.055751055,0.001160361,-0.000278772,0.000660210,-0.000493474,0.544562280,0.005333920,9.787019730
1784147947.146967,0.000883200,-0.055751055,0.001160361,-0.000748165,0.001160968,0.000464255,0.541015387,0.008553801,9.781657219
1784147947.148969,0.000883200,-0.055751055,0.001160361,-0.000970661,0.000876285,0.001194626,0.527668297,0.017326573,9.769146919
1784147947.150974,0.000883716,-0.055749640,0.001160360,-0.001118477,0.000168971,0.001037962,0.552832305,0.020940866,9.782644272
1784147947.152972,0.000883716,-0.055749640,0.001160360,-0.001152216,-0.000220438,0.000816341,0.532913625,0.008053526,9.803614616
1784147947.154971,0.000883786,-0.055748180,0.001160359,-0.001011245,-0.000201135,0.000855414,0.534456730,-0.014624714,9.776570320
1784147947.156975,0.000883786,-0.055748180,0.001160359,-0.001158411,0.000138944,0.000993609,0.559179962,-0.010941060,9.781101227
1784147947.159004,0.000883786,-0.055748180,0.001160359,-0.001507214,-0.000205013,0.001144757,0.564396441,0.011069793,9.763761520
1784147947.160983,0.000883554,-0.055749267,0.001160360,-0.001383533,-0.000621981,0.001308695,0.548281074,0.018059408,9.818039894
1784147947.162983,0.000883554,-0.055749267,0.001160360,-0.000473797,-0.000394046,0.001342128,0.553830087,0.029421559,9.785388947
1784147947.164985,0.000884475,-0.055749755,0.001160360,-0.000077684,0.000224082,0.001494942,0.575442612,0.037030835,9.810564995
1784147947.166990,0.000884475,-0.055749755,0.001160360,-0.000352222,0.000463688,0.001730559,0.562465250,0.001910995,9.795084953
1784147947.168997,0.000884475,-0.055749755,0.001160360,-0.000395530,0.000131133,0.002134301,0.519221604,-0.011833685,9.789575577
1784147947.170997,0.000883351,-0.055748809,0.001160359,-0.000478458,0.000141745,0.002375594,0.535979509,0.002558253,9.814789772
1784147947.173007,0.000883351,-0.055748809,0.001160359,-0.000403299,0.000801077,0.001724836,0.540089846,0.004695813,9.758766174
1784147947.175014,0.000883023,-0.055748750,0.001160359,-0.000526481,0.001535633,0.001197744,0.553975761,0.005140059,9.797338486
1784147947.177025,0.000883023,-0.055748750,0.001160359,-0.000891003,0.001749505,0.000847641,0.543840289,0.019292628,9.778590202
1784147947.179014,0.000883023,-0.055748750,0.001160359,-0.000745107,0.001574673,0.000952442,0.555191278,0.029118514,9.762523651
1784147947.181013,0.000883742,-0.055748653,0.001160359,-0.000699477,0.001046557,0.001910998,0.540100515,0.005995180,9.765050888
1784147947.183012,0.000883742,-0.055748653,0.001160359,-0.001027020,0.000720272,0.002518789,0.550686359,0.028629471,9.776414871
1784147947.185035,0.000885360,-0.055749167,0.001160359,-0.000967607,0.001096759,0.002080915,0.560606480,-0.002218492,9.812092781
1784147947.187006,0.000885360,-0.055749167,0.001160359,-0.000544700,0.001296818,0.001455238,0.559517384,0.017658494,9.791148186
1784147947.189007,0.000885360,-0.055749167,0.001160359,-0.000570426,0.000637189,0.000831954,0.551010072,0.018720893,9.783076286
1784147947.191017,0.000884975,-0.055749610,0.001160360,-0.000917387,-0.000214467,-0.000166244,0.545601010,0.015759077,9.768257141
1784147947.193018,0.000884975,-0.055749610,0.001160360,-0.000840990,-0.000513899,-0.000981370,0.571259975,-0.015019838,9.765842438
1784147947.195010,0.000884555,-0.055750638,0.001160361,-0.000365571,-0.000306460,-0.001265261,0.556896448,-0.013660498,9.789598465
1784147947.197017,0.000884555,-0.055750638,0.001160361,0.000180331,-0.000050717,-0.001272603,0.526602030,0.004251807,9.782511711
1784147947.199023,0.000884555,-0.055750638,0.001160361,0.000699803,-0.000227922,-0.000918747,0.546668053,-0.005102857,9.801749229
1784147947.201022,0.000884398,-0.055749800,0.001160360,0.000731193,-0.000589807,-0.000247623,0.550952017,-0.022163786,9.798954010
1784147947.203017,0.000884398,-0.055749800,0.001160360,-0.000022006,-0.000806634,-0.000156829,0.542639375,0.030588398,9.767453194
1784147947.205015,0.000885882,-0.055749848,0.001160360,-0.000678613,-0.000996991,-0.000488178,0.547814131,0.015085232,9.796051025
1784147947.207033,0.000885882,-0.055749848,0.001160360,-0.000849488,-0.001121201,-0.000692890,0.541670978,0.025986742,9.786252975
1784147947.209029,0.000885882,-0.055749848,0.001160360,-0.000700438,-0.001033648,-0.001003060,0.553119302,0.008716166,9.800050735
1784147947.211025,0.000886337,-0.055750199,0.001160360,-0.000101418,-0.000759276,-0.001209011,0.559865177,0.010777523,9.813073158
1784147947.213022,0.000886337,-0.055750199,0.001160360,0.000443782,-0.000489681,-0.001177965,0.557495952,-0.000723072,9.796407700
1784147947.215029,0.000885732,-0.055750161,0.001160360,-0.000044995,-0.000371404,-0.001536279,0.533674896,0.032399837,9.780906677
1784147947.217037,0.000885732,-0.055750161,0.001160360,-0.001013401,-0.000010088,-0.001562073,0.558278382,0.027032048,9.798379898
1784147947.219035,0.000885732,-0.055750161,0.001160360,-0.001101796,0.000462575,-0.001596769,0.548453331,-0.008039006,9.770348549
1784147947.221032,0.000885316,-0.055749215,0.001160359,-0.000805791,0.000537458,-0.002345045,0.549007118,0.001295657,9.779824257
1784147947.223035,0.000885316,-0.055749215,0.001160359,-0.000829237,0.000251717,-0.002748017,0.550048769,-0.025440272,9.757238388
1784147947.225036,0.000883961,-0.055749953,0.001160360,-0.000661672,0.000506447,-0.002533256,0.551881731,-0.020704225,9.781030655
1784147947.227036,0.000883961,-0.055749953,0.001160360,-0.000213462,0.000812832,-0.002104836,0.558541894,0.011786086,9.799627304
1784147947.229040,0.000883961,-0.055749953,0.001160360,0.000267538,0.000243285,-0.001941322,0.562147915,0.011463833,9.775419235
1784147947.231043,0.000884091,-0.055750493,0.001160361,0.000273046,-0.000206449,-0.001407754,0.542562664,0.025524098,9.786699295
1784147947.233054,0.000884091,-0.055750493,0.001160361,-0.000607984,-0.000434869,-0.000965754,0.534089208,-0.006682850,9.794553757
1784147947.235044,0.000883312,-0.055750921,0.001160361,-0.001196042,-0.000708074,-0.000933100,0.530459702,-0.008168334,9.820993423
1784147947.237045,0.000883312,-0.055750921,0.001160361,-0.000719476,-0.000739302,-0.000509799,0.530264795,0.009241489,9.767304420
1784147947.239054,0.000883312,-0.055750921,0.001160361,0.000172307,-0.000534709,-0.000072934,0.549598336,0.014572933,9.801878929
1784147947.241083,0.000882804,-0.055750377,0.001160361,0.000733666,-0.000186833,0.000264336,0.547743380,0.045631826,9.785039902
1784147947.243067,0.000882804,-0.055750377,0.001160361,0.000621128,0.000219418,-0.000013445,0.564725578,0.038389068,9.764833450
1784147947.245055,0.000883505,-0.055751648,0.001160362,0.000574136,0.000336990,-0.000541677,0.552769840,0.015584416,9.779919624
1784147947.247064,0.000883505,-0.055751648,0.001160362,0.001062146,0.000254241,-0.000800234,0.561085343,-0.001175692,9.790580750
1784147947.249077,0.000883505,-0.055751648,0.001160362,0.001381237,0.000193688,-0.000880338,0.542568326,0.026785312,9.798363686
1784147947.251091,0.000884331,-0.055752099,0.001160362,0.001250567,0.000027053,-0.000867746,0.534959078,-0.008533888,9.801267624
1784147947.253065,0.000884331,-0.055752099,0.001160362,0.001157301,0.000138081,-0.000604549,0.556791723,-0.023807799,9.767565727
1784147947.255066,0.000882994,-0.055753134,0.001160363,0.001235204,0.000395501,-0.000104717,0.555327952,0.004360431,9.778506279
1784147947.257068,0.000882994,-0.055753134,0.001160363,0.001096117,0.000767899,-0.000191171,0.557873547,-0.007368746,9.785158157
1784147947.259073,0.000882994,-0.055753134,0.001160363,0.000866181,0.000807802,-0.000454215,0.549328208,-0.009848707,9.771234512
1784147947.261063,0.000882089,-0.055753473,0.001160363,0.000563541,0.000081365,-0.000487798,0.540289462,-0.013892557,9.789134026
1784147947.263065,0.000882089,-0.055753473,0.001160363,0.000251135,-0.000503278,-0.000115578,0.508884311,-0.013458316,9.784622192
1784147947.265068,0.000880265,-0.055752039,0.001160362,0.000067048,-0.000158343,0.000593188,0.551417887,-0.018792532,9.828117371
1784147947.267069,0.000880265,-0.055752039,0.001160362,-0.000429080,0.000165740,0.001614798,0.577955425,0.020180497,9.781317711
1784147947.269073,0.000880265,-0.055752039,0.001160362,-0.000781977,-0.000445220,0.002516790,0.556098878,0.033240039,9.811419487
1784147947.271074,0.000881798,-0.055752162,0.001160362,-0.000425377,-0.001092028,0.002704386,0.538775146,0.008607988,9.778069496
1784147947.273076,0.000881798,-0.055752162,0.001160362,-0.000085479,-0.000984126,0.002194537,0.542265475,0.001699490,9.798202515
1784147947.275077,0.000881532,-0.055752616,0.001160363,-0.000230760,-0.000468861,0.001752718,0.575164557,0.013762291,9.806828499
1784147947.277076,0.000881532,-0.055752616,0.001160363,-0.000445246,-0.000057765,0.001665557,0.570684850,0.012256877,9.774536133
1784147947.279078,0.000881532,-0.055752616,0.001160363,-0.000399744,0.000509416,0.001621926,0.569260597,0.005983590,9.777183533
1784147947.281077,0.000881055,-0.055754010,0.001160364,-0.000096901,0.000793366,0.001644004,0.546573758,0.022015853,9.768747330
1784147947.283095,0.000881055,-0.055754010,0.001160364,0.000191229,0.000427171,0.001061293,0.560750425,0.007833796,9.784360886
1784147947.285084,0.000880938,-0.055754911,0.001160364,0.000127515,-0.000157867,0.000183291,0.525161266,-0.004988689,9.761380196
1784147947.287088,0.000880938,-0.055754911,0.001160364,-0.000045326,-0.000547363,-0.000348010,0.546301007,0.000005344,9.777124405
1784147947.289087,0.000880938,-0.055754911,0.001160364,-0.000025133,-0.000618906,-0.000372606,0.538402915,0.014891547,9.777212143
1784147947.291087,0.000888950,-0.055759784,0.001130036,0.000082640,-0.000369681,0.000134149,0.532707632,0.026591020,9.780419350
1784147947.293094,0.000888950,-0.055759784,0.001130036,0.000199591,-0.000027197,0.000539721,0.546872020,0.009880177,9.773601532
1784147947.295090,0.000888624,-0.055760294,0.001130036,0.000373193,0.000006241,0.000689697,0.584444225,-0.000861353,9.767292023
1784147947.297088,0.000888624,-0.055760294,0.001130036,0.000750276,-0.000065972,0.001430627,0.574329555,0.017103476,9.779502869
1784147947.299102,0.000888624,-0.055760294,0.001130036,0.001244832,0.000131483,0.001899922,0.559170425,0.024952449,9.774158478
1784147947.301100,0.000889684,-0.055760734,0.001130037,0.001333407,0.000031912,0.001319369,0.564866304,0.013662782,9.776331902
1784147947.303097,0.000889684,-0.055760734,0.001130037,0.000990203,-0.000989301,0.000746094,0.537878931,0.007818953,9.764613152
1784147947.305096,0.000889707,-0.055760313,0.001130036,0.000234067,-0.001640003,0.000689220,0.555105031,-0.014015510,9.779731750
1784147947.307102,0.000889707,-0.055760313,0.001130036,-0.000832190,-0.001245731,0.000850377,0.535995245,0.002682260,9.797306061
1784147947.309099,0.000889707,-0.055760313,0.001130036,-0.000954907,-0.000694910,0.000861975,0.568734527,-0.000294839,9.778937340
1784147947.311100,0.000889171,-0.055762604,0.001130038,-0.000051003,-0.000429572,0.000744883,0.532393873,0.036172472,9.756718636
1784147947.313104,0.000889171,-0.055762604,0.001130038,0.000568722,-0.000417511,0.000929288,0.557077765,0.037114296,9.768854141
1784147947.315110,0.000891094,-0.055763431,0.001130039,0.000497550,-0.000136312,0.001587815,0.550729573,0.032213163,9.776437759
1784147947.317106,0.000891094,-0.055763431,0.001130039,0.000145439,0.000667410,0.001799627,0.568871558,0.012133606,9.795157433
1784147947.319108,0.000891094,-0.055763431,0.001130039,-0.000023703,0.000824196,0.001265711,0.556502640,-0.007142017,9.818782806
1784147947.321110,0.000890567,-0.055764791,0.001130040,0.000226876,0.000341847,0.000639356,0.534827173,0.015452276,9.767796516
1784147947.323109,0.000890567,-0.055764791,0.001130040,0.000486635,0.000387161,-0.000067329,0.514431953,0.037914477,9.796166420
1784147947.325110,0.000892381,-0.055763613,0.001130039,0.000295894,0.000528500,0.000031619,0.531872094,0.031549163,9.777759552
1784147947.327118,0.000892381,-0.055763613,0.001130039,-0.000476812,0.000653309,0.000590215,0.551726639,0.003097520,9.773562431
1784147947.329117,0.000892381,-0.055763613,0.001130039,-0.001181730,0.000839965,0.000311486,0.561405003,-0.013952918,9.759563446
1784147947.331122,0.000892303,-0.055763889,0.001130039,-0.001224997,0.000953867,-0.000053408,0.590716958,-0.000608345,9.783439636
1784147947.333122,0.000892303,-0.055763889,0.001130039,-0.000714680,0.001047119,-0.000011430,0.566884220,-0.004357540,9.786530495
1784147947.335118,0.000891534,-0.055765025,0.001130041,0.000666512,0.000833959,0.000055292,0.567013443,0.006793790,9.793327332
1784147947.337121,0.000891534,-0.055765025,0.001130041,0.001725961,0.000483096,-0.000384506,0.532960594,0.010045685,9.775382042
1784147947.339123,0.000891534,-0.055765025,0.001130041,0.001627677,0.000003552,-0.000815835,0.527102888,0.007089632,9.760561943
1784147947.341124,0.000891742,-0.055764876,0.001130040,0.001389681,-0.000633422,-0.000897247,0.580990851,0.009986583,9.760185242
1784147947.343129,0.000891742,-0.055764876,0.001130040,0.001001300,-0.000880139,-0.000793220,0.560109079,-0.009081228,9.769906044
1784147947.345130,0.000890940,-0.055765297,0.001130041,0.000322201,-0.000789041,-0.000156951,0.548064232,-0.002699059,9.776211739
1784147947.347141,0.000890940,-0.055765297,0.001130041,-0.000083788,-0.000815401,0.000595017,0.569999933,-0.007028318,9.778446198
1784147947.349148,0.000890940,-0.055765297,0.001130041,-0.000054182,-0.000925784,0.000763739,0.558830738,-0.003666188,9.766799927
1784147947.351173,0.000889996,-0.055765733,0.001130041,-0.000086895,-0.001075727,0.000579297,0.560924768,0.021368021,9.770998001
1784147947.353146,0.000889996,-0.055765733,0.001130041,0.000127555,-0.000899209,0.000392748,0.550322175,0.036596775,9.790812492
1784147947.355139,0.000889996,-0.055765733,0.001130041,0.000721517,-0.000433020,0.000205270,0.550322175,0.036596775,9.790812492
1784147947.357154,0.000892106,-0.055765923,0.001130041,0.000487816,0.000007759,-0.000581666,0.544432282,-0.005013697,9.793229103
1784147947.359151,0.000892106,-0.055765923,0.001130041,-0.000348829,0.000430028,-0.001805301,0.544432282,-0.005013697,9.793229103
1784147947.361148,0.000890468,-0.055765230,0.001130041,-0.000710452,0.000406562,-0.001976085,0.544366121,-0.011615467,9.776598930
1784147947.363153,0.000888820,-0.055764239,0.001130040,-0.000429521,0.000633705,-0.001791392,0.528713048,-0.008170408,9.761362076
1784147947.365150,0.000888820,-0.055764239,0.001130040,-0.000261916,0.000814808,-0.001205522,0.542803466,0.006046534,9.752949715
1784147947.367162,0.000888820,-0.055764239,0.001130040,-0.000524838,0.000674704,0.000230052,0.565685213,0.006547499,9.767321587
1784147947.369155,0.000888775,-0.055765804,0.001130041,-0.000352381,0.000697366,0.000843883,0.545582354,0.015206181,9.783048630
1784147947.371156,0.000888775,-0.055765804,0.001130041,0.000434609,-0.000117678,0.000709811,0.551802456,0.009775602,9.779433250
1784147947.373152,0.000888362,-0.055765893,0.001130041,0.000824032,-0.001014879,0.000519900,0.545865357,0.001329538,9.780717850
1784147947.375166,0.000888362,-0.055765893,0.001130041,0.000028683,-0.001152204,0.000274403,0.546105444,-0.013697398,9.814248085
1784147947.377156,0.000888362,-0.055765893,0.001130041,-0.000891264,-0.000873467,0.000566477,0.562354565,-0.004637090,9.834047318
1784147947.379165,0.000887506,-0.055766191,0.001130042,-0.000760964,-0.000176281,0.000981845,0.565612733,0.001111553,9.775803566
1784147947.381162,0.000887506,-0.055766191,0.001130042,-0.000555505,0.000353179,0.000508504,0.545887232,0.002717941,9.774450302
1784147947.383169,0.000887913,-0.055766162,0.001130042,-0.000767325,0.000602995,-0.000523620,0.539918661,0.028776992,9.775061607
1784147947.385206,0.000887913,-0.055766162,0.001130042,-0.000723347,0.000728847,-0.001275510,0.524907291,0.011143666,9.761483192
1784147947.387177,0.000887913,-0.055766162,0.001130042,-0.000190960,0.000362609,-0.001409818,0.553143203,0.008500320,9.767321587
1784147947.389174,0.000887963,-0.055766463,0.001130042,-0.000004315,0.000004550,-0.000948882,0.541853666,0.002807841,9.769067764
1784147947.391208,0.000887963,-0.055766463,0.001130042,-0.000641275,0.000236028,-0.000286647,0.518866122,-0.004203051,9.788278580
1784147947.393182,0.000887290,-0.055765338,0.001130041,-0.001053307,0.000153326,-0.000004104,0.521803677,0.015936604,9.786169052
1784147947.395187,0.000887290,-0.055765338,0.001130041,-0.000849738,-0.000181234,0.000020479,0.553898335,0.036039226,9.799778938
1784147947.397194,0.000887290,-0.055765338,0.001130041,-0.000749481,0.000081420,-0.000265747,0.556694686,0.007342191,9.797804832
1784147947.399182,0.000888125,-0.055765342,0.001130041,-0.000875013,0.000275676,-0.000600923,0.571982205,0.009828122,9.798730850
1784147947.401182,0.000888125,-0.055765342,0.001130041,-0.000646149,0.000050653,-0.000341177,0.530123830,-0.000381908,9.797729492
1784147947.403180,0.000887496,-0.055764761,0.001130040,-0.000465093,-0.000385519,0.000189536,0.551557779,0.025171010,9.757116318
1784147947.405192,0.000887496,-0.055764761,0.001130040,-0.000619844,-0.000500966,0.000378256,0.540011585,0.037615389,9.792155266
1784147947.407280,0.000887496,-0.055764761,0.001130040,-0.000672253,-0.000027633,0.000500886,0.523342669,0.029599836,9.752185822
1784147947.409200,0.000888468,-0.055763900,0.001130040,-0.000295823,0.000274614,0.000933627,0.517964661,0.031339850,9.769227028
1784147947.411196,0.000888468,-0.055763900,0.001130040,0.000099220,-0.000098707,0.000956931,0.535343230,0.022867911,9.795193672
1784147947.413194,0.000888355,-0.055763625,0.001130040,0.000005108,-0.000599765,0.000845662,0.543714821,0.009386607,9.785699844
1784147947.415191,0.000888355,-0.055763625,0.001130040,0.000045305,-0.000877728,0.001054090,0.558389246,-0.000766369,9.800892830
1784147947.417203,0.000888355,-0.055763625,0.001130040,0.000402161,-0.000955767,0.000882209,0.545346856,-0.006105169,9.756012917
1784147947.419204,0.000887431,-0.055764113,0.001130040,0.000250504,-0.000612418,0.000794674,0.530856073,0.022518774,9.789359093
1784147947.421210,0.000887431,-0.055764113,0.001130040,-0.000622688,-0.000607717,0.000999105,0.561734617,-0.023813810,9.759501457
1784147947.423196,0.000885550,-0.055765282,0.001130041,-0.001265210,-0.001285647,0.000729032,0.552420914,-0.013917422,9.770763397
1784147947.425198,0.000885550,-0.055765282,0.001130041,-0.001383512,-0.001259758,0.000283013,0.532748044,-0.006627444,9.789173126
1784147947.427207,0.000885550,-0.055765282,0.001130041,-0.001245487,-0.000542232,0.000106756,0.547368288,-0.022476733,9.786394119
1784147947.429210,0.000883986,-0.055765375,0.001130041,-0.000894343,-0.000168653,0.000375062,0.550959110,0.015076782,9.791570663
1784147947.431198,0.000883986,-0.055765375,0.001130041,-0.000528871,0.000262867,0.000806256,0.555238903,0.034357317,9.781836510
1784147947.433204,0.000885071,-0.055765327,0.001130041,-0.000499760,0.000346899,0.000938198,0.517818987,0.056027971,9.763109207
1784147947.435208,0.000885071,-0.055765327,0.001130041,-0.000863050,-0.000002605,0.001175832,0.532593191,0.017177476,9.781255722
1784147947.437210,0.000885071,-0.055765327,0.001130041,-0.001681012,0.000362051,0.001134895,0.532389879,0.000577478,9.784735680
1784147947.439215,0.000885529,-0.055764593,0.001130041,-0.002346279,0.000758427,0.000455825,0.554329574,-0.002909914,9.794597626
1784147947.441212,0.000885529,-0.055764593,0.001130041,-0.002044722,0.000262416,0.000337095,0.548491716,-0.003683399,9.787861824
1784147947.443218,0.000883859,-0.055764150,0.001130040,-0.001267574,-0.000287582,0.000683680,0.543167889,-0.036267262,9.780027390
1784147947.445212,0.000883859,-0.055764150,0.001130040,-0.000240954,-0.000041481,0.000326737,0.568870842,0.011317180,9.783943176
1784147947.447223,0.000883859,-0.055764150,0.001130040,0.000526006,0.000175144,-0.000185780,0.547543824,-0.008932967,9.771687508
1784147947.449212,0.000882644,-0.055764627,0.001130040,0.000247727,-0.000109220,-0.000364366,0.550824106,0.002664236,9.773110390
1784147947.451216,0.000882644,-0.055764627,0.001130040,-0.000387817,-0.000238938,-0.000621083,0.546405435,0.008529328,9.775385857
1784147947.453217,0.000881776,-0.055765901,0.001130041,-0.000706038,-0.000369667,-0.001024692,0.569650531,0.001866697,9.788366318
1784147947.455222,0.000881776,-0.055765901,0.001130041,-0.001101397,-0.000500245,-0.001138656,0.546604455,0.027121117,9.806887627
1784147947.457235,0.000881776,-0.055765901,0.001130041,-0.001293342,0.000013132,-0.000820995,0.563695371,0.028030680,9.774183273
1784147947.459231,0.000884233,-0.055767335,0.001130043,-0.000452836,0.000719421,-0.000730587,0.569674492,0.002460923,9.767746925
1784147947.461226,0.000884233,-0.055767335,0.001130043,0.000879000,0.000796863,-0.001099262,0.568204641,-0.008225196,9.760951996
1784147947.463228,0.000881730,-0.055768590,0.001130044,0.001842232,0.000187936,-0.001461815,0.546812713,0.004549157,9.767291069
1784147947.465222,0.000881730,-0.055768590,0.001130044,0.001962602,-0.000449044,-0.001457154,0.538399339,0.014052860,9.769136429
1784147947.467232,0.000881730,-0.055768590,0.001130044,0.000948532,-0.000723420,-0.001093417,0.552939713,-0.007696228,9.777080536
1784147947.469232,0.000881293,-0.055768043,0.001130044,-0.000491793,-0.000556746,-0.000665044,0.568699479,-0.002598237,9.787889481
1784147947.471232,0.000881293,-0.055768043,0.001130044,-0.001209343,0.000032175,-0.000855298,0.513808012,0.022352878,9.780374527
1784147947.473249,0.000882458,-0.055766050,0.001130042,-0.000880802,0.000508453,-0.001389420,0.551795483,0.008504850,9.769113541
1784147947.475243,0.000882458,-0.055766050,0.001130042,0.000038595,0.000357789,-0.001076194,0.546752095,0.000828746,9.786545753
1784147947.477238,0.000882458,-0.055766050,0.001130042,0.000738954,-0.000099042,-0.000073669,0.546613872,0.025574107,9.772355080
1784147947.479235,0.000882969,-0.055765621,0.001130041,-0.000119173,0.000070001,0.000476763,0.574756444,0.014899259,9.773659706
1784147947.481235,0.000882969,-0.055765621,0.001130041,-0.001119574,0.000435942,0.000102276,0.551854670,0.015456014,9.799644470
1784147947.483265,0.000882929,-0.055765461,0.001130041,-0.000694872,0.000295878,-0.000459795,0.554367721,-0.000987702,9.776227951
1784147947.485248,0.000882929,-0.055765461,0.001130041,0.000049872,0.000385368,-0.000578671,0.530181170,0.003313070,9.782060623
1784147947.487264,0.000882929,-0.055765461,0.001130041,0.000573333,0.000413219,-0.000412784,0.546403527,0.009730130,9.795567513
1784147947.489289,0.000883213,-0.055766080,0.001130042,0.000587712,-0.000136297,-0.000656730,0.523030758,0.006064206,9.786106110
1784147947.491268,0.000883213,-0.055766080,0.001130042,-0.000177465,-0.000506265,-0.001485371,0.561649859,0.007028121,9.770010948
1784147947.493266,0.000882984,-0.055767164,0.001130043,-0.000803503,-0.000398057,-0.001924566,0.547569752,-0.008322846,9.748826981
1784147947.495251,0.000882984,-0.055767164,0.001130043,-0.000989226,-0.000166792,-0.001160127,0.560881078,0.018591221,9.783533096
1784147947.497266,0.000882984,-0.055767164,0.001130043,-0.001017631,-0.000091017,-0.000350863,0.563268900,-0.007351886,9.773057938
1784147947.499264,0.000882671,-0.055768140,0.001130043,-0.000890197,0.000129007,-0.000482241,0.550565720,-0.018018285,9.783738136
1784147947.501298,0.000882671,-0.055768140,0.001130043,-0.000836142,0.000020498,-0.000705871,0.524683654,-0.006832017,9.769437790
1784147947.503264,0.000881502,-0.055767003,0.001130042,-0.000798865,-0.000221406,-0.000725278,0.529905140,-0.018319424,9.800303459
1784147947.505257,0.000881502,-0.055767003,0.001130042,-0.000798729,0.000501072,-0.000481727,0.564414799,0.014456344,9.791580200
1784147947.507271,0.000881502,-0.055767003,0.001130042,-0.000634297,0.001327287,0.000401650,0.573106587,-0.009365604,9.786502838
1784147947.509262,0.000880062,-0.055768974,0.001130044,-0.000393760,0.001423010,0.001186967,0.558631539,0.018572273,9.790255547
1784147947.511259,0.000880062,-0.055768974,0.001130044,-0.000002419,0.001190736,0.000728770,0.541587353,0.018841619,9.783067703
1784147947.513288,0.000880402,-0.055769406,0.001130045,0.000678164,0.000731488,0.000032954,0.546059430,0.017856408,9.787549019
1784147947.515274,0.000880402,-0.055769406,0.001130045,0.000969974,0.000036047,0.000029176,0.551267803,0.002213709,9.772660255
1784147947.517313,0.000880402,-0.055769406,0.001130045,0.001061805,0.000035591,-0.000115363,0.561439931,-0.010029376,9.774831772
1784147947.519284,0.000878860,-0.055770390,0.001130045,0.001189266,0.000575798,-0.000416120,0.550013781,0.011873062,9.802758217
1784147947.521271,0.000878860,-0.055770390,0.001130045,0.001149195,0.000464465,-0.000259154,0.560774982,0.008837826,9.769124031
1784147947.523282,0.000878195,-0.055770624,0.001130046,0.001079055,0.000004047,0.000141844,0.550455391,0.011406632,9.804550171
1784147947.525273,0.000878195,-0.055770624,0.001130046,0.000613089,-0.000254449,0.000361529,0.548898697,-0.007260118,9.786046982
1784147947.527278,0.000878195,-0.055770624,0.001130046,0.000019876,-0.000476688,0.000629286,0.540703952,0.018964406,9.767376900
1784147947.529282,0.000878561,-0.055770438,0.001130045,-0.000500375,-0.000386754,0.001006126,0.537548661,0.020106880,9.801453590
1784147947.531549,0.000878561,-0.055770438,0.001130045,-0.001039877,-0.000103849,0.001335761,0.538441598,0.018033631,9.776335716
1784147947.533425,0.000878617,-0.055770162,0.001130045,-0.001163680,-0.000098207,0.001503000,0.556307495,-0.026108630,9.776966095
1784147947.535349,0.000878617,-0.055770162,0.001130045,-0.000962541,0.000065529,0.001499822,0.541637838,-0.015107423,9.768505096
1784147947.537317,0.000878617,-0.055770162,0.001130045,-0.000418591,0.000057186,0.001064183,0.577121019,-0.012848411,9.764966011
1784147947.539315,0.000878010,-0.055771518,0.001130046,0.000463302,-0.000240567,0.000493247,0.573134482,-0.007929507,9.773510933
1784147947.541309,0.000878010,-0.055771518,0.001130046,0.001069655,-0.000369415,0.000456847,0.549117267,0.010270773,9.777641296
1784147947.543301,0.000878613,-0.055770345,0.001130045,0.000934895,-0.000189290,0.000791976,0.524588585,0.024333877,9.797433853
1784147947.545387,0.000878613,-0.055770345,0.001130045,0.000259009,-0.000014735,0.000854920,0.552499354,0.030776333,9.786293030
1784147947.547385,0.000878613,-0.055770345,0.001130045,-0.000522417,0.000046092,0.000484753,0.533476412,0.015837995,9.779006004
1784147947.549376,0.000878547,-0.055770773,0.001130046,-0.000854374,0.000391174,0.000650387,0.512468696,0.023234252,9.784861565
1784147947.551379,0.000878547,-0.055770773,0.001130046,-0.000571838,0.000724581,0.001151428,0.546603978,0.025091168,9.777284622
1784147947.553366,0.000878182,-0.055771206,0.001130046,-0.000367353,0.000684029,0.000774725,0.548475146,-0.003813770,9.806242943
1784147947.555362,0.000878182,-0.055771206,0.001130046,-0.000579929,0.000588492,0.000156375,0.547280431,0.006719627,9.776269913
1784147947.557387,0.000878182,-0.055771206,0.001130046,-0.000805745,0.000785663,0.000357152,0.554279804,-0.008571249,9.771697044
1784147947.559366,0.000877395,-0.055771399,0.001130046,-0.001045536,0.000730017,0.000845170,0.541718841,-0.006767867,9.792767525
1784147947.561370,0.000877395,-0.055771399,0.001130046,-0.001151129,0.000277963,0.000675001,0.537104607,-0.017845809,9.783724785
1784147947.563384,0.000875494,-0.055771083,0.001130046,-0.000503795,-0.000021393,0.000263523,0.544003308,-0.002015307,9.813422203
1784147947.565382,0.000875494,-0.055771083,0.001130046,0.000347487,-0.000138448,0.000434279,0.552392602,-0.014139998,9.802144051
1784147947.567373,0.000875494,-0.055771083,0.001130046,0.000660503,-0.000149852,0.000793270,0.556405544,0.018334296,9.764697075
1784147947.569335,0.000875329,-0.055771824,0.001130047,0.000471105,-0.000297763,0.001071402,0.537641168,0.026105247,9.776835442
1784147947.571335,0.000875329,-0.055771824,0.001130047,0.000439789,-0.000656329,0.000893702,0.527759910,0.024938727,9.769644737
1784147947.573334,0.000876073,-0.055770885,0.001130046,0.000202516,-0.000716351,0.000620616,0.532955825,0.009197454,9.768651962
1784147947.575324,0.000876073,-0.055770885,0.001130046,-0.000675971,-0.000771353,0.000564906,0.558957517,0.006655993,9.764176369
1784147947.577325,0.000876073,-0.055770885,0.001130046,-0.000975009,-0.001084200,0.000378929,0.554074168,0.048369464,9.766680717
1784147947.579327,0.000877777,-0.055772502,0.001130047,-0.000533834,-0.000510798,0.000501683,0.523628652,0.016962150,9.764657974
1784147947.581324,0.000877777,-0.055772502,0.001130047,-0.000353503,0.000250093,0.000646952,0.546476007,0.013949373,9.769144058
1784147947.583331,0.000878382,-0.055772521,0.001130047,-0.000376535,-0.000181462,0.000349901,0.552244425,-0.026657470,9.798478127
1784147947.585330,0.000878382,-0.055772521,0.001130047,-0.000359148,-0.000676316,0.000150603,0.548158407,0.003718657,9.755628586
1784147947.587336,0.000878382,-0.055772521,0.001130047,-0.000516229,0.000008307,0.000119280,0.561218917,0.007983853,9.762393951
1784147947.589332,0.000878144,-0.055773471,0.001130048,-0.000642066,0.001049250,-0.000243519,0.541018665,0.008579236,9.778071404
1784147947.591331,0.000878144,-0.055773471,0.001130048,-0.000217756,0.001080706,-0.000294423,0.544821799,0.025619362,9.769216537
1784147947.593332,0.000879206,-0.055773854,0.001130049,0.000409735,0.000574669,0.000243710,0.556331336,0.015722474,9.817136765
1784147947.595337,0.000879206,-0.055773854,0.001130049,0.000414353,0.000139573,0.000526335,0.549602211,0.014198109,9.791564941
1784147947.597337,0.000879206,-0.055773854,0.001130049,0.000329294,-0.000083894,0.000317413,0.553713262,-0.017601036,9.782397270
1784147947.599342,0.000877926,-0.055773448,0.001130048,0.000579729,0.000060357,-0.000554650,0.538822651,0.013846789,9.797380447
1784147947.601341,0.000877926,-0.055773448,0.001130048,0.000437414,0.000118157,-0.001714221,0.538407624,-0.023066891,9.759482384
1784147947.603340,0.000876157,-0.055772938,0.001130048,-0.000121734,-0.000071250,-0.002163829,0.548170328,-0.031345706,9.771993637
1784147947.605351,0.000876157,-0.055772938,0.001130048,-0.000332994,-0.000305989,-0.001733416,0.565779030,-0.022197716,9.777000427
1784147947.607351,0.000876157,-0.055772938,0.001130048,0.000038183,-0.000340656,-0.001093338,0.561110079,-0.000575107,9.769063950
1784147947.609349,0.000874477,-0.055773899,0.001130049,0.000798716,-0.000191092,-0.000643347,0.552409887,0.022369990,9.771445274
1784147947.611344,0.000874477,-0.055773899,0.001130049,0.000807735,-0.000363029,-0.000516534,0.539871514,0.023541361,9.755300522
1784147947.613345,0.000875047,-0.055772793,0.001130048,-0.000289377,-0.000601049,-0.000643155,0.518430293,0.033494413,9.780449867
1784147947.615345,0.000875047,-0.055772793,0.001130048,-0.000579770,-0.000510717,-0.000606758,0.554765284,0.032545786,9.785409927
1784147947.617357,0.000875047,-0.055772793,0.001130048,0.000293461,-0.000404049,-0.000343617,0.554651618,0.021921907,9.767409325
1784147947.619355,0.000875419,-0.055773135,0.001130048,0.000368361,-0.000322284,0.000172141,0.541231930,0.026878873,9.787602425
1784147947.621354,0.000875419,-0.055773135,0.001130048,-0.000062485,-0.000110503,0.000060544,0.532052696,0.010784583,9.799146652
1784147947.623352,0.000875744,-0.055772111,0.001130047,-0.000157143,0.000082172,-0.000796420,0.536273599,-0.010825915,9.806186676
1784147947.625361,0.000875744,-0.055772111,0.001130047,-0.000155886,0.000093901,-0.001114433,0.560038924,-0.013688022,9.787809372
1784147947.627368,0.000875744,-0.055772111,0.001130047,-0.000049941,-0.000135001,-0.000968170,0.547974229,-0.009488429,9.786031723
1784147947.629362,0.000874621,-0.055772830,0.001130048,0.000172069,-0.000285317,-0.000861297,0.529131174,-0.009227882,9.783325195
1784147947.631361,0.000874621,-0.055772830,0.001130048,0.000371387,-0.000216561,-0.000565767,0.535861790,-0.008097420,9.801271439
1784147947.633360,0.000873939,-0.055772182,0.001130047,0.000314011,-0.000471272,-0.000190030,0.565185547,0.004529288,9.800035477
1784147947.635361,0.000873939,-0.055772182,0.001130047,0.000376726,-0.001070606,-0.000135071,0.589534581,0.012453832,9.775900841
1784147947.637362,0.000873939,-0.055772182,0.001130047,0.000555423,-0.000897118,-0.000019216,0.531112432,0.006405500,9.786564827
1784147947.639366,0.000873871,-0.055771414,0.001130046,0.000310872,-0.000229042,0.000446694,0.554837465,0.000388584,9.770857811
1784147947.641363,0.000873871,-0.055771414,0.001130046,-0.000288262,-0.000136012,0.001144278,0.580885887,0.001052799,9.756540298
1784147947.643370,0.000873830,-0.055773310,0.001130048,-0.000687805,-0.000119206,0.001092630,0.541776180,-0.002262821,9.789209366
1784147947.645369,0.000873830,-0.055773310,0.001130048,-0.000688294,-0.000211783,0.000025929,0.549128175,0.012383394,9.795587540
1784147947.647384,0.000873830,-0.055773310,0.001130048,-0.000043924,-0.000809370,-0.000554511,0.527937531,0.040525164,9.782746315
1784147947.649377,0.000874905,-0.055771492,0.001130046,0.000494948,-0.001392768,-0.000436515,0.532307625,0.029818347,9.768335342
1784147947.651379,0.000874905,-0.055771492,0.001130046,0.000367821,-0.001292843,0.000084786,0.549393058,-0.004473179,9.771270752
1784147947.653433,0.000874406,-0.055771947,0.001130047,0.000354285,-0.000573595,0.000576586,0.545421779,0.040586740,9.805627823
1784147947.655389,0.000874406,-0.055771947,0.001130047,0.000798837,0.000021672,0.000250008,0.553192198,0.013345224,9.779007912
1784147947.657381,0.000874406,-0.055771947,0.001130047,0.000974221,0.000044598,-0.000261202,0.562125683,-0.028327785,9.763507843
1784147947.659383,0.000872982,-0.055772074,0.001130047,0.000829343,0.000008028,-0.000273307,0.592478573,-0.006162310,9.742157936
1784147947.661400,0.000872982,-0.055772074,0.001130047,0.000657549,0.000487628,-0.000532136,0.567883313,0.003322606,9.775820732
1784147947.663389,0.000872223,-0.055772115,0.001130047,0.000308538,0.000174230,-0.000851100,0.535595000,0.006313034,9.791501045
1784147947.665388,0.000872223,-0.055772115,0.001130047,-0.000010201,-0.000797104,-0.000149011,0.553707182,0.019941244,9.795639992
1784147947.667386,0.000872223,-0.055772115,0.001130047,-0.000160295,-0.000500519,0.000837526,0.563539863,-0.022133989,9.772066116
1784147947.669396,0.000870803,-0.055772532,0.001130047,-0.000571392,0.000048092,0.000691095,0.563800693,-0.000622320,9.770860672
1784147947.671391,0.000870803,-0.055772532,0.001130047,-0.000946696,0.000019574,0.000094516,0.552481532,0.028609654,9.775967598
1784147947.673391,0.000872000,-0.055773295,0.001130048,-0.000965800,0.000156611,-0.000104129,0.547195375,0.001185109,9.798651695
1784147947.675390,0.000872000,-0.055773295,0.001130048,-0.000871978,0.000218395,-0.000104466,0.551877499,-0.021142643,9.779684067
1784147947.677391,0.000872000,-0.055773295,0.001130048,-0.000192618,0.000002393,0.000291946,0.539886951,-0.047464199,9.785331726
1784147947.679396,0.000868722,-0.055772632,0.001130047,0.000717766,-0.000195330,0.000563110,0.531636715,0.012264578,9.780776024
1784147947.681394,0.000868722,-0.055772632,0.001130047,0.000803775,-0.000224708,0.000688166,0.539540529,-0.001360409,9.792351723
1784147947.683400,0.000868205,-0.055772260,0.001130047,0.000254509,-0.000022414,0.000599023,0.557174861,0.009611225,9.792887688
1784147947.685472,0.000868205,-0.055772260,0.001130047,-0.000040030,-0.000181063,0.000352028,0.540281713,-0.013952971,9.797652245
1784147947.687417,0.000868205,-0.055772260,0.001130047,0.000069117,-0.000427007,0.000316298,0.558777869,-0.005299423,9.807587624
1784147947.689415,0.000866896,-0.055772137,0.001130047,0.000497487,-0.000158739,0.000094746,0.570728123,0.054240603,9.793187141
1784147947.691435,0.000866896,-0.055772137,0.001130047,0.000466321,0.000198622,0.000547466,0.548795700,0.021411965,9.786678314
1784147947.693415,0.000867922,-0.055771746,0.001130047,0.000223458,0.000243126,0.001236751,0.534447968,0.024112001,9.810892105
1784147947.695409,0.000867922,-0.055771746,0.001130047,0.000406825,0.000023325,0.001142346,0.537531734,0.017136494,9.778121948
1784147947.697410,0.000867922,-0.055771746,0.001130047,0.000759806,0.000094605,0.001111315,0.539562821,0.037621133,9.792152405
1784147947.699411,0.000869802,-0.055771761,0.001130047,0.001036198,0.000289322,0.001252001,0.515791297,0.038002159,9.781373024
1784147947.701412,0.000869802,-0.055771761,0.001130047,0.000817630,-0.000012289,0.001026418,0.537615180,0.025495131,9.799695969
1784147947.703410,0.000871305,-0.055771627,0.001130046,0.000621534,-0.000320943,0.000753219,0.524579227,0.023044044,9.789803505
1784147947.705423,0.000871305,-0.055771627,0.001130046,0.000442498,-0.000492957,0.000807159,0.530805886,0.016854260,9.766905785
1784147947.707417,0.000871305,-0.055771627,0.001130046,-0.000123955,-0.000794000,0.000916988,0.531488240,0.000960627,9.795496941
1784147947.709418,0.000870973,-0.055770535,0.001130046,-0.000227547,-0.000959763,0.000528440,0.554755509,-0.005527114,9.783821106
1784147947.711422,0.000870973,-0.055770535,0.001130046,0.000313094,-0.001066065,-0.000259004,0.568187118,0.028821420,9.780917168
1784147947.713424,0.000872266,-0.055772420,0.001130047,0.000379743,-0.001319526,-0.000906357,0.571574450,0.011778340,9.777223587
1784147947.715420,0.000872266,-0.055772420,0.001130047,0.000029793,-0.001589316,-0.001469313,0.527905345,-0.000156020,9.769931793
1784147947.717428,0.000872266,-0.055772420,0.001130047,-0.000362781,-0.001118955,-0.001785665,0.552806735,-0.017256038,9.798539162
1784147947.719429,0.000870231,-0.055771939,0.001130047,-0.000610359,-0.000455939,-0.001490775,0.550784290,-0.000487386,9.775331497
1784147947.721433,0.000870231,-0.055771939,0.001130047,-0.000870011,-0.000549941,-0.000972411,0.548005879,-0.006807018,9.786944389
1784147947.723426,0.000869617,-0.055772360,0.001130047,-0.000989532,-0.000906051,-0.000776799,0.539658129,0.006861875,9.769988060
1784147947.725429,0.000869617,-0.055772360,0.001130047,0.000096344,-0.001393779,-0.000687860,0.543430924,0.023256900,9.788927078
1784147947.727440,0.000869617,-0.055772360,0.001130047,0.001194396,-0.001753280,-0.000478191,0.531353891,0.025737775,9.776826859
1784147947.729435,0.000870913,-0.055771589,0.001130047,0.001131271,-0.001503659,-0.000035142,0.515226364,0.029795161,9.802391052
1784147947.731432,0.000870913,-0.055771589,0.001130047,0.000850342,-0.001354061,0.000088492,0.544878781,-0.004631900,9.801752090
1784147947.733435,0.000870398,-0.055772565,0.001130047,0.000574369,-0.001206764,-0.000074067,0.549334526,-0.007367617,9.800393105
1784147947.735433,0.000870398,-0.055772565,0.001130047,-0.000003873,-0.000809065,0.000079306,0.579713583,-0.020558661,9.773436546
1784147947.737441,0.000870398,-0.055772565,0.001130047,-0.000261882,-0.000519778,-0.000025328,0.543511093,0.030373402,9.796145439
1784147947.739451,0.000871232,-0.055772014,0.001130047,-0.000033254,-0.000259086,-0.000172820,0.548390627,0.025004581,9.786252975
1784147947.741443,0.000871232,-0.055772014,0.001130047,0.000292870,-0.000306435,-0.000028609,0.524354517,0.005465455,9.804935455
1784147947.743448,0.000871303,-0.055770915,0.001130046,0.000293142,-0.000536692,0.000129135,0.526944935,-0.003884016,9.791875839
1784147947.745445,0.000871303,-0.055770915,0.001130046,-0.000226040,-0.000353748,-0.000260273,0.543407679,-0.016137633,9.784191132
1784147947.747448,0.000871303,-0.055770915,0.001130046,-0.001034585,-0.000014191,-0.001139196,0.555520952,0.020067692,9.774571419
1784147947.749453,0.000872467,-0.055771876,0.001130047,-0.001861967,-0.000122803,-0.002016518,0.551470041,0.018804159,9.770524025
1784147947.751451,0.000872467,-0.055771876,0.001130047,-0.002301409,-0.000079684,-0.002329765,0.560908437,-0.015945686,9.788692474
1784147947.753460,0.000871155,-0.055773385,0.001130048,-0.002310575,0.000360142,-0.002194156,0.543948829,-0.009334939,9.771682739
1784147947.755460,0.000871155,-0.055773385,0.001130048,-0.002033639,0.000260522,-0.001609857,0.532392979,-0.001423855,9.751098633
1784147947.757455,0.000871155,-0.055773385,0.001130048,-0.001622351,-0.000463276,-0.001025031,0.514497578,0.002869559,9.746624947
1784147947.759458,0.000871210,-0.055771753,0.001130047,-0.001592467,-0.001001440,-0.001285449,0.532036662,0.007010488,9.762806892
1784147947.761463,0.000871210,-0.055771753,0.001130047,-0.001348372,-0.000927130,-0.001598572,0.521103740,-0.003872869,9.800836563
1784147947.763462,0.000870687,-0.055771094,0.001130046,-0.000246475,-0.000527735,-0.001047059,0.564165473,0.030220220,9.780472755
1784147947.765465,0.000870687,-0.055771094,0.001130046,0.000229797,-0.000218359,-0.000140253,0.549350262,0.030346353,9.789424896
1784147947.767473,0.000870687,-0.055771094,0.001130046,-0.000381207,-0.000069550,0.000012947,0.564131379,0.028329810,9.794359207
1784147947.769464,0.000871569,-0.055771574,0.001130046,-0.000718858,-0.000052410,0.000142265,0.547847390,0.017779360,9.795172691
1784147947.771467,0.000871569,-0.055771574,0.001130046,-0.000459979,-0.000101357,0.000561864,0.530682147,0.008987736,9.802272797
1784147947.773470,0.000871357,-0.055771589,0.001130046,-0.000220140,-0.000390220,0.000974519,0.551962316,0.022385284,9.770099640
1784147947.775472,0.000871357,-0.055771589,0.001130046,-0.000228185,-0.000761229,0.001364208,0.574321747,0.016636437,9.782189369
1784147947.777468,0.000871357,-0.055771589,0.001130046,-0.000520801,-0.000846983,0.001413992,0.563515484,0.012831806,9.769600868
1784147947.779477,0.000871055,-0.055772010,0.001130047,-0.001144398,-0.000488722,0.001072862,0.554839075,-0.000408770,9.756954193
1784147947.781478,0.000871055,-0.055772010,0.001130047,-0.001736535,0.000333610,0.000520381,0.536298752,-0.010222151,9.784222603
1784147947.783478,0.000870500,-0.055771172,0.001130046,-0.001862542,0.000609267,-0.000515226,0.554139137,0.017371733,9.778139114
1784147947.785476,0.000870500,-0.055771172,0.001130046,-0.001074579,0.000242397,-0.001235316,0.544690788,-0.020704443,9.794026375
1784147947.787479,0.000870500,-0.055771172,0.001130046,-0.000046306,0.000413578,-0.000673621,0.553375304,-0.008210361,9.785596848
1784147947.789479,0.000869159,-0.055772066,0.001130047,0.000072840,0.000849841,-0.000065127,0.565683067,0.006935043,9.775841713
1784147947.791477,0.000869159,-0.055772066,0.001130047,-0.000367695,0.000850573,0.000176980,0.547295451,0.010080734,9.807676315
1784147947.793479,0.000869475,-0.055771764,0.001130047,-0.000493603,0.000454128,0.000170932,0.530999839,-0.001778626,9.803548813
1784147947.795485,0.000869475,-0.055771764,0.001130047,-0.000062389,0.000033689,0.000166624,0.544504404,0.003255910,9.827356339
1784147947.797483,0.000869475,-0.055771764,0.001130047,0.000143204,-0.000219089,0.000434388,0.539859712,0.025879366,9.804631233
1784147947.799491,0.000869680,-0.055771369,0.001130046,-0.000499980,-0.000160695,0.000629543,0.531607389,0.011222396,9.801391602
1784147947.801489,0.000869680,-0.055771369,0.001130046,-0.000965045,0.000153234,0.000538555,0.558652461,-0.016015511,9.802587509
1784147947.803495,0.000868330,-0.055771813,0.001130047,-0.001032413,0.000467115,0.000780059,0.535123706,0.004113953,9.786554337
1784147947.805490,0.000868330,-0.055771813,0.001130047,-0.001355587,0.000586307,0.001677018,0.529084504,0.023536257,9.775465012
1784147947.807492,0.000868330,-0.055771813,0.001130047,-0.001610261,0.000425340,0.001679167,0.552617908,0.038601525,9.756754875
1784147947.809494,0.000869792,-0.055771865,0.001130047,-0.001811023,0.000332993,0.000579687,0.554597974,0.017445475,9.766932487
1784147947.811497,0.000869792,-0.055771865,0.001130047,-0.002100699,0.000410374,-0.000076280,0.531113267,0.044001829,9.792186737
1784147947.813497,0.000871239,-0.055771232,0.001130046,-0.002152177,0.000351938,0.000275852,0.545923293,0.006244400,9.782543182
1784147947.815495,0.000871239,-0.055771232,0.001130046,-0.001520679,0.000354824,0.000750314,0.565737009,-0.025365239,9.781462669
1784147947.817496,0.000871239,-0.055771232,0.001130046,-0.001004148,0.000502082,0.000808024,0.560543120,-0.009608065,9.780214310
1784147947.819535,0.000870308,-0.055771723,0.001130046,-0.000990658,0.000435159,0.000541638,0.563489616,0.010601534,9.768241882
1784147947.821514,0.000870308,-0.055771723,0.001130046,-0.000475063,0.000292285,0.000131236,0.556365132,0.017609708,9.803698540
1784147947.823508,0.000870672,-0.055772096,0.001130047,-0.000172880,0.000098666,-0.000114198,0.558134615,0.013739480,9.777670860
1784147947.825506,0.000870672,-0.055772096,0.001130047,-0.000780212,0.000379746,-0.000165594,0.542423546,-0.022890070,9.790423393
1784147947.827506,0.000870672,-0.055772096,0.001130047,-0.000964987,0.000978378,-0.000308743,0.561934531,0.031564236,9.784514427
1784147947.829516,0.000871313,-0.055772815,0.001130047,-0.000239064,0.000756560,-0.000307012,0.559207082,0.028078636,9.775523186
1784147947.831508,0.000871313,-0.055772815,0.001130047,0.000281834,-0.000090243,-0.000092960,0.535482943,-0.004298128,9.771705627
1784147947.833510,0.000870403,-0.055772088,0.001130047,0.000266525,-0.000432776,0.000045824,0.553079486,0.003134320,9.765943527
1784147947.835521,0.000870403,-0.055772088,0.001130047,0.000172166,0.000002007,0.000240866,0.546583652,-0.013064407,9.787350655
1784147947.837528,0.000870403,-0.055772088,0.001130047,-0.000222912,0.000284933,0.000598867,0.563754678,-0.003011574,9.791915894
1784147947.839527,0.000869381,-0.055772599,0.001130047,-0.000334824,-0.000013393,0.000622463,0.546014309,-0.022116454,9.801192284
1784147947.841554,0.000869381,-0.055772599,0.001130047,0.000236327,-0.000128103,0.000370484,0.510382116,0.000690670,9.808476448
1784147947.843537,0.000868904,-0.055770606,0.001130045,0.000438549,0.000096072,0.000278553,0.516825914,0.010398919,9.754745483
1784147947.845530,0.000868904,-0.055770606,0.001130045,0.000222546,0.000083860,0.000119769,0.564515352,0.022545082,9.788044930
1784147947.847540,0.000868904,-0.055770606,0.001130045,-0.000151740,0.000094860,0.000076069,0.574302793,0.016486995,9.803258896
1784147947.849535,0.000869698,-0.055771768,0.001130046,-0.000909447,0.000378533,-0.000027208,0.571646273,0.019234695,9.799688339
1784147947.851531,0.000869698,-0.055771768,0.001130046,-0.001263009,0.000459376,-0.000481917,0.551410735,0.016309991,9.806374550
1784147947.853542,0.000870282,-0.055771783,0.001130046,-0.000872405,0.000259402,-0.000831633,0.550549209,0.015794408,9.754364014
1784147947.855541,0.000870282,-0.055771783,0.001130046,-0.000770403,0.000023704,-0.000762256,0.547273278,0.005042248,9.760120392
1784147947.857534,0.000870282,-0.055771783,0.001130046,-0.001043525,-0.000451790,-0.000461235,0.552644551,0.004464882,9.768640518
1784147947.859544,0.000870339,-0.055771917,0.001130047,-0.000862369,-0.000818620,-0.000512231,0.571060002,0.006402194,9.778085709
1784147947.861555,0.000870339,-0.055771917,0.001130047,-0.000507530,-0.000705623,-0.001305085,0.562464535,0.001904634,9.795982361
1784147947.863542,0.000869893,-0.055772513,0.001130047,-0.000357423,-0.000586913,-0.001756277,0.570999444,0.040271744,9.803857803
1784147947.865547,0.000869893,-0.055772513,0.001130047,-0.000232768,-0.000647693,-0.001580311,0.570092261,0.038990237,9.796674728
1784147947.867551,0.000869893,-0.055772513,0.001130047,-0.000338925,-0.000509965,-0.001433369,0.562533021,0.007308785,9.791980743
1784147947.869549,0.000869994,-0.055772703,0.001130047,-0.000250491,-0.000141099,-0.001378720,0.543133259,-0.001787588,9.782937050
1784147947.871571,0.000869994,-0.055772703,0.001130047,0.000442873,-0.000151478,-0.000960376,0.528780758,-0.000745849,9.788311005
1784147947.873554,0.000869523,-0.055771958,0.001130047,0.000724269,-0.000698927,-0.000279892,0.523463905,0.004314306,9.779371262
1784147947.875550,0.000869523,-0.055771958,0.001130047,0.000098049,-0.001122670,-0.000128610,0.531635046,0.012251862,9.782567978
1784147947.877550,0.000869523,-0.055771958,0.001130047,-0.000643557,-0.001138416,-0.000324105,0.524318159,-0.000901021,9.755127907
1784147947.879555,0.000869109,-0.055771008,0.001130046,-0.000514551,-0.001103769,-0.000356890,0.557720125,0.016852342,9.781725883
1784147947.881554,0.000869109,-0.055771008,0.001130046,0.000033339,-0.000885986,-0.000288721,0.543325722,0.014726559,9.791562080
1784147947.883552,0.000869490,-0.055770744,0.001130045,-0.000144658,-0.000630008,-0.000419953,0.558202207,0.019947346,9.786678314
1784147947.885557,0.000869490,-0.055770744,0.001130045,-0.000476276,-0.000694226,-0.000372857,0.540223360,0.017502259,9.784851074
1784147947.887553,0.000869490,-0.055770744,0.001130045,-0.000016012,-0.001001894,-0.000122265,0.583215952,0.011028270,9.798749924
1784147947.889556,0.000869985,-0.055772521,0.001130047,0.000698625,-0.001213447,0.000277583,0.550224900,-0.008649867,9.790073395
1784147947.891556,0.000869985,-0.055772521,0.001130047,0.000682678,-0.000874359,0.000336090,0.541791558,-0.000925297,9.790115356
1784147947.893558,0.000869011,-0.055771910,0.001130047,0.000475420,-0.000459470,-0.000234426,0.573439181,-0.017987540,9.801244736
1784147947.895558,0.000869011,-0.055771910,0.001130047,0.000579214,-0.000103211,-0.001100630,0.571988046,0.011495961,9.816226959
1784147947.897558,0.000869011,-0.055771910,0.001130047,0.000907979,0.000258708,-0.001261330,0.554960847,0.011088777,9.778100014
1784147947.899562,0.000868846,-0.055772293,0.001130047,0.000940022,0.000047655,0.000080823,0.583010077,-0.006807501,9.786978722
1784147947.901566,0.000868846,-0.055772293,0.001130047,0.000110971,-0.000261222,0.001435437,0.561087668,-0.003183385,9.757839203
1784147947.903564,0.000868245,-0.055773012,0.001130047,-0.000451775,-0.000211268,0.001539318,0.552299917,0.012991429,9.767350197
1784147947.905566,0.000868245,-0.055773012,0.001130047,-0.000428232,-0.000373116,0.000892506,0.531566381,0.006441084,9.780737877
1784147947.907630,0.000868245,-0.055773012,0.001130047,-0.000428687,-0.000349604,0.000873366,0.544978023,0.001420530,9.769509315
1784147947.909575,0.000868280,-0.055772185,0.001130047,0.000081704,0.000198563,0.001422798,0.553893328,-0.002805597,9.780699730
1784147947.911584,0.000868280,-0.055772185,0.001130047,0.000958334,0.000431346,0.001678514,0.525184870,-0.003180947,9.759150505
1784147947.913586,0.000867591,-0.055771247,0.001130046,0.001651837,0.000636997,0.001756777,0.529203713,-0.002981861,9.786951065
1784147947.915577,0.000867591,-0.055771247,0.001130046,0.002092637,0.001455248,0.001528584,0.549091756,0.009663835,9.800052643
1784147947.917578,0.000867591,-0.055771247,0.001130046,0.002180545,0.002163505,0.001091825,0.560136557,0.031561796,9.788099289
1784147947.919580,0.000868929,-0.055771068,0.001130046,0.002149750,0.002231613,0.000590487,0.551478386,0.019681014,9.773220062
1784147947.921584,0.000868929,-0.055771068,0.001130046,0.002267728,0.001831395,-0.000047793,0.517775714,0.016474461,9.780789375
1784147947.923581,0.000868926,-0.055769686,0.001130045,0.002364539,0.000943757,-0.000191145,0.540050685,0.002360613,9.772201538
1784147947.925581,0.000868926,-0.055769686,0.001130045,0.002305084,0.000079767,0.000154303,0.574029386,-0.006339943,9.800422668
1784147947.927589,0.000868926,-0.055769686,0.001130045,0.001982122,0.000282998,0.000139375,0.563726842,-0.008094578,9.750636101
1784147947.929590,0.000868867,-0.055770494,0.001130045,0.001497422,0.000653161,-0.000430264,0.567480564,-0.029845588,9.778298378
1784147947.931587,0.000868867,-0.055770494,0.001130045,0.001499886,0.000413570,-0.000612839,0.542618096,-0.007170093,9.784695625
1784147947.933588,0.000868378,-0.055769980,0.001130045,0.001718609,0.000359144,-0.000167172,0.536884248,0.001793917,9.794610977
1784147947.935595,0.000868378,-0.055769980,0.001130045,0.001281045,0.000342713,0.000355244,0.526771903,0.018561123,9.786190987
1784147947.937587,0.000868378,-0.055769980,0.001130045,0.000510367,0.000318281,0.000626719,0.535271585,0.016628245,9.790669441
1784147947.939595,0.000868897,-0.055769060,0.001130044,0.000183340,0.000208846,0.000679934,0.541157067,0.022640545,9.816716194
1784147947.941595,0.000868897,-0.055769060,0.001130044,0.000178097,0.000051404,0.001242140,0.536700845,0.022536244,9.776362419
1784147947.943601,0.000868957,-0.055769358,0.001130044,-0.000205608,0.000045259,0.002229360,0.559692144,-0.005177376,9.788759232
1784147947.945601,0.000868957,-0.055769358,0.001130044,-0.000429962,0.000060068,0.002641854,0.559437454,0.010948614,9.789759636
1784147947.947601,0.000868957,-0.055769358,0.001130044,0.000004129,-0.000003267,0.002238867,0.554779470,-0.002906125,9.793252945
1784147947.949607,0.000868098,-0.055769823,0.001130045,0.000158428,-0.000045668,0.001620127,0.552318156,0.016377985,9.795168877
1784147947.951607,0.000868098,-0.055769823,0.001130045,-0.000070119,0.000178666,0.001242468,0.555807769,0.006626282,9.774037361
1784147947.953611,0.000867975,-0.055769660,0.001130045,-0.000472946,0.000271314,0.001183200,0.551548779,0.025504498,9.773257256
1784147947.955605,0.000867975,-0.055769660,0.001130045,-0.001093192,0.000181335,0.000976160,0.545455098,0.040444016,9.762586594
1784147947.957632,0.000867975,-0.055769660,0.001130045,-0.001395156,0.000512586,0.000430643,0.569941878,0.025240170,9.777307510
1784147947.959639,0.000868517,-0.055771045,0.001130046,-0.000945398,0.000871233,0.000269631,0.553301215,0.023120871,9.790280342
1784147947.961626,0.000868517,-0.055771045,0.001130046,-0.000625991,0.000586529,0.001142131,0.550531387,0.014437804,9.756148338
1784147947.963620,0.000869018,-0.055771269,0.001130046,-0.000611015,0.000292030,0.001686647,0.553979695,0.004765233,9.787024498
1784147947.965626,0.000869018,-0.055771269,0.001130046,-0.000126031,0.000240127,0.001146286,0.530058622,-0.007380761,9.773922920
1784147947.967621,0.000869018,-0.055771269,0.001130046,0.000331832,-0.000176352,0.000678489,0.530437887,0.023576247,9.767395973
1784147947.969619,0.000869515,-0.055770524,0.001130045,0.000499871,-0.000712621,0.000444453,0.527869761,-0.002462598,9.779332161
1784147947.971618,0.000869515,-0.055770524,0.001130045,0.000283262,-0.000685650,0.000275749,0.551954091,0.022725139,9.785346031
1784147947.973620,0.000870227,-0.055770524,0.001130045,-0.000199421,-0.000608612,0.000170705,0.556022048,0.025338905,9.788503647
1784147947.975629,0.000870227,-0.055770524,0.001130045,-0.000315391,-0.000500923,0.000076792,0.551981509,0.025778191,9.797021866
1784147947.977623,0.000870227,-0.055770524,0.001130045,-0.000069983,-0.000064608,-0.000223779,0.545550883,0.012121331,9.775855064
1784147947.979626,0.000870027,-0.055770725,0.001130045,0.000398305,0.000163225,-0.000948233,0.539479136,-0.006303874,9.794561386
1784147947.981625,0.000870027,-0.055770725,0.001130045,0.000666457,0.000310769,-0.001277640,0.530734122,-0.026165294,9.767973900
1784147947.983629,0.000868118,-0.055770107,0.001130045,0.000918528,0.000791530,-0.000847522,0.547382772,0.015227700,9.776773453
1784147947.985664,0.000868118,-0.055770107,0.001130045,0.001086225,0.001269918,-0.000858429,0.551538765,0.024614943,9.772355080
1784147947.987655,0.000868118,-0.055770107,0.001130045,0.000767989,0.001046528,-0.000761951,0.557223916,0.012835974,9.780355453
1784147947.989642,0.000869133,-0.055771437,0.001130046,0.000548861,0.000519907,-0.000079912,0.545848012,-0.000023880,9.782054901
1784147947.991703,0.000869133,-0.055771437,0.001130046,0.000605792,0.000062933,0.000254414,0.562493742,0.002946818,9.775364876
1784147947.993652,0.000868864,-0.055771898,0.001130046,0.000663980,-0.000396143,0.000497292,0.564310253,0.004715666,9.775378227
1784147947.995643,0.000868864,-0.055771898,0.001130046,0.000566284,-0.000297416,0.000730571,0.559795201,0.003740511,9.794645309
1784147947.997640,0.000868864,-0.055771898,0.001130046,0.000503260,0.000390265,0.000272143,0.561190307,0.007758096,9.794223785
1784147947.999646,0.000868032,-0.055772655,0.001130047,0.000621255,0.000910010,-0.000476643,0.564837337,0.011407078,9.778559685
1784147948.001651,0.000868032,-0.055772655,0.001130047,0.000683563,0.000942149,-0.000247866,0.554998279,0.014221322,9.778569221
1784147948.003642,0.000867361,-0.055773951,0.001130048,0.001014304,0.000549943,-0.000317741,0.536420286,0.002488915,9.823756218
1784147948.005643,0.000867361,-0.055773951,0.001130048,0.001417311,0.000085805,-0.000910934,0.504826486,0.022814075,9.794716835
1784147948.007654,0.000867361,-0.055773951,0.001130048,0.000807926,-0.000065020,-0.000946321,0.519360244,-0.000202588,9.791891098
1784147948.009655,0.000866595,-0.055772427,0.001130047,0.000019233,-0.000349398,-0.001262449,0.561501384,0.033314131,9.791250229
1784147948.011653,0.000866595,-0.055772427,0.001130047,0.000184566,-0.000690537,-0.001492315,0.552856684,0.020728203,9.749465942
1784147948.013652,0.000866781,-0.055773057,0.001130047,0.000671360,-0.000440797,-0.001367584,0.563702047,-0.007885088,9.784263611
1784147948.015653,0.000866781,-0.055773057,0.001130047,0.000339204,-0.000093340,-0.000645074,0.541832149,0.003042764,9.799107552
1784147948.017649,0.000866781,-0.055773057,0.001130047,-0.000375862,-0.000122886,-0.000157163,0.568188906,0.030050837,9.797063828
1784147948.019656,0.000867462,-0.055773709,0.001130048,-0.000694802,-0.000156175,-0.001173407,0.558717072,0.025326667,9.785368919
1784147948.021656,0.000867462,-0.055773709,0.001130048,-0.000744598,-0.000090406,-0.002237872,0.539108455,-0.002034365,9.761860847
1784147948.023661,0.000866670,-0.055772994,0.001130047,-0.000058613,-0.000017604,-0.002470482,0.542278588,0.000587722,9.765466690
1784147948.025663,0.000866670,-0.055772994,0.001130047,0.000785624,0.000104268,-0.002729264,0.543002844,-0.012138389,9.789595604
1784147948.027662,0.000866670,-0.055772994,0.001130047,0.000330992,0.000004490,-0.002577550,0.551413596,0.015522174,9.791126251
1784147948.029666,0.000867184,-0.055772927,0.001130047,-0.000840670,-0.000764203,-0.001966791,0.553073168,0.005110216,9.803166389
1784147948.031666,0.000867184,-0.055772927,0.001130047,-0.000627576,-0.001370802,-0.001664838,0.550685644,-0.006940088,9.800845146
1784147948.033667,0.000866815,-0.055772871,0.001130047,0.000403156,-0.001014946,-0.000987738,0.543546438,-0.004099918,9.792338371
1784147948.035666,0.000866815,-0.055772871,0.001130047,0.000325954,-0.000300121,0.000048299,0.526243031,0.012260436,9.791081429
1784147948.037667,0.000866815,-0.055772871,0.001130047,-0.000400151,0.000067955,0.000458142,0.548226535,0.010739768,9.776297569
1784147948.039682,0.000866688,-0.055773009,0.001130047,-0.000911699,0.000106677,-0.000020770,0.571454465,0.039100170,9.778743744
1784147948.041676,0.000866688,-0.055773009,0.001130047,-0.001214551,-0.000082301,-0.000298544,0.540247440,0.018503111,9.770063400
1784147948.043678,0.000866374,-0.055772219,0.001130047,-0.001744326,-0.000273732,0.000003760,0.541298747,-0.004509594,9.790988922
1784147948.045680,0.000866374,-0.055772219,0.001130047,-0.002020937,-0.000429709,-0.000209176,0.565475583,-0.008886680,9.795914650
1784147948.047692,0.000866374,-0.055772219,0.001130047,-0.001535409,-0.000603193,-0.000616265,0.553867936,0.032557279,9.785409927
1784147948.049684,0.000867090,-0.055772670,0.001130047,-0.000802215,-0.000699106,-0.000677379,0.534228981,0.005767855,9.807635307
1784147948.051681,0.000867090,-0.055772670,0.001130047,-0.000630611,-0.000749948,-0.000253023,0.540670812,-0.019292923,9.791790009
1784147948.053681,0.000866254,-0.055772915,0.001130047,-0.000992336,-0.000550626,0.000526007,0.558346868,-0.005153770,9.787861824
1784147948.055692,0.000866254,-0.055772915,0.001130047,-0.000838138,-0.000352607,0.000552925,0.562084496,0.004884318,9.755649567
1784147948.057681,0.000866254,-0.055772915,0.001130047,-0.000813059,-0.000006875,0.000158328,0.551472187,0.020036759,9.786224365
1784147948.059690,0.000866185,-0.055772454,0.001130047,-0.001406652,0.000591355,0.000232861,0.557492018,-0.002375012,9.776669502
1784147948.061688,0.000866185,-0.055772454,0.001130047,-0.001482193,0.000678782,0.000700976,0.525013864,-0.014662962,9.798977852
1784147948.063690,0.000865199,-0.055770844,0.001130045,-0.000619598,0.000301260,0.000932681,0.572032928,-0.023714300,9.789998055
1784147948.065696,0.000865199,-0.055770844,0.001130045,0.000480569,0.000148034,0.000958490,0.555418313,-0.025626916,9.773829460
1784147948.067750,0.000865199,-0.055770844,0.001130045,0.000830952,0.000218609,0.001410833,0.536379814,-0.004719435,9.766323090
1784147948.069823,0.000863576,-0.055769384,0.001130044,0.000399857,0.000401648,0.002028832,0.503933489,0.020833777,9.759731293
1784147948.071724,0.000863576,-0.055769384,0.001130044,0.000248371,0.000515348,0.002461135,0.571258128,0.020934094,9.750382423
1784147948.073733,0.000864480,-0.055771075,0.001130045,0.000929890,0.000212872,0.002576605,0.576943219,0.010775266,9.782602310
1784147948.075714,0.000864480,-0.055771075,0.001130045,0.001226113,-0.000218875,0.002262087,0.541939199,0.008345537,9.746238708
1784147948.077705,0.000864480,-0.055771075,0.001130045,0.000962975,0.000212832,0.001530911,0.563816071,0.001525274,9.783875465
1784147948.079711,0.000863893,-0.055772208,0.001130046,0.000954932,0.000847671,0.001271110,0.549755573,0.024730152,9.759351730
1784147948.081714,0.000863893,-0.055772208,0.001130046,0.000761064,0.000751208,0.001565834,0.559886754,0.011759298,9.800974846
1784147948.083722,0.000864371,-0.055772606,0.001130047,0.000401282,0.000434181,0.001309468,0.540643632,0.014840542,9.780351639
1784147948.085720,0.000864371,-0.055772606,0.001130047,0.000285141,0.000292538,0.000979023,0.537203133,0.025790224,9.758899689
1784147948.087723,0.000864371,-0.055772606,0.001130047,0.000218502,0.000276388,0.001190107,0.526354194,0.020838479,9.781721115
1784147948.089720,0.000864654,-0.055771615,0.001130046,-0.000048122,0.000159090,0.001324892,0.555018187,0.014783755,9.762431145
1784147948.091720,0.000864654,-0.055771615,0.001130046,-0.000387748,0.000020767,0.001494764,0.583161354,0.005328783,9.781228065
1784147948.093718,0.000864537,-0.055773180,0.001130047,-0.000558944,0.000209157,0.001295313,0.533737779,0.000979572,9.788774490
1784147948.095754,0.000864537,-0.055773180,0.001130047,-0.000446047,0.000472929,0.000645647,0.547630429,0.000261178,9.801783562
1784147948.097725,0.000864537,-0.055773180,0.001130047,-0.000115915,0.000281549,0.000639976,0.544041216,0.000310352,9.801333427
1784147948.099724,0.000864195,-0.055772923,0.001130047,0.000537524,-0.000027191,0.001104905,0.518469870,-0.000540485,9.777989388
1784147948.101728,0.000864195,-0.055772923,0.001130047,0.001377476,-0.000145046,0.000957376,0.556515634,-0.008660405,9.780216217
1784147948.103728,0.000863310,-0.055773150,0.001130047,0.002154818,-0.000085704,0.000363576,0.523296058,0.027610853,9.779968262
1784147948.105730,0.000863310,-0.055773150,0.001130047,0.002646487,-0.000152542,0.000399614,0.559717894,0.034236234,9.790806770
1784147948.107722,0.000863310,-0.055773150,0.001130047,0.002531003,-0.000450329,0.000784764,0.543576360,0.035752114,9.795731544
1784147948.109727,0.000864413,-0.055773500,0.001130048,0.001703910,-0.000786132,0.001207913,0.522596061,0.043364588,9.771101952
1784147948.111728,0.000864413,-0.055773500,0.001130048,0.001162075,-0.000454888,0.001429218,0.535835385,0.026852472,9.801047325
1784147948.113735,0.000865358,-0.055772871,0.001130047,0.001298352,0.000200321,0.000672944,0.538564861,0.029543899,9.795687675
1784147948.115736,0.000865358,-0.055772871,0.001130047,0.000847782,-0.000228087,-0.000912867,0.545362234,-0.003957575,9.769026756
1784147948.117737,0.000865358,-0.055772871,0.001130047,-0.000156366,-0.001040741,-0.001440163,0.548264205,0.015495649,9.800538063
1784147948.119738,0.000865095,-0.055772886,0.001130047,-0.001099704,-0.000864803,-0.000466464,0.544784904,0.023706697,9.786240578
1784147948.121737,0.000865095,-0.055772886,0.001130047,-0.001651154,0.000072973,0.000067073,0.546074986,0.017573791,9.764235497
1784147948.123741,0.000865773,-0.055773344,0.001130048,-0.001307616,0.000985850,-0.000155548,0.559633255,0.027084755,9.788518906
1784147948.125741,0.000865773,-0.055773344,0.001130048,-0.000459867,0.001681644,-0.000515175,0.567892671,0.004612441,9.783451080
1784147948.127751,0.000865773,-0.055773344,0.001130048,-0.000081502,0.001777896,-0.000906189,0.527875245,-0.002824707,9.767224312
1784147948.129750,0.000864838,-0.055772223,0.001130047,-0.000496629,0.001513368,-0.001175949,0.539865613,0.024710365,9.779966354
1784147948.131745,0.000864838,-0.055772223,0.001130047,-0.001196054,0.001431830,-0.001191960,0.571593225,0.014357993,9.792483330
1784147948.133761,0.000865504,-0.055773284,0.001130048,-0.001690033,0.001138274,-0.001204904,0.570795357,-0.015544720,9.777496338
1784147948.135754,0.000865504,-0.055773284,0.001130048,-0.001780998,0.000740644,-0.001070515,0.571059883,0.005995574,9.772253990
1784147948.137748,0.000865504,-0.055773284,0.001130048,-0.001650234,0.000286636,-0.000937114,0.562087476,0.006123273,9.770453453
1784147948.139762,0.000865010,-0.055774335,0.001130049,-0.001575478,-0.000295098,-0.000967726,0.557709932,0.015556152,9.774993896
1784147948.141755,0.000865010,-0.055774335,0.001130049,-0.001445173,-0.000343158,-0.000753139,0.550784349,0.001539376,9.805382729
1784147948.143757,0.000864790,-0.055774786,0.001130049,-0.001344270,0.000197076,-0.000485289,0.561383307,0.022655277,9.778180122
1784147948.145754,0.000864790,-0.055774786,0.001130049,-0.001236898,0.000304382,-0.000634689,0.526670456,0.010466030,9.790622711
1784147948.147758,0.000864790,-0.055774786,0.001130049,-0.001253619,-0.000223084,-0.001613537,0.559878290,0.009665754,9.780336380
1784147948.149756,0.000865196,-0.055774707,0.001130049,-0.001123400,-0.000667076,-0.001640755,0.567142844,0.017541679,9.793843269
1784147948.151761,0.000865196,-0.055774707,0.001130049,-0.000954818,-0.000655195,-0.000701852,0.570567966,0.003634328,9.790171623
1784147948.153767,0.000864801,-0.055775978,0.001130050,-0.000938618,-0.000535625,-0.000306252,0.551077902,0.025335373,9.797914505
1784147948.155764,0.000864801,-0.055775978,0.001130050,-0.000369649,-0.000812963,-0.000271931,0.550485671,0.012455175,9.783035278
1784147948.157779,0.000864801,-0.055775978,0.001130050,0.000283468,-0.000798373,-0.000768846,0.540601850,0.012079646,9.790645599
1784147948.159832,0.000864434,-0.055775546,0.001130050,0.000838422,-0.000246076,-0.001542891,0.549534678,0.045986839,9.794906616
1784147948.161802,0.000864434,-0.055775546,0.001130050,0.000822692,-0.000147404,-0.001748097,0.545506597,0.009744800,9.795119286
1784147948.163779,0.000863537,-0.055776056,0.001130050,-0.000096961,-0.000269035,-0.001033622,0.543148339,-0.000453247,9.784291267
1784147948.165803,0.000863537,-0.055776056,0.001130050,-0.000944747,-0.000050623,-0.000367292,0.550350368,0.001256146,9.782963753
1784147948.167788,0.000863537,-0.055776056,0.001130050,-0.001217819,-0.000015135,-0.000874869,0.571715355,-0.012541319,9.794551849
1784147948.169780,0.000861775,-0.055777948,0.001130052,-0.000819564,-0.000134292,-0.002129031,0.536113918,0.008887314,9.743546486
1784147948.171783,0.000861775,-0.055777948,0.001130052,-0.000167142,0.000004337,-0.002282667,0.513023019,-0.004611251,9.793202400
1784147948.173786,0.000860224,-0.055776350,0.001130051,0.000286717,0.000062034,-0.001167341,0.538217068,-0.001165098,9.767245293
1784147948.175788,0.000860224,-0.055776350,0.001130051,0.000324484,-0.000216983,-0.000320989,0.554703355,-0.012827668,9.739389420
1784147948.177791,0.000860224,-0.055776350,0.001130051,0.000010725,-0.000393363,-0.000553257,0.549049020,0.004463179,9.775362015
1784147948.179788,0.000860318,-0.055776436,0.001130051,-0.000127511,-0.000610499,-0.001101901,0.525299072,0.006636038,9.764593124
1784147948.181797,0.000860318,-0.055776436,0.001130051,0.000528733,-0.000957942,-0.001320916,0.537286520,-0.002631027,9.786064148
1784147948.183789,0.000859635,-0.055776868,0.001130051,0.000954641,-0.000995161,-0.001371035,0.562561512,0.008344607,9.772260666
1784147948.185801,0.000859635,-0.055776868,0.001130051,0.000472556,-0.000533177,-0.000521541,0.508918703,0.024808543,9.758865356
1784147948.187792,0.000859635,-0.055776868,0.001130051,0.000318802,-0.000237410,0.000530636,0.548859715,0.027184583,9.793889999
1784147948.189795,0.000860896,-0.055776350,0.001130050,0.000762643,-0.000547260,0.000861849,0.535738170,0.017169027,9.776775360
1784147948.191810,0.000860896,-0.055776350,0.001130050,0.001014569,-0.000699884,0.001049272,0.551642239,-0.003647337,9.777105331
1784147948.193800,0.000860145,-0.055776812,0.001130051,0.000699367,-0.000086498,0.001315415,0.548116684,0.002577906,9.790143013
1784147948.195799,0.000860145,-0.055776812,0.001130051,0.000112038,0.000636626,0.001113129,0.562724471,0.022193244,9.777729988
1784147948.197883,0.000860145,-0.055776812,0.001130051,-0.000011270,0.000890475,0.000910573,0.576642096,0.023698760,9.792996407
1784147948.199854,0.000861427,-0.055778738,0.001130053,0.000221125,0.000748715,0.000635343,0.552325130,0.015621963,9.775437355
1784147948.201877,0.000861427,-0.055778738,0.001130053,0.000149155,0.000002067,0.000105940,0.564525843,0.024654521,9.806440353
1784147948.203825,0.000862041,-0.055779465,0.001130053,0.000331106,-0.000581048,-0.000171260,0.527909636,0.002309169,9.801330566
1784147948.205815,0.000862041,-0.055779465,0.001130053,0.000665930,-0.000701815,-0.000407285,0.527843177,-0.002672458,9.808919907
1784147948.207829,0.000862041,-0.055779465,0.001130053,0.000416785,-0.001199565,-0.000401776,0.562973499,0.006832812,9.795116425
1784147948.209839,0.000862078,-0.055779930,0.001130054,0.000320657,-0.001995957,-0.000255629,0.595278203,0.003972754,9.761056900
1784147948.211834,0.000862078,-0.055779930,0.001130054,0.000127539,-0.002250918,-0.000129494,0.540261924,0.021454422,9.796084404
1784147948.213823,0.000863211,-0.055778958,0.001130053,-0.000692384,-0.001726919,-0.000106938,0.519053280,0.011053062,9.784789085
1784147948.215827,0.000863211,-0.055778958,0.001130053,-0.000943451,-0.001131938,-0.000251235,0.562190890,-0.020518856,9.799424171
1784147948.217822,0.000863211,-0.055778958,0.001130053,-0.000692705,-0.000808847,-0.000735367,0.533935189,-0.019651467,9.791332245
1784147948.219834,0.000861327,-0.055778578,0.001130053,-0.000891680,-0.000626902,-0.000511299,0.534011662,0.022999618,9.779052734
1784147948.221836,0.000858451,-0.055780455,0.001148443,-0.001132474,-0.000629723,0.001347897,0.549056232,0.042920452,9.785920143
1784147948.223835,0.000861742,-0.055778995,0.001156481,-0.000782009,-0.000475898,0.002776212,0.532972276,0.049348000,9.793118477
1784147948.225836,0.000862865,-0.055775743,0.001157549,-0.000321255,-0.000016764,0.002627566,0.555394590,0.011775454,9.806798935
1784147948.227831,0.000859948,-0.055776190,0.001163159,-0.000330321,0.000178320,0.002373540,0.526621521,0.004811051,9.766823769
1784147948.229831,0.000855263,-0.055773649,0.001166595,-0.000664152,0.000196864,0.002367794,0.537450910,0.045983456,9.754096985
1784147948.231840,0.000856537,-0.055769615,0.001169807,-0.000632407,0.000514502,0.002185221,0.545302451,0.029918343,9.793903351
1784147948.233854,0.000860292,-0.055772267,0.001173367,-0.000123824,0.000488785,0.002033506,0.578443289,0.021699866,9.755774498
1784147948.235847,0.000860154,-0.055774294,0.001172202,0.000134408,0.000059050,0.001631686,0.573423743,0.017048202,9.788915634
1784147948.237843,0.000855785,-0.055778094,0.001165457,-0.000237495,-0.000351869,0.000669612,0.560769022,0.007980060,9.763738632
1784147948.239852,0.000855105,-0.055782828,0.001170622,-0.000546987,-0.000779454,0.000401219,0.557211518,0.011927338,9.782142639
1784147948.241846,0.000857581,-0.055783894,0.001179735,-0.000248522,-0.000905023,0.001254571,0.569033623,0.025165820,9.789411545
1784147948.243841,0.000860241,-0.055788677,0.001176334,0.000204980,-0.001031390,0.001280700,0.539002419,0.025802204,9.753969193
1784147948.245844,0.000857413,-0.055787761,0.001176096,0.000140447,-0.000989432,0.000686092,0.534432054,-0.016035372,9.785976410
1784147948.247866,0.000853449,-0.055789817,0.001185633,-0.000322805,-0.000797919,0.001155753,0.532714784,-0.009321571,9.790052414
1784147948.249865,0.000850281,-0.055789538,0.001184625,-0.000624576,-0.000712454,0.001443496,0.519200265,0.022750923,9.777691841
1784147948.251844,0.000847776,-0.055785365,0.001174834,-0.000818681,-0.000228410,0.000337722,0.515043914,-0.022202689,9.806093216
1784147948.253849,0.000847120,-0.055786587,0.001163095,-0.000760991,-0.000017391,-0.001208419,0.534173667,0.000062007,9.791010857
1784147948.255922,0.000854030,-0.055787615,0.001160210,-0.000054776,-0.000215469,-0.001902428,0.553575873,0.008367378,9.785255432
1784147948.257874,0.000858418,-0.055789758,0.001168361,0.000745750,-0.000371041,-0.001071781,0.552278697,0.011202764,9.766890526
1784147948.259889,0.000859565,-0.055789500,0.001172305,0.000913293,-0.000356887,0.000020786,0.545798361,0.031501308,9.759392738
1784147948.261934,0.000856394,-0.055784073,0.001174204,0.000499380,0.000165616,0.000421571,0.524060249,0.016416227,9.777656555
1784147948.263884,0.000856058,-0.055775501,0.001176829,0.000166781,0.000997123,0.000625743,0.562223196,0.017732106,9.775908470
1784147948.265910,0.000859554,-0.055773832,0.001173496,0.000356572,0.001348544,0.000394662,0.548969209,-0.001030002,9.791913986
1784147948.267884,0.000861680,-0.055776428,0.001174589,0.000632321,0.000919762,0.000114413,0.545635343,0.020082889,9.790253639
1784147948.269879,0.000862518,-0.055775296,0.001175352,0.000651713,0.000607585,0.000198797,0.558303177,0.028849337,9.794805527
1784147948.271892,0.000863808,-0.055776794,0.001172674,0.000594910,0.000454478,0.000007846,0.549173832,0.014769463,9.774980545
1784147948.273874,0.000867156,-0.055780832,0.001174646,0.000766214,-0.000037777,-0.000060836,0.557867825,0.028149933,9.767901421
1784147948.275868,0.000868747,-0.055786591,0.001175158,0.000923526,-0.000686047,0.000104189,0.547491789,0.023383211,9.763825417
1784147948.277869,0.000873308,-0.055793680,0.001170239,0.001073074,-0.001371793,-0.000246072,0.543517470,0.030424271,9.788972855
1784147948.279890,0.000883047,-0.055792917,0.001165318,0.001621752,-0.001423679,-0.000895181,0.562964916,0.005549347,9.786590576
1784147948.281889,0.000888986,-0.055787493,0.001152823,0.002086117,-0.000613003,-0.001886723,0.522763669,0.019661414,9.764674187
1784147948.283875,0.000895869,-0.055786207,0.001145353,0.002243416,-0.000073483,-0.002772089,0.538012207,-0.016561119,9.790459633
1784147948.285913,0.000893441,-0.055786826,0.001137938,0.001810231,-0.000090847,-0.003041137,0.568225741,-0.002789620,9.815683365
1784147948.287885,0.000887991,-0.055786073,0.001127693,0.000717987,-0.000058239,-0.003382533,0.562922180,0.000348693,9.761898994
1784147948.289882,0.000884117,-0.055785980,0.001122616,-0.000149241,0.000073286,-0.003468283,0.549639821,0.014900439,9.755702019
1784147948.291880,0.000879272,-0.055787370,0.001115324,-0.000728806,0.000023326,-0.003332910,0.515905678,0.010635806,9.786128998
1784147948.293888,0.000884532,-0.055789754,0.001116041,-0.000541083,-0.000381842,-0.002874342,0.548991084,0.000358400,9.785646439
1784147948.295886,0.000892433,-0.055792153,0.001118798,0.000497533,-0.000744598,-0.001907410,0.567884445,0.003332149,9.774476051
1784147948.297888,0.000895611,-0.055795815,0.001119946,0.001128097,-0.000953727,-0.001166800,0.550056219,0.012613552,9.761516571
1784147948.299888,0.000891272,-0.055794556,0.001116935,0.000705124,-0.000842469,-0.000970191,0.566616058,0.010446823,9.784382820
1784147948.301899,0.000885837,-0.055791479,0.001116027,-0.000194492,-0.000304398,-0.000933667,0.558014691,0.005498120,9.802724838
1784147948.303889,0.000883179,-0.055793189,0.001112868,-0.000689435,-0.000130027,-0.000926070,0.544885576,0.032202050,9.788537025
1784147948.305913,0.000885435,-0.055790436,0.001108137,-0.000543274,-0.000024693,-0.001208680,0.568110287,0.023757121,9.800161362
1784147948.307897,0.000890921,-0.055787217,0.001107591,0.000108939,0.000387257,-0.001267409,0.563266397,0.030219005,9.782265663
1784147948.309895,0.000891878,-0.055792585,0.001112266,0.000450493,0.000180836,-0.000663362,0.547090769,0.028627768,9.783136368
1784147948.311896,0.000888874,-0.055795118,0.001114397,0.000134043,-0.000360754,-0.000009776,0.550580978,0.021312645,9.797439575
1784147948.313909,0.000887597,-0.055785351,0.001112653,-0.000247438,0.000238942,0.000038411,0.557850182,0.027199961,9.775515556
1784147948.315917,0.000891847,-0.055777602,0.001111262,-0.000047026,0.001374286,-0.000192611,0.529413879,0.014482261,9.787959099
1784147948.317909,0.000894256,-0.055779338,0.001103052,0.000380750,0.001409136,-0.000816170,0.562849820,0.032909341,9.782730103
1784147948.319906,0.000895602,-0.055779461,0.001098469,0.000416405,0.000952739,-0.001472119,0.536972106,0.010187533,9.811252594
1784147948.321911,0.000897949,-0.055775970,0.001101473,0.000480613,0.000975181,-0.001189756,0.546576262,0.024061697,9.796107292
1784147948.323905,0.000897787,-0.055777878,0.001100795,0.000452665,0.000828682,-0.000714307,0.554895103,0.005706885,9.778961182
1784147948.325904,0.000903201,-0.055781841,0.001104733,0.000643669,0.000215371,-0.000316279,0.536076367,-0.027378220,9.802942276
1784147948.327907,0.000912512,-0.055781078,0.001106790,0.001489509,-0.000059933,0.000120174,0.531758249,-0.015044538,9.777462006
1784147948.329921,0.000921057,-0.055777278,0.001099833,0.002365696,0.000209336,-0.000317020,0.534375310,-0.020130612,9.794917107
1784147948.331908,0.000922193,-0.055781707,0.001099260,0.002439979,0.000052478,-0.000782789,0.558417380,0.000266280,9.781620026
1784147948.333909,0.000916888,-0.055780444,0.001106653,0.001568793,-0.000130120,-0.000094995,0.539565384,0.001266946,9.800886154
1784147948.335909,0.000911658,-0.055772156,0.001116974,0.000543930,0.000600379,0.001168424,0.555369735,0.007121331,9.768210411
1784147948.337927,0.000910758,-0.055770721,0.001115784,0.000015324,0.001097844,0.001493254,0.550832629,0.003541079,9.775805473
1784147948.339935,0.000909486,-0.055771988,0.001118066,-0.000085579,0.000866634,0.001167428,0.532257974,-0.011406182,9.768966675
1784147948.341919,0.000911933,-0.055769891,0.001128261,0.000110866,0.000744639,0.001688930,0.562394023,-0.004325486,9.790112495
1784147948.343926,0.000913155,-0.055772360,0.001136025,0.000468888,0.000543240,0.002429590,0.558315516,-0.009048694,9.768558502
1784147948.345932,0.000917609,-0.055764925,0.001140237,0.000843075,0.000757831,0.002556155,0.550731838,0.032635678,9.780027390
1784147948.347930,0.000917804,-0.055760879,0.001143654,0.000958132,0.001331608,0.002361602,0.557310998,0.019196464,9.767842293
1784147948.349942,0.000922496,-0.055765565,0.001146233,0.001069791,0.000957998,0.002107195,0.552020967,0.028926641,9.795248985
1784147948.351928,0.000921409,-0.055762831,0.001148503,0.001059936,0.000597258,0.001849017,0.538581014,0.029671084,9.777755737
1784147948.353938,0.000920531,-0.055763375,0.001147766,0.000567237,0.000538906,0.001462735,0.537731230,-0.002668577,9.790547371
1784147948.355937,0.000924179,-0.055767059,0.001150006,0.000529104,0.000061068,0.001161365,0.522794545,-0.012416667,9.802127838
1784147948.357938,0.000925647,-0.055765118,0.001149488,0.000738695,-0.000073600,0.000943386,0.533221960,-0.004812734,9.785150528
1784147948.359935,0.000927411,-0.055761866,0.001151154,0.000805163,0.000207430,0.000750463,0.539636254,0.005473473,9.776255608
1784147948.361936,0.000927729,-0.055762611,0.001156149,0.000796486,0.000230457,0.000987905,0.558369160,0.033017706,9.775553703
1784147948.363936,0.000919419,-0.055764582,0.001162453,0.000009741,0.000055442,0.001519607,0.573401868,0.015659807,9.795184135
1784147948.365942,0.000915263,-0.055760480,0.001162690,-0.000884575,0.000257275,0.001601390,0.560810208,0.012357920,9.778113365
1784147948.367943,0.000922590,-0.055761021,0.001166490,-0.000414203,0.000429649,0.001428218,0.534876585,0.020300359,9.779035568
1784147948.369951,0.000922934,-0.055763312,0.001173920,0.000319811,0.000062146,0.001769286,0.528190911,0.023983005,9.777259827
1784147948.371991,0.000925948,-0.055763550,0.001178540,0.000565285,-0.000184900,0.002089613,0.533634961,0.028031508,9.765185356
1784147948.373962,0.000925714,-0.055762030,0.001176770,0.000513480,-0.000088633,0.001710379,0.554504216,0.011437559,9.792897224
1784147948.375959,0.000926295,-0.055765659,0.001176703,0.000293151,-0.000248642,0.001125658,0.560750246,0.008237244,9.790640831
1784147948.377964,0.000925108,-0.055772465,0.001178914,0.000180577,-0.000889361,0.000967628,0.564860582,0.012401567,9.764668465
1784147948.379955,0.000919356,-0.055779558,0.001178750,-0.000318859,-0.001495723,0.000869115,0.539295673,0.014438451,9.776313782
1784147948.381954,0.000914874,-0.055783894,0.001173860,-0.000932920,-0.001769882,0.000328539,0.543431342,0.021233313,9.758426666
1784147948.383956,0.000914366,-0.055784300,0.001175035,-0.001087068,-0.001595225,0.000009494,0.547372639,0.015958285,9.800091743
