time_sec,roll_rad,pitch_rad,yaw_rad,gyro_x,gyro_y,gyro_z,acc_x,acc_y,acc_z
1784147738.802195,0.000848094,-0.055809528,-0.047414348,0.000613807,-0.000323796,-0.001314317,0.541121483,0.018307200,9.796065331
1784147738.804086,0.000848942,-0.055809341,-0.047414348,0.000503918,-0.000055997,-0.001065123,0.535619676,0.007723689,9.782094002
1784147738.806077,0.000848942,-0.055809341,-0.047414348,0.000113566,0.000099909,0.000180758,0.545748293,-0.008916331,9.772582054
1784147738.808050,0.000848298,-0.055809509,-0.047414348,-0.000128492,0.000753779,0.000965084,0.557819247,-0.012254982,9.779298782
1784147738.810032,0.000848298,-0.055809509,-0.047414348,0.000026367,0.001521284,0.000437445,0.561966717,-0.002934520,9.784293175
1784147738.812052,0.000848298,-0.055809509,-0.047414348,0.000061103,0.001471486,-0.000311487,0.533660710,-0.004491348,9.802190781
1784147738.814029,0.000847590,-0.055809774,-0.047414348,-0.000175453,0.000610623,-0.000952346,0.521392822,0.019888148,9.798298836
1784147738.816030,0.000847590,-0.055809774,-0.047414348,-0.000236618,0.000164168,-0.001724902,0.556337655,0.012529882,9.761970520
1784147738.818020,0.000848078,-0.055810437,-0.047414348,0.000392520,0.000438879,-0.001507060,0.556041896,-0.010878566,9.777960777
1784147738.820036,0.000848078,-0.055810437,-0.047414348,0.001193630,0.000685984,-0.000806004,0.569322646,0.012146945,9.792467117
1784147738.822050,0.000848078,-0.055810437,-0.047414348,0.001555365,0.000313292,-0.000768071,0.555641949,0.030748803,9.784502983
1784147738.824041,0.000849211,-0.055811323,-0.047414340,0.001415791,-0.000510069,-0.001032981,0.552204072,0.006560999,9.789725304
1784147738.826037,0.000849211,-0.055811323,-0.047414340,0.001120137,-0.000675253,-0.001314112,0.561122358,-0.000883167,9.749336243
1784147738.828051,0.000848769,-0.055812333,-0.047414336,0.000945526,-0.000311709,-0.001245374,0.541308165,-0.004029835,9.786509514
1784147738.830029,0.000848769,-0.055812333,-0.047414336,0.000818041,-0.000030087,-0.000996636,0.501834393,-0.002618442,9.785135269
1784147738.832010,0.000848769,-0.055812333,-0.047414336,0.000763429,0.000372539,-0.000796221,0.573258758,0.003993738,9.797798157
1784147738.834011,0.000848323,-0.055813458,-0.047414333,0.000340686,0.000381547,-0.000580206,0.576801419,0.001145508,9.813923836
1784147738.836075,0.000848323,-0.055813458,-0.047414333,-0.000405645,0.000031413,-0.000190851,0.559776187,0.038344190,9.780072212
1784147738.838078,0.000849915,-0.055813711,-0.047414336,-0.000821635,-0.000134594,0.000021282,0.522361696,0.024492981,9.779051781
1784147738.840067,0.000849915,-0.055813711,-0.047414336,-0.000870394,-0.000325287,-0.000636498,0.551090002,0.024620686,9.772354126
1784147738.842069,0.000849915,-0.055813711,-0.047414336,-0.000576263,-0.000089444,-0.001167227,0.538136363,-0.005854570,9.796805382
1784147738.844031,0.000849479,-0.055813182,-0.047414336,-0.000106632,0.000435391,-0.000865517,0.519263446,-0.007856082,9.797222137
1784147738.846040,0.000849479,-0.055813182,-0.047414336,-0.000023017,0.000404208,-0.000269350,0.562612236,0.013202230,9.782155991
1784147738.848048,0.000849418,-0.055813715,-0.047414333,-0.000579918,-0.000004840,-0.000325582,0.556146502,0.034831937,9.776459694
1784147738.850026,0.000849418,-0.055813715,-0.047414333,-0.001089040,0.000043703,-0.000924386,0.564378142,0.010520086,9.778103828
1784147738.852039,0.000849418,-0.055813715,-0.047414333,-0.000801497,0.000896388,-0.000777351,0.541822314,0.000533056,9.773983002
1784147738.854015,0.000848972,-0.055814087,-0.047414336,-0.000248001,0.001655188,-0.000235681,0.548941314,-0.002466093,9.804907799
1784147738.856013,0.000848972,-0.055814087,-0.047414336,0.000222226,0.001721154,0.000174367,0.565257132,0.009552252,9.786618233
1784147738.858042,0.000849276,-0.055814292,-0.047414336,0.000451886,0.001409114,0.000687518,0.525590003,-0.004746797,9.789627075
1784147738.860069,0.000849276,-0.055814292,-0.047414336,0.000167079,0.001116335,0.000789483,0.547172964,-0.001423171,9.787426949
1784147738.862028,0.000849276,-0.055814292,-0.047414336,0.000341241,0.000921470,0.000124348,0.564506292,-0.015521460,9.785559654
1784147738.864005,0.000848413,-0.055815049,-0.047414329,0.000937616,0.000703007,-0.000450135,0.541981339,0.014756523,9.789767265
1784147738.866062,0.000848413,-0.055815049,-0.047414329,0.001115247,0.000449659,0.000267692,0.557228982,0.012470683,9.768695831
1784147738.868028,0.000848814,-0.055815902,-0.047414333,0.000646408,0.000144890,0.000897311,0.562962651,0.005936895,9.795111656
1784147738.870017,0.000848814,-0.055815902,-0.047414333,-0.000159474,0.000187501,0.000111144,0.555971444,0.020481281,9.778609276
1784147738.872017,0.000848814,-0.055815902,-0.047414333,-0.000237233,0.000518483,-0.000368831,0.552152574,0.001697015,9.780727386
1784147738.874019,0.000847661,-0.055817127,-0.047414329,0.000063737,0.000588106,0.000201767,0.554946601,0.010570867,9.787959099
1784147738.876023,0.000847661,-0.055817127,-0.047414329,0.000296848,0.000190357,0.000344189,0.562206149,0.016381864,9.776796341
1784147738.878016,0.000848424,-0.055817783,-0.047414329,0.000282390,-0.000543851,-0.000132486,0.558574736,0.013260327,9.781255722
1784147738.880019,0.000848424,-0.055817783,-0.047414329,-0.000049479,-0.000592259,0.000009860,0.545809865,-0.003566236,9.776204109
1784147738.882035,0.000848424,-0.055817783,-0.047414329,-0.000286588,-0.000108143,0.000531650,0.544810295,-0.011656189,9.781531334
1784147738.884022,0.000847139,-0.055817891,-0.047414325,-0.000224807,0.000135667,0.000640758,0.555359840,0.006638390,9.773139954
1784147738.886022,0.000847139,-0.055817891,-0.047414325,0.000069303,-0.000067168,0.000682414,0.547809362,0.014237009,9.789320946
1784147738.888022,0.000847584,-0.055816710,-0.047414329,0.000475435,-0.000812412,0.000944410,0.552477658,-0.008605486,9.779764175
1784147738.890025,0.000847584,-0.055816710,-0.047414329,0.000935029,-0.001231970,0.001280633,0.524035215,0.015002386,9.787510872
1784147738.892020,0.000847584,-0.055816710,-0.047414329,0.001277508,-0.000888065,0.001258422,0.543954670,0.027896106,9.765644073
1784147738.894032,0.000848798,-0.055815987,-0.047414329,0.001331032,-0.000417992,0.001008480,0.547158182,0.034429014,9.786313057
1784147738.896039,0.000848798,-0.055815987,-0.047414329,0.000497364,-0.000498562,0.000894863,0.549220920,0.020005092,9.794738770
1784147738.898030,0.000849367,-0.055816099,-0.047414329,-0.000328031,-0.000732794,0.000467786,0.515540302,0.017783493,9.789761543
1784147738.900161,0.000849367,-0.055816099,-0.047414329,-0.000906024,-0.000382811,0.000340120,0.539198041,0.005561899,9.764599800
1784147738.902052,0.000849367,-0.055816099,-0.047414329,-0.001489607,-0.000038096,0.000572292,0.562902451,0.000192890,9.783864975
1784147738.904042,0.000848458,-0.055817693,-0.047414325,-0.001502422,-0.000255417,0.000089606,0.547302365,0.009324715,9.787943840
1784147738.906065,0.000848458,-0.055817693,-0.047414325,-0.001640174,-0.000627120,-0.000461988,0.516636193,-0.002446054,9.797254562
1784147738.908039,0.000847959,-0.055815596,-0.047414333,-0.002335414,-0.000607042,-0.000285485,0.520125151,-0.011390862,9.788681984
1784147738.910057,0.000847959,-0.055815596,-0.047414333,-0.002712606,-0.000271815,0.000170019,0.537991881,0.016816329,9.759289742
1784147738.912044,0.000847959,-0.055815596,-0.047414333,-0.001938827,-0.000144030,0.000033520,0.573596835,0.030572884,9.776897430
1784147738.914043,0.000849217,-0.055816278,-0.047414329,-0.000650767,-0.000108210,-0.000805211,0.567482173,0.045347057,9.789540291
1784147738.916049,0.000849217,-0.055816278,-0.047414329,0.000449351,-0.000068738,-0.000946539,0.551501334,0.022699090,9.789827347
1784147738.918043,0.000850194,-0.055816159,-0.047414329,0.000597381,-0.000091917,-0.000238491,0.546861708,0.010204133,9.791088104
1784147738.920050,0.000850194,-0.055816159,-0.047414329,-0.000307285,-0.000185556,-0.000103810,0.558464766,0.003071690,9.765049934
1784147738.922045,0.000850194,-0.055816159,-0.047414329,-0.000874802,-0.000181877,-0.000149564,0.559692383,-0.005580817,9.782480240
1784147738.924055,0.000849175,-0.055817038,-0.047414325,-0.000654266,-0.000025478,0.000053641,0.558431804,0.002000892,9.789702415
1784147738.926054,0.000849175,-0.055817038,-0.047414325,-0.000240711,-0.000019831,-0.000195667,0.560182035,0.033947859,9.767491341
1784147738.928065,0.000850850,-0.055817757,-0.047414325,0.000258544,-0.000107626,-0.000413587,0.569484472,0.023555821,9.762950897
1784147738.930055,0.000850850,-0.055817757,-0.047414325,0.000382209,-0.000479299,0.000129586,0.561025083,0.028643506,9.755800247
1784147738.932057,0.000850850,-0.055817757,-0.047414325,0.000145592,-0.000907312,0.000325316,0.562218428,0.016883880,9.769177437
1784147738.934058,0.000851646,-0.055818282,-0.047414325,0.000250416,-0.000909255,-0.000649142,0.559816897,0.003912211,9.770436287
1784147738.936061,0.000851646,-0.055818282,-0.047414325,0.000418672,-0.000820337,-0.001574996,0.557939649,-0.001983678,9.783846855
1784147738.938066,0.000850566,-0.055818383,-0.047414325,0.000338446,-0.000920902,-0.001348125,0.521461248,-0.011487598,9.799890518
1784147738.940064,0.000850566,-0.055818383,-0.047414325,0.000427105,-0.000744424,-0.001072915,0.563063264,0.014835709,9.803687096
1784147738.942108,0.000850566,-0.055818383,-0.047414325,0.000766784,-0.000398853,-0.001520647,0.553114593,0.006247793,9.769100189
1784147738.944069,0.000849904,-0.055819310,-0.047414321,0.000917125,-0.000758256,-0.001814270,0.551119268,0.026472945,9.763847351
1784147738.946076,0.000849904,-0.055819310,-0.047414321,0.000642927,-0.001288805,-0.001560932,0.549988449,0.008025832,9.776730537
1784147738.948112,0.000849940,-0.055818766,-0.047414321,0.000177704,-0.001062793,-0.000994298,0.532218516,-0.012527863,9.800791740
1784147738.950083,0.000849940,-0.055818766,-0.047414321,0.000298339,-0.000306250,-0.001046831,0.544591129,0.007182998,9.778962135
1784147738.952078,0.000849940,-0.055818766,-0.047414321,0.000475665,0.000101476,-0.001338483,0.550538957,0.018145127,9.801902771
1784147738.954074,0.000849382,-0.055818453,-0.047414321,0.000434894,-0.000178188,-0.001139240,0.561412454,0.026937755,9.806004524
1784147738.956077,0.000849382,-0.055818453,-0.047414321,0.000638491,-0.000528872,-0.000922334,0.551101327,0.026736481,9.789853096
1784147738.958088,0.000849743,-0.055818520,-0.047414321,0.000447398,-0.000507705,-0.001250717,0.564623356,-0.004872150,9.799974442
1784147738.960085,0.000849743,-0.055818520,-0.047414321,0.000345624,-0.000296911,-0.001127757,0.564835072,0.010984555,9.774969101
1784147738.962084,0.000849743,-0.055818520,-0.047414321,0.000579044,0.000028897,-0.000314661,0.573881447,0.016708964,9.772774696
1784147738.964087,0.000849970,-0.055820011,-0.047414321,0.000534132,0.000343658,-0.000227689,0.558309495,0.028493581,9.781800270
1784147738.966083,0.000849970,-0.055820011,-0.047414321,0.000391248,0.000429821,-0.000111149,0.550901592,0.009355040,9.777188301
1784147738.968082,0.000850132,-0.055820007,-0.047414318,-0.000004735,0.000401535,0.000658747,0.532198131,-0.015120235,9.787324905
1784147738.970086,0.000850132,-0.055820007,-0.047414318,-0.000723250,0.000605430,0.000588363,0.528005064,0.008736429,9.779404640
1784147738.972091,0.000850132,-0.055820007,-0.047414318,-0.001210495,0.000561118,-0.000366519,0.548730910,0.015226359,9.774534225
1784147738.974096,0.000850600,-0.055820223,-0.047414318,-0.001284193,-0.000159714,-0.000812805,0.524346054,0.003371912,9.784297943
1784147738.976104,0.000850600,-0.055820223,-0.047414318,-0.001122880,-0.000867143,-0.001138593,0.532737136,-0.006713297,9.801277161
1784147738.978132,0.000850417,-0.055820413,-0.047414318,-0.000731920,-0.001239682,-0.001663525,0.565124691,-0.000814446,9.795517921
1784147738.980122,0.000850417,-0.055820413,-0.047414318,-0.000357151,-0.001408143,-0.001377300,0.543826163,0.018371269,9.782171249
1784147738.982146,0.000850417,-0.055820413,-0.047414318,-0.000337530,-0.001476349,-0.000807850,0.560869038,-0.019904209,9.778354645
1784147738.984117,0.000849364,-0.055821095,-0.047414314,-0.000661718,-0.001089520,-0.000535532,0.543817580,-0.019692097,9.779236794
1784147738.986117,0.000849364,-0.055821095,-0.047414314,-0.001108579,-0.000176915,-0.000099298,0.521964729,-0.008224074,9.781082153
1784147738.988113,0.000848624,-0.055819910,-0.047414321,-0.001236928,0.000271453,-0.000053176,0.562015176,0.002310649,9.802708626
1784147738.990112,0.000848624,-0.055819910,-0.047414321,-0.000938834,-0.000051896,-0.000383611,0.566173017,0.009687015,9.765996933
1784147738.992115,0.000848624,-0.055819910,-0.047414321,-0.000306048,-0.000204926,-0.000135811,0.575323105,0.025145739,9.780899048
1784147738.994117,0.000849220,-0.055821214,-0.047414318,0.000738968,0.000286390,0.000518342,0.560362279,0.012370030,9.777216911
1784147738.996171,0.000849220,-0.055821214,-0.047414318,0.001609614,0.000732904,0.001031656,0.543088794,-0.005380814,9.784258842
1784147738.998185,0.000847850,-0.055820577,-0.047414321,0.001772836,0.000868261,0.000916395,0.519794703,-0.001536323,9.789641380
1784147739.000132,0.000847850,-0.055820577,-0.047414321,0.001280145,0.001138886,0.000272809,0.539596260,0.003941994,9.802698135
1784147739.002170,0.000847850,-0.055820577,-0.047414321,0.000970974,0.001061524,0.000452379,0.545991719,0.013268688,9.802762985
1784147739.004143,0.000847325,-0.055820659,-0.047414321,0.001066600,0.000762516,0.001430786,0.539848804,0.022956673,9.774574280
1784147739.006138,0.000847325,-0.055820659,-0.047414321,0.000452173,0.000752051,0.001818681,0.559209824,-0.007058862,9.802197456
1784147739.008144,0.000846390,-0.055821050,-0.047414318,-0.000465900,0.000555937,0.001377389,0.563841820,0.004565610,9.797344208
1784147739.010142,0.000846390,-0.055821050,-0.047414318,-0.000507822,-0.000168779,0.000909252,0.538477421,0.021153469,9.778596878
1784147739.012149,0.000846390,-0.055821050,-0.047414318,0.000200464,-0.000885903,0.000766909,0.540107846,0.008485813,9.792863846
1784147739.014133,0.000846695,-0.055820290,-0.047414321,0.001137335,-0.000909876,0.000829125,0.546830535,0.006715834,9.777615547
1784147739.016159,0.000846695,-0.055820290,-0.047414321,0.001819080,-0.001051777,0.000621029,0.547566235,-0.004297930,9.812965393
1784147739.018168,0.000846177,-0.055820759,-0.047414321,0.001699856,-0.001256506,0.000467891,0.543018579,-0.012014382,9.772111893
1784147739.020183,0.000846177,-0.055820759,-0.047414321,0.000622884,-0.000964098,0.000537736,0.553755641,-0.016050464,9.753266335
1784147739.022157,0.000846177,-0.055820759,-0.047414321,-0.000811623,-0.000741750,0.000208548,0.564500272,-0.016379233,9.780174255
1784147739.024142,0.000844643,-0.055821113,-0.047414318,-0.001622830,-0.000655397,0.000149207,0.549135804,0.011227109,9.769128799
1784147739.026156,0.000844643,-0.055821113,-0.047414318,-0.001379280,-0.000244160,0.000542488,0.547825813,0.015177439,9.783050537
1784147739.028161,0.000845288,-0.055821456,-0.047414318,-0.000816339,0.000486234,0.000344603,0.560132265,0.029906679,9.768810272
1784147739.030147,0.000845288,-0.055821456,-0.047414318,-0.000554513,0.000555590,-0.000398078,0.581542373,0.020518867,9.790289879
1784147739.032142,0.000845288,-0.055821456,-0.047414318,-0.000154968,-0.000081988,-0.000635735,0.559181631,0.025851542,9.773715973
1784147739.034148,0.000846802,-0.055822507,-0.047414318,0.000188229,-0.000569888,-0.000014633,0.565313876,0.012837418,9.765568733
1784147739.036152,0.000846802,-0.055822507,-0.047414318,0.000371990,-0.000314070,0.000675807,0.544110656,0.004100716,9.772216797
1784147739.038147,0.000846191,-0.055822287,-0.047414321,0.000621074,0.000360790,0.000567928,0.533560276,-0.014200228,9.781503677
1784147739.040145,0.000846191,-0.055822287,-0.047414321,0.000598350,0.000368531,0.000504372,0.541439652,0.007544019,9.796894073
1784147739.042163,0.000846191,-0.055822287,-0.047414321,0.000283687,-0.000415244,0.000561510,0.555115521,-0.011096000,9.810237885
1784147739.044159,0.000845278,-0.055822801,-0.047414318,0.000343385,-0.001165229,-0.000065321,0.545100987,0.012927615,9.789310455
1784147739.046157,0.000845278,-0.055822801,-0.047414318,0.000857523,-0.001697664,-0.000683601,0.546222448,0.031301610,9.786740303
1784147739.048153,0.000846538,-0.055822372,-0.047414321,0.001105596,-0.001978945,-0.000682323,0.530765712,0.014916157,9.787515640
1784147739.050158,0.000846538,-0.055822372,-0.047414321,0.000894915,-0.001550881,-0.000479918,0.541722536,-0.007549322,9.776622772
1784147739.052159,0.000846538,-0.055822372,-0.047414321,0.000922467,-0.001187881,-0.000187481,0.579652429,-0.023472181,9.805250168
1784147739.054229,0.000845321,-0.055823106,-0.047414318,0.001353943,-0.001324190,0.000078133,0.578281581,0.009480906,9.773180962
1784147739.056168,0.000845321,-0.055823106,-0.047414318,0.001077675,-0.000946707,-0.000123792,0.524727583,-0.000811749,9.804895401
1784147739.058166,0.000844946,-0.055821422,-0.047414325,0.000195359,-0.000141619,-0.000395384,0.541125417,0.017122287,9.773641586
1784147739.060169,0.000844946,-0.055821422,-0.047414325,-0.000175929,0.000530177,-0.000303500,0.551563799,-0.008724349,9.798144341
1784147739.062201,0.000844946,-0.055821422,-0.047414325,-0.000050723,0.000852540,-0.000110503,0.548096478,-0.000417916,9.770398140
1784147739.064186,0.000843283,-0.055821348,-0.047414325,0.000127530,0.000675336,-0.000441411,0.540260553,0.021038258,9.791599274
1784147739.066178,0.000843283,-0.055821348,-0.047414325,0.000129379,0.000421409,-0.000647269,0.526877165,-0.009281805,9.794979095
1784147739.068178,0.000842278,-0.055820338,-0.047414329,0.000038853,0.000198651,-0.000346296,0.530545831,0.033748984,9.785842896
1784147739.070179,0.000842278,-0.055820338,-0.047414329,-0.000354928,-0.000123743,0.000142324,0.530652344,0.005915596,9.793286324
1784147739.072172,0.000842278,-0.055820338,-0.047414329,-0.000569366,-0.000376609,0.000371931,0.554456949,0.008632149,9.809467316
1784147739.074182,0.000842744,-0.055820204,-0.047414333,-0.000235357,-0.000560793,-0.000326511,0.548534751,-0.000506337,9.782054901
1784147739.076183,0.000842744,-0.055820204,-0.047414333,-0.000189411,-0.000601516,-0.001051733,0.553406596,-0.006342200,9.774847984
1784147739.078181,0.000841310,-0.055819806,-0.047414329,-0.000189828,-0.000292485,-0.000982507,0.537558973,0.018972851,9.771856308
1784147739.080183,0.000841310,-0.055819806,-0.047414329,-0.000319203,-0.000212395,-0.000535949,0.558281481,-0.012559246,9.758224487
1784147739.082183,0.000841310,-0.055819806,-0.047414329,-0.000941887,-0.000596452,-0.000520822,0.548049212,-0.004033402,9.774858475
1784147739.084188,0.000840312,-0.055819895,-0.047414333,-0.001358999,-0.000945745,-0.000979479,0.567520142,0.010892819,9.783042908
1784147739.086183,0.000840312,-0.055819895,-0.047414333,-0.001550898,-0.000824976,-0.001058611,0.535536528,0.000988373,9.784293175
1784147739.088225,0.000840255,-0.055820368,-0.047414329,-0.001688291,-0.000503365,-0.001060798,0.524795473,0.002155823,9.765460968
1784147739.090234,0.000840255,-0.055820368,-0.047414329,-0.001500928,-0.000521839,-0.001442430,0.516647816,-0.001543777,9.796363831
1784147739.092200,0.000840255,-0.055820368,-0.047414329,-0.001458170,-0.000787825,-0.001469275,0.547905624,0.020670617,9.766497612
1784147739.094225,0.000841369,-0.055820674,-0.047414329,-0.001664590,-0.001073012,-0.000839854,0.551702976,0.000479705,9.763681412
1784147739.096255,0.000841369,-0.055820674,-0.047414329,-0.001993092,-0.001079528,-0.000597110,0.550840437,0.004008122,9.773118019
1784147739.098202,0.000840802,-0.055821039,-0.047414329,-0.002299562,-0.000720356,-0.000941856,0.549832880,-0.005765572,9.763191223
1784147739.100229,0.000840802,-0.055821039,-0.047414329,-0.002488333,-0.000550843,-0.000904629,0.595086336,-0.047694780,9.781348228
1784147739.102208,0.000840802,-0.055821039,-0.047414329,-0.002393767,-0.000647397,-0.000625642,0.554244161,-0.012094521,9.763154984
1784147739.104206,0.000840983,-0.055821739,-0.047414325,-0.001777622,-0.000308659,-0.000581720,0.555335045,-0.033578925,9.758087158
1784147739.106230,0.000840983,-0.055821739,-0.047414325,-0.000671607,0.000454660,-0.000816578,0.533150077,-0.010648946,9.786906242
1784147739.108211,0.000839585,-0.055821314,-0.047414329,0.000384083,0.000737492,-0.000898536,0.537468076,0.010960428,9.764632225
1784147739.110223,0.000839585,-0.055821314,-0.047414329,0.000406213,0.000447056,-0.000871935,0.572036743,0.012690769,9.774091721
1784147739.112209,0.000839585,-0.055821314,-0.047414329,-0.000134006,0.000497006,-0.001429642,0.543406367,0.019416032,9.762001991
1784147739.114210,0.000839944,-0.055821378,-0.047414329,-0.000090376,0.000869558,-0.001652840,0.550392926,0.041613374,9.778289795
1784147739.116218,0.000839944,-0.055821378,-0.047414329,0.000168832,0.000646550,-0.000843032,0.524167657,0.025369087,9.778611183
1784147739.118217,0.000840364,-0.055819824,-0.047414336,0.000045721,0.000055696,-0.000292082,0.538066208,0.024291761,9.779065132
1784147739.120218,0.000840364,-0.055819824,-0.047414336,-0.000057471,0.000004613,-0.000087199,0.541578233,0.019175112,9.799210548
1784147739.122217,0.000840364,-0.055819824,-0.047414336,-0.000437158,0.000240449,0.000099198,0.551453888,-0.019723058,9.769828796
1784147739.124223,0.000838925,-0.055819929,-0.047414333,-0.001218137,0.000614907,0.000361676,0.536736012,-0.048313521,9.784426689
1784147739.126224,0.000838925,-0.055819929,-0.047414333,-0.001822450,0.000925073,0.000390575,0.497513860,0.011316306,9.786564827
1784147739.128252,0.000839740,-0.055817556,-0.047414336,-0.001705666,0.000698692,-0.000185718,0.527411699,0.033843286,9.778220177
1784147739.130238,0.000839740,-0.055817556,-0.047414336,-0.001118551,0.000185162,-0.000408116,0.540631115,0.014741976,9.794248581
1784147739.132233,0.000839740,-0.055817556,-0.047414336,-0.000745472,-0.000189347,-0.000407753,0.539868176,0.025136067,9.783107758
1784147739.134228,0.000841305,-0.055818211,-0.047414333,-0.000183354,-0.000480093,-0.000930630,0.536585569,0.012709716,9.772264481
1784147739.136238,0.000841305,-0.055818211,-0.047414333,0.000191892,-0.000546650,-0.001455200,0.539154530,0.002381649,9.770855904
1784147739.138232,0.000840593,-0.055817265,-0.047414333,0.000120055,-0.000665734,-0.001459197,0.565904260,0.024081571,9.758467674
1784147739.140235,0.000840593,-0.055817265,-0.047414333,0.000081533,-0.001061056,-0.001066667,0.561945915,-0.004720005,9.783385277
1784147739.142238,0.000840593,-0.055817265,-0.047414333,-0.000411914,-0.000912046,-0.000779017,0.573103666,-0.008577784,9.801753044
1784147739.144235,0.000840164,-0.055819303,-0.047414329,-0.001131542,-0.000690952,-0.000677724,0.563982844,-0.022184258,9.778344154
1784147739.146244,0.000840164,-0.055819303,-0.047414329,-0.001478022,-0.000819570,-0.000641368,0.550402641,-0.031463481,9.784546852
1784147739.148245,0.000837566,-0.055819653,-0.047414325,-0.001658592,-0.000880256,-0.000253548,0.571078360,-0.030638063,9.757225037
1784147739.150245,0.000837566,-0.055819653,-0.047414325,-0.001356474,-0.000807243,0.000698233,0.557501554,-0.000678562,9.790131569
1784147739.152243,0.000837566,-0.055819653,-0.047414325,-0.000682450,-0.000613958,0.001230632,0.547195494,0.036344860,9.768838882
1784147739.154246,0.000839360,-0.055818930,-0.047414329,-0.000334895,-0.000363609,0.001618861,0.573162198,0.031499993,9.773316383
1784147739.156281,0.000839360,-0.055818930,-0.047414329,0.000007565,-0.000255078,0.002045826,0.542189240,0.031798124,9.787186623
1784147739.158256,0.000840565,-0.055818107,-0.047414333,0.000232641,-0.000786948,0.002227061,0.537145555,0.023308771,9.792956352
1784147739.160256,0.000840565,-0.055818107,-0.047414333,0.000015838,-0.001365639,0.001924175,0.549777091,-0.009447834,9.777067184
1784147739.162252,0.000840565,-0.055818107,-0.047414333,-0.000349845,-0.001008902,0.001364547,0.554316759,-0.004631807,9.784724236
1784147739.164262,0.000839584,-0.055819251,-0.047414325,-0.000030470,-0.000071812,0.001033775,0.556815684,0.014376393,9.753463745
1784147739.166258,0.000839584,-0.055819251,-0.047414325,0.000165667,0.000522796,0.000539537,0.548566997,0.001774805,9.776241302
1784147739.168258,0.000839001,-0.055819001,-0.047414329,-0.000564262,0.000515061,0.000229803,0.573974371,0.025547355,9.789868355
1784147739.170262,0.000839001,-0.055819001,-0.047414329,-0.001007647,0.000363262,0.000202060,0.554030836,0.045595851,9.778769493
1784147739.172261,0.000839001,-0.055819001,-0.047414329,-0.000826159,0.000032797,-0.000071299,0.543756843,0.050550722,9.793585777
1784147739.174266,0.000841517,-0.055819303,-0.047414329,-0.000786724,-0.000423043,-0.000253732,0.517432928,0.026233608,9.795197487
1784147739.176277,0.000841517,-0.055819303,-0.047414329,-0.000915751,-0.000268214,-0.000257808,0.552843094,0.021836795,9.782649994
1784147739.178270,0.000841824,-0.055820283,-0.047414329,-0.000570081,0.000379591,-0.000220995,0.551122546,0.028525155,9.790312767
1784147739.180274,0.000841824,-0.055820283,-0.047414329,-0.000211369,0.000723809,-0.000104459,0.570980191,0.000909017,9.794637680
1784147739.182269,0.000841824,-0.055820283,-0.047414329,-0.000350698,0.000656452,-0.000274698,0.577742040,0.002690933,9.783896446
1784147739.184278,0.000841898,-0.055821750,-0.047414321,-0.000581525,0.000356678,-0.000382266,0.555654824,-0.004712648,9.793690681
1784147739.186277,0.000841898,-0.055821750,-0.047414321,-0.000226224,0.000042987,-0.000514483,0.538568437,-0.006397306,9.809354782
1784147739.188277,0.000840724,-0.055820175,-0.047414329,0.000266166,-0.000296821,-0.000484688,0.513038874,-0.005297317,9.763607025
1784147739.190275,0.000840724,-0.055820175,-0.047414329,0.000300647,-0.000257754,0.000332379,0.554646492,0.023907335,9.803289413
1784147739.192274,0.000840724,-0.055820175,-0.047414329,0.000439593,0.000290680,0.001057044,0.575831473,0.030474190,9.786763191
1784147739.194277,0.000842272,-0.055821709,-0.047414325,0.000870600,0.000890288,0.000665952,0.555997550,0.023524802,9.791630745
1784147739.196341,0.000842272,-0.055821709,-0.047414325,0.000966185,0.001063226,-0.000234534,0.544890583,0.030620063,9.758936882
1784147739.198300,0.000843545,-0.055821680,-0.047414325,0.000701942,0.000436179,-0.000786943,0.519075155,0.010821317,9.754302979
1784147739.200299,0.000843545,-0.055821680,-0.047414325,0.000467652,-0.000489585,-0.000957374,0.553870499,-0.005417049,9.769923210
1784147739.202333,0.000843545,-0.055821680,-0.047414325,0.000447154,-0.000626413,-0.000951934,0.563365281,-0.000511647,9.756065369
1784147739.204301,0.000843530,-0.055823050,-0.047414321,0.000839755,0.000239589,-0.000635062,0.548603296,0.004897812,9.778054237
1784147739.206304,0.000843530,-0.055823050,-0.047414321,0.001363627,0.001207669,-0.000040932,0.548603296,0.004897812,9.778054237
1784147739.208324,0.000844517,-0.055824470,-0.047414321,0.001068596,0.001182897,0.000278432,0.560829639,0.013727241,9.774536133
1784147739.210306,0.000844517,-0.055824470,-0.047414321,0.000177002,0.000434844,0.000397633,0.560829639,0.013727241,9.774536133
1784147739.212310,0.000844517,-0.055824470,-0.047414321,-0.000001521,-0.000025297,0.000503742,0.532109737,0.015693080,9.801869392
1784147739.214304,0.000844517,-0.055824470,-0.047414321,0.000339421,-0.000275698,0.000600314,0.532109737,0.015693080,9.801869392
1784147739.216315,0.000845011,-0.055823315,-0.047414321,0.000407806,-0.000541630,-0.000070210,0.552771151,0.016000580,9.784405708
1784147739.218303,0.000845068,-0.055823449,-0.047414318,0.000731955,-0.000467775,-0.000647012,0.560249090,0.003776097,9.788818359
1784147739.220313,0.000845068,-0.055823449,-0.047414318,0.001205636,-0.000130097,-0.000812522,0.543833554,-0.017944766,9.785524368
1784147739.222310,0.000844098,-0.055823416,-0.047414318,0.000645226,-0.000053223,-0.001115993,0.557050228,-0.000288442,9.799099922
1784147739.224310,0.000844098,-0.055823416,-0.047414318,-0.000182210,-0.000263796,-0.001158702,0.544982553,0.003482274,9.794629097
1784147739.226316,0.000844098,-0.055823416,-0.047414318,-0.000515466,-0.000581874,-0.001226407,0.544982553,0.003482274,9.794629097
1784147739.228318,0.000844493,-0.055823293,-0.047414318,-0.000632182,-0.000868726,-0.001311941,0.539811671,0.020637384,9.785768509
1784147739.230315,0.000844493,-0.055823293,-0.047414318,-0.000300066,-0.000851302,-0.000866876,0.536641657,0.018421924,9.787992477
1784147739.232308,0.000844558,-0.055822968,-0.047414325,0.000176885,-0.000753692,-0.000126613,0.550615847,0.023209427,9.782656670
1784147739.234320,0.000844558,-0.055822968,-0.047414325,0.000360715,-0.000753149,0.000466163,0.560401857,0.017545247,9.805494308
1784147739.236321,0.000844830,-0.055823281,-0.047414321,0.000427559,-0.000318611,0.000665633,0.539766490,0.016227724,9.775876045
1784147739.238318,0.000844830,-0.055823281,-0.047414321,0.000582956,-0.000252758,0.000412577,0.523459733,0.003875885,9.778022766
1784147739.240319,0.000844830,-0.055823281,-0.047414321,0.001143164,-0.000712365,0.000027542,0.524495542,0.015898924,9.786619186
1784147739.242325,0.000844711,-0.055821545,-0.047414325,0.001738583,-0.000490010,-0.000448121,0.569357097,0.014850599,9.790242195
1784147739.244376,0.000844711,-0.055821545,-0.047414325,0.001526876,0.000235248,-0.000521746,0.548403919,0.023082735,9.741408348
1784147739.246351,0.000844889,-0.055821482,-0.047414325,0.001260771,0.000528594,-0.000215832,0.560864449,0.014407320,9.741812706
1784147739.248343,0.000844889,-0.055821482,-0.047414325,0.001586473,0.000322046,0.000113818,0.567141771,0.015911998,9.770969391
1784147739.250334,0.000844889,-0.055821482,-0.047414325,0.001983187,-0.000171019,0.000171791,0.551207662,-0.004340367,9.749303818
1784147739.252358,0.000844582,-0.055821460,-0.047414325,0.002075484,-0.000382548,-0.000038192,0.527336717,-0.009201705,9.782874107
1784147739.254340,0.000844582,-0.055821460,-0.047414325,0.001931813,0.000023604,-0.000188375,0.545093000,0.011243874,9.774057388
1784147739.256341,0.000844771,-0.055821415,-0.047414325,0.001935535,0.000458101,0.000389131,0.544637263,0.011599018,9.787957191
1784147739.258338,0.000844771,-0.055821415,-0.047414325,0.001590298,0.000434513,0.001114271,0.541431725,0.007076983,9.799581528
1784147739.260344,0.000844771,-0.055821415,-0.047414325,0.000451049,0.000142124,0.001116081,0.565236747,0.006959870,9.773151398
1784147739.262349,0.000845032,-0.055822160,-0.047414325,-0.000829869,0.000076539,0.001352179,0.535220504,0.011767446,9.781224251
1784147739.264360,0.000845032,-0.055822160,-0.047414325,-0.001506602,0.000314426,0.001453965,0.546616316,0.026809881,9.787607193
1784147739.266349,0.000846108,-0.055822145,-0.047414325,-0.001347326,0.000466787,0.000861118,0.545049369,0.007657004,9.774480820
1784147739.268349,0.000846108,-0.055822145,-0.047414325,-0.001108075,0.000252909,0.000355413,0.542062938,0.019858971,9.765141487
1784147739.270342,0.000846108,-0.055822145,-0.047414325,-0.000954507,-0.000119440,0.000112136,0.557502568,-0.001075649,9.782956123
1784147739.272343,0.000845176,-0.055822596,-0.047414325,-0.000590519,-0.000500964,-0.000137510,0.536451221,0.002733745,9.789236069
1784147739.274345,0.000845176,-0.055822596,-0.047414325,-0.000377688,-0.000668459,-0.000625723,0.561703682,0.049094528,9.777006149
1784147739.276351,0.000847203,-0.055823263,-0.047414321,-0.000128304,-0.000396398,-0.000834621,0.538168728,0.033206470,9.785399437
1784147739.278348,0.000847203,-0.055823263,-0.047414321,-0.000200632,-0.000145232,-0.000373148,0.539163053,0.004475195,9.791492462
1784147739.280349,0.000847203,-0.055823263,-0.047414321,-0.000403352,-0.000411950,0.000176909,0.539785087,-0.019189211,9.778787613
1784147739.282383,0.000845983,-0.055822864,-0.047414325,0.000008954,-0.000753516,0.000126393,0.560155153,-0.004665213,9.778901100
1784147739.284355,0.000845983,-0.055822864,-0.047414325,0.000386894,-0.000482199,0.000255080,0.583264232,0.012219903,9.757062912
1784147739.286356,0.000846424,-0.055824820,-0.047414321,0.000099352,-0.000372128,0.000943155,0.550579548,0.020896483,9.792952538
1784147739.288359,0.000846424,-0.055824820,-0.047414321,-0.000512627,-0.000789809,0.001152168,0.545203745,0.022248946,9.801474571
1784147739.290359,0.000846424,-0.055824820,-0.047414321,-0.000666815,-0.000968690,0.000890402,0.545937240,0.008785897,9.803183556
1784147739.292358,0.000846622,-0.055825360,-0.047414314,-0.000159177,-0.000689714,0.000378041,0.544876516,-0.005054428,9.798161507
1784147739.294361,0.000846622,-0.055825360,-0.047414314,0.000700051,-0.000330985,0.000205005,0.569208503,0.037083074,9.751380920
1784147739.296375,0.000848121,-0.055826381,-0.047414314,0.000509017,-0.000297050,0.000437422,0.572410345,0.006823370,9.779433250
1784147739.298366,0.000848121,-0.055826381,-0.047414314,-0.000733980,-0.000472985,0.000044257,0.533602595,0.026560446,9.783110619
1784147739.300369,0.000848121,-0.055826381,-0.047414314,-0.001365332,-0.000369012,-0.000420949,0.517922997,0.028985571,9.785352707
1784147739.302412,0.000848610,-0.055824574,-0.047414321,-0.001335524,-0.000014435,-0.000125701,0.531349123,0.025699623,9.782205582
1784147739.304378,0.000848610,-0.055824574,-0.047414321,-0.000881487,0.000112662,0.000179598,0.541189611,0.020061255,9.738243103
1784147739.306382,0.000849386,-0.055824541,-0.047414321,-0.000697091,-0.000042615,-0.000014799,0.543894529,0.024178864,9.784449577
1784147739.308384,0.000849386,-0.055824541,-0.047414321,-0.000762237,-0.000295140,-0.000554649,0.538185537,-0.001819736,9.796381950
1784147739.310390,0.000849386,-0.055824541,-0.047414321,-0.000466601,-0.000466352,-0.000694583,0.561542273,-0.000711223,9.787446022
1784147739.312381,0.000848665,-0.055825025,-0.047414321,-0.000646900,-0.000336483,-0.000524956,0.545667231,-0.014419050,9.790480614
1784147739.314378,0.000848665,-0.055825025,-0.047414321,-0.001531881,0.000253336,-0.000580341,0.518218458,0.016017567,9.781234741
1784147739.316390,0.000849210,-0.055823464,-0.047414321,-0.001963442,0.000390958,-0.000333148,0.550497830,0.013767268,9.787527084
1784147739.318386,0.000849210,-0.055823464,-0.047414321,-0.001360722,0.000013678,-0.000208430,0.573014438,-0.017387569,9.780624390
1784147739.320387,0.000849210,-0.055823464,-0.047414321,-0.000776295,-0.000278408,-0.000496527,0.567203581,-0.015921252,9.773904800
1784147739.322389,0.000848034,-0.055824585,-0.047414321,-0.001017686,-0.000251889,-0.000399248,0.547693253,0.004404117,9.786119461
1784147739.324388,0.000848034,-0.055824585,-0.047414321,-0.001315980,0.000269296,0.000233826,0.552198589,0.041676227,9.766188622
1784147739.326396,0.000849862,-0.055824813,-0.047414325,-0.001009720,0.000606445,0.000840023,0.519637227,0.023463035,9.802803040
1784147739.328402,0.000849862,-0.055824813,-0.047414325,-0.000716284,0.000531184,0.000648142,0.551250041,0.000857104,9.774444580
1784147739.330391,0.000849862,-0.055824813,-0.047414325,-0.000430441,0.000492473,0.000689081,0.515522301,0.016020266,9.785715103
1784147739.332391,0.000849913,-0.055822913,-0.047414325,-0.000369728,0.000406000,0.001675092,0.539306402,0.014927744,9.770487785
1784147739.334403,0.000849913,-0.055822913,-0.047414325,-0.000579799,0.000150192,0.001994772,0.556934178,0.025038425,9.766086578
1784147739.336400,0.000851105,-0.055823348,-0.047414325,-0.000407788,-0.000320681,0.001089323,0.542263448,0.001683593,9.800444603
1784147739.338398,0.000851105,-0.055823348,-0.047414325,-0.000209380,-0.000697506,-0.000057759,0.562895119,0.035698853,9.768402100
1784147739.340403,0.000851105,-0.055823348,-0.047414325,-0.000061402,-0.000525728,-0.000295193,0.541179717,0.022008535,9.779500961
1784147739.342400,0.000851332,-0.055822659,-0.047414325,0.000231719,0.000046507,-0.000320962,0.529536784,0.025179278,9.795651436
1784147739.344401,0.000851332,-0.055822659,-0.047414325,0.000157633,0.000540686,-0.000700797,0.538426340,0.017102737,9.781260490
1784147739.346406,0.000852145,-0.055822451,-0.047414325,-0.000336349,0.000329793,-0.001035538,0.552505851,-0.006762763,9.772603035
1784147739.348408,0.000852145,-0.055822451,-0.047414325,-0.000718186,-0.000218590,-0.001444094,0.553240359,-0.020622900,9.767134666
1784147739.350410,0.000852145,-0.055822451,-0.047414325,-0.000578276,-0.000371819,-0.001541117,0.564475775,-0.018599961,9.777469635
1784147739.352406,0.000850714,-0.055823397,-0.047414325,-0.000222334,-0.000343850,-0.001339838,0.552393556,-0.015753781,9.777029037
1784147739.354411,0.000850714,-0.055823397,-0.047414325,-0.000164204,-0.000502183,-0.001050109,0.541079760,0.013519529,9.776309013
1784147739.356411,0.000851358,-0.055823389,-0.047414325,0.000078485,-0.000300904,0.000011472,0.547949076,0.024660934,9.772351265
1784147739.358410,0.000851358,-0.055823389,-0.047414325,0.000816647,0.000052011,0.001382575,0.538510203,0.022627715,9.760225296
1784147739.360419,0.000851358,-0.055823389,-0.047414325,0.001461312,-0.000046055,0.001404801,0.542491674,0.020910945,9.805499077
1784147739.362415,0.000852667,-0.055822741,-0.047414325,0.001499906,-0.000070539,0.000391617,0.543609619,0.000046203,9.776225090
1784147739.364413,0.000852667,-0.055822741,-0.047414325,0.001170009,0.000222136,-0.000453627,0.538655281,-0.003280290,9.748850822
1784147739.366424,0.000852443,-0.055822968,-0.047414325,0.000783963,0.000399148,-0.000780983,0.533348799,0.005509451,9.782526970
1784147739.368421,0.000852443,-0.055822968,-0.047414325,-0.000167375,0.000532336,-0.000533100,0.542591214,0.025749851,9.754869461
1784147739.370426,0.000852443,-0.055822968,-0.047414325,-0.001492369,0.000778288,-0.000045814,0.544860899,0.028764624,9.767891884
1784147739.372424,0.000853457,-0.055822659,-0.047414325,-0.002005758,0.000882254,0.000038691,0.552947164,0.029547522,9.769248962
1784147739.374430,0.000853457,-0.055822659,-0.047414325,-0.001600479,0.000954348,-0.000674758,0.529678583,-0.000754167,9.787863731
1784147739.376445,0.000853355,-0.055822212,-0.047414325,-0.001304523,0.001096192,-0.001085689,0.528763533,-0.001692648,9.795477867
1784147739.378433,0.000853355,-0.055822212,-0.047414325,-0.001727528,0.000753995,-0.000991405,0.537774146,0.000101863,9.778909683
1784147739.380433,0.000853355,-0.055822212,-0.047414325,-0.001763538,0.000574214,-0.000994107,0.529935539,0.021942409,9.809080124
1784147739.382435,0.000854459,-0.055820826,-0.047414325,-0.001278007,0.001011931,-0.000703265,0.566254973,0.019249629,9.807306290
1784147739.384435,0.000854459,-0.055820826,-0.047414325,-0.000946433,0.001023174,-0.000186258,0.560378075,0.013710734,9.777673721
1784147739.386438,0.000854672,-0.055821113,-0.047414325,-0.000475506,0.000436910,-0.000137504,0.546042860,0.016509339,9.787990570
1784147739.388440,0.000854672,-0.055821113,-0.047414325,-0.000329750,0.000050937,-0.000589471,0.536623955,0.016255252,9.777667046
1784147739.390441,0.000854672,-0.055821113,-0.047414325,-0.000601222,0.000006493,-0.000701383,0.546416104,-0.025734501,9.805204391
1784147739.392439,0.000853111,-0.055820655,-0.047414329,-0.000442491,-0.000515263,-0.000857278,0.547198832,-0.000002971,9.776676178
1784147739.394445,0.000853111,-0.055820655,-0.047414329,-0.000259847,-0.001347166,-0.000792738,0.522925854,-0.002869583,9.782462120
1784147739.396478,0.000852815,-0.055819467,-0.047414329,-0.000519709,-0.001464090,-0.000563102,0.541591227,0.018873416,9.778584480
1784147739.398449,0.000852815,-0.055819467,-0.047414329,-0.000624760,-0.000592124,-0.001058265,0.547818661,0.015120206,9.791120529
1784147739.400450,0.000852815,-0.055819467,-0.047414329,-0.000699839,0.000239299,-0.001129062,0.589388907,0.000362061,9.775374413
1784147739.402454,0.000852297,-0.055821493,-0.047414325,-0.000797368,0.000408370,-0.000352754,0.561512887,-0.003780175,9.778010368
1784147739.404455,0.000852297,-0.055821493,-0.047414325,-0.000926554,0.000172180,0.000210684,0.569811583,0.015295998,9.789797783
1784147739.406462,0.000852703,-0.055822000,-0.047414325,-0.000748195,0.000052948,0.000333040,0.534693062,0.005072854,9.778491020
1784147739.408461,0.000852703,-0.055822000,-0.047414325,-0.000129232,0.000050591,0.000459527,0.567283154,-0.009214553,9.775739670
1784147739.410462,0.000852703,-0.055822000,-0.047414325,0.000212076,-0.000162836,0.000044867,0.556159496,-0.001439585,9.773537636
1784147739.412463,0.000851590,-0.055821784,-0.047414325,0.000408516,-0.000242546,-0.000780371,0.573221684,-0.000352327,9.778941154
1784147739.414463,0.000851590,-0.055821784,-0.047414325,0.000464468,0.000163656,-0.000620925,0.551220238,-0.002215034,9.765457153
1784147739.416466,0.000851321,-0.055821739,-0.047414325,0.000380490,0.000745582,0.000038180,0.550136387,0.018919986,9.756625175
1784147739.418463,0.000851321,-0.055821739,-0.047414325,0.000389011,0.000864542,0.000227914,0.552531838,-0.004125871,9.779792786
1784147739.420471,0.000851321,-0.055821739,-0.047414325,0.000079984,0.000269415,0.000560403,0.536873162,0.002111512,9.812995911
1784147739.422471,0.000851089,-0.055821624,-0.047414325,-0.000508524,-0.000322314,0.000819211,0.524501264,0.017160138,9.798283577
1784147739.424468,0.000851089,-0.055821624,-0.047414325,-0.001055500,-0.000153374,0.000234677,0.553948879,0.001280108,9.773104668
1784147739.426475,0.000850868,-0.055822086,-0.047414321,-0.001089630,0.000235314,-0.000116883,0.533499181,0.016422682,9.759733200
1784147739.428482,0.000850868,-0.055822086,-0.047414321,-0.000609466,0.000492478,0.000042858,0.552160084,0.002160869,9.778489113
1784147739.430480,0.000850868,-0.055822086,-0.047414321,-0.000405822,0.000572514,0.000302812,0.542936265,0.019656701,9.792041779
1784147739.432480,0.000851062,-0.055822104,-0.047414321,-0.000729202,0.000544140,0.000779782,0.550665677,0.028060688,9.793448448
1784147739.434477,0.000851062,-0.055822104,-0.047414321,-0.000980566,0.000774521,0.001309141,0.543765247,0.014647673,9.801874161
1784147739.436484,0.000851417,-0.055822171,-0.047414321,-0.000822771,0.000617015,0.001314415,0.539067209,0.033607952,9.790334702
1784147739.438486,0.000851417,-0.055822171,-0.047414321,-0.000731635,-0.000159678,0.000700770,0.545723677,-0.009920361,9.787818909
1784147739.440484,0.000851417,-0.055822171,-0.047414321,-0.000825511,-0.000454991,0.000453558,0.528653026,-0.012291087,9.773889542
1784147739.442486,0.000850609,-0.055820934,-0.047414321,-0.000886339,-0.000003349,0.000132779,0.561601341,0.001376329,9.745764732
1784147739.444485,0.000850609,-0.055820934,-0.047414321,-0.000694668,0.000430565,-0.000009686,0.558346629,-0.004750327,9.794141769
1784147739.446492,0.000850155,-0.055821337,-0.047414321,-0.000230111,0.000829396,0.000501268,0.526440561,0.029219370,9.800157547
1784147739.448486,0.000850155,-0.055821337,-0.047414321,0.000308942,0.001209765,0.000549379,0.551311731,0.005397129,9.765954971
1784147739.450490,0.000850155,-0.055821337,-0.047414321,0.000228673,0.001204526,0.000491844,0.557770967,0.022116588,9.797451019
1784147739.452494,0.000850952,-0.055821840,-0.047414321,-0.000628738,0.000938007,0.000663819,0.554543555,-0.022600513,9.790884972
1784147739.454497,0.000850952,-0.055821840,-0.047414321,-0.001072602,0.000706789,0.000644767,0.524591804,-0.013230656,9.787329674
1784147739.456495,0.000850600,-0.055820834,-0.047414321,-0.000437639,0.000545794,0.000668556,0.543468237,0.025982819,9.783563614
1784147739.458497,0.000850600,-0.055820834,-0.047414321,0.001000145,0.000362781,0.000885639,0.538810134,0.009694685,9.751176834
1784147739.460501,0.000850600,-0.055820834,-0.047414321,0.002104112,0.000427282,0.000972767,0.557588100,0.005678750,9.778066635
1784147739.462504,0.000850722,-0.055821422,-0.047414321,0.001895486,0.000466639,0.001124846,0.548922360,0.028490681,9.736063004
1784147739.464514,0.000850722,-0.055821422,-0.047414321,0.001143483,0.000265576,0.001594436,0.560579777,-0.006481885,9.781579971
1784147739.466507,0.000849769,-0.055822045,-0.047414325,0.001011178,0.000078846,0.001900860,0.563809156,0.001471217,9.791496277
1784147739.468504,0.000849769,-0.055822045,-0.047414325,0.001239964,-0.000096357,0.002070230,0.556259632,0.007456047,9.782560349
1784147739.470508,0.000849769,-0.055822045,-0.047414325,0.001116974,-0.000326871,0.001867648,0.541817546,0.000901524,9.785195351
1784147739.472507,0.000849256,-0.055821825,-0.047414321,0.000504119,-0.000486499,0.001286041,0.542895794,0.014475128,9.764658928
1784147739.474505,0.000849256,-0.055821825,-0.047414321,-0.000194607,-0.000475400,0.001079277,0.561810791,0.020860864,9.777720451
1784147739.476516,0.000849558,-0.055822529,-0.047414321,-0.000470954,-0.000563361,0.001506143,0.552812874,0.019571558,9.786222458
1784147739.478519,0.000849558,-0.055822529,-0.047414321,-0.000385818,-0.000847737,0.002014909,0.547161043,-0.003138704,9.776656151
1784147739.480520,0.000849558,-0.055822529,-0.047414321,-0.000539638,-0.001172260,0.001355590,0.540342391,0.026547335,9.772805214
1784147739.482514,0.000850120,-0.055822227,-0.047414321,-0.000916621,-0.000987295,0.000137085,0.546185672,0.028578855,9.791653633
1784147739.484517,0.000850120,-0.055822227,-0.047414321,-0.000717245,-0.000427562,-0.000440581,0.556442857,0.023897061,9.801496506
1784147739.486523,0.000850467,-0.055822339,-0.047414325,-0.000373323,-0.000109948,-0.001186524,0.533791006,0.003426059,9.759648323
1784147739.488519,0.000850467,-0.055822339,-0.047414325,-0.000450892,-0.000161913,-0.001912554,0.528785288,0.000505828,9.801320076
1784147739.490525,0.000850467,-0.055822339,-0.047414325,-0.000380672,-0.000130688,-0.002188148,0.570117593,0.004437427,9.804074287
1784147739.492523,0.000850856,-0.055823248,-0.047414321,-0.000312501,-0.000163339,-0.002190626,0.564533591,0.023904860,9.785812378
1784147739.494528,0.000850856,-0.055823248,-0.047414321,-0.000320937,-0.000371362,-0.001399271,0.533701420,-0.001333366,9.799071312
1784147739.496531,0.000850221,-0.055822771,-0.047414318,0.000166015,0.000061990,-0.000204973,0.542961776,-0.015299555,9.793162346
1784147739.498529,0.000850221,-0.055822771,-0.047414318,0.000523678,0.000682641,0.000829230,0.532113492,0.014101553,9.773613930
1784147739.500531,0.000850221,-0.055822771,-0.047414318,0.000382786,0.000692116,0.001092133,0.560603261,0.032509200,9.780035019
1784147739.502540,0.000850979,-0.055822887,-0.047414321,-0.000249392,0.000131299,0.000864460,0.575946331,0.038270772,9.761258125
1784147739.504536,0.000850979,-0.055822887,-0.047414321,-0.000947494,-0.000473675,0.000859596,0.550334990,-0.000081376,9.782057762
1784147739.506540,0.000850291,-0.055823136,-0.047414321,-0.000913564,-0.000972469,0.000567763,0.529827714,0.010959595,9.778523445
1784147739.508547,0.000850291,-0.055823136,-0.047414321,-0.000292487,-0.001447937,-0.000023600,0.519988239,0.013770661,9.778981209
1784147739.510543,0.000850291,-0.055823136,-0.047414321,0.000725405,-0.001437656,-0.000902811,0.560134768,-0.007257583,9.765433311
1784147739.512538,0.000849486,-0.055823635,-0.047414321,0.001131499,-0.000653359,-0.001413150,0.563735902,-0.006807922,9.758714676
1784147739.514539,0.000849486,-0.055823635,-0.047414321,0.000162470,0.000143416,-0.001099711,0.550453067,0.008550717,9.765076637
1784147739.516543,0.000848977,-0.055823386,-0.047414321,-0.001070227,0.000513216,-0.000819229,0.531673849,-0.023816155,9.750953674
1784147739.518543,0.000848977,-0.055823386,-0.047414321,-0.001248636,0.000503204,-0.000344537,0.527771950,-0.011745777,9.761787415
1784147739.520554,0.000848977,-0.055823386,-0.047414321,-0.000824169,-0.000050487,0.000071315,0.564258516,-0.036524765,9.778252602
1784147739.522545,0.000846801,-0.055824112,-0.047414318,-0.000406470,-0.000630026,-0.000438882,0.563232958,-0.010471717,9.770795822
1784147739.524550,0.000846801,-0.055824112,-0.047414318,0.000044943,-0.000749917,-0.000465653,0.567618191,0.019772556,9.794307709
1784147739.526552,0.000847698,-0.055825539,-0.047414314,-0.000220185,-0.000474079,0.000039427,0.568406701,0.048792068,9.807496071
1784147739.528586,0.000847698,-0.055825539,-0.047414314,-0.000756918,-0.000409659,-0.000207695,0.535289168,0.019198367,9.807273865
1784147739.530576,0.000847698,-0.055825539,-0.047414314,-0.000463311,-0.000638772,-0.000604794,0.548679173,0.011575894,9.783925056
1784147739.532561,0.000848270,-0.055825092,-0.047414314,0.000203665,-0.000615228,-0.000459051,0.557783902,0.021408262,9.770995140
1784147739.534563,0.000848270,-0.055825092,-0.047414314,0.000907886,-0.000421878,-0.000116877,0.532449186,0.042688392,9.785453796
1784147739.536569,0.000849540,-0.055824634,-0.047414318,0.001347613,-0.000405233,-0.000030882,0.538697362,0.002320628,9.780269623
1784147739.538566,0.000849540,-0.055824634,-0.047414318,0.001487242,-0.000320932,0.000320709,0.503667712,0.000904093,9.790537834
1784147739.540567,0.000849540,-0.055824634,-0.047414318,0.001356616,-0.000040138,0.000433278,0.553820252,-0.009461421,9.771690369
1784147739.542564,0.000848713,-0.055824533,-0.047414318,0.001044269,-0.000026363,-0.000280405,0.539034784,-0.007479849,9.771688461
1784147739.544576,0.000848713,-0.055824533,-0.047414318,0.001428977,-0.000221695,-0.000674124,0.511942029,0.017356094,9.793342590
1784147739.546574,0.000849432,-0.055822950,-0.047414318,0.002088223,-0.000247286,-0.000111256,0.559000552,0.011453199,9.782589912
1784147739.548578,0.000849432,-0.055822950,-0.047414318,0.002265114,0.000097549,0.000264226,0.548693538,0.013310503,9.792005539
1784147739.550570,0.000849432,-0.055822950,-0.047414318,0.002016243,0.000375256,-0.000184764,0.541367888,0.001304364,9.792370796
1784147739.552570,0.000849624,-0.055823654,-0.047414318,0.001759828,0.000448726,0.000083024,0.564680040,-0.001586977,9.778924942
1784147739.554634,0.000849624,-0.055823654,-0.047414318,0.001605379,0.000177138,0.000402708,0.546369135,0.004189622,9.755631447
1784147739.556636,0.000848748,-0.055823695,-0.047414318,0.001077022,-0.000208794,-0.000250653,0.527107179,0.009554821,9.791961670
1784147739.558589,0.000848748,-0.055823695,-0.047414318,0.000278784,-0.000146599,-0.000219913,0.536537409,-0.025665255,9.813264847
1784147739.560592,0.000848748,-0.055823695,-0.047414318,-0.000121395,0.000125652,0.000634417,0.549029589,0.003093854,9.778939247
1784147739.562587,0.000849323,-0.055823762,-0.047414314,0.000096075,0.000535593,0.001078256,0.561710656,-0.024814660,9.774289131
1784147739.564591,0.000849323,-0.055823762,-0.047414314,0.000344162,0.000621369,0.000732628,0.531077147,0.000858636,9.747525215
1784147739.566601,0.000849227,-0.055822924,-0.047414318,0.000067473,0.000132362,0.000224317,0.528013706,0.008399751,9.763709068
1784147739.568592,0.000849227,-0.055822924,-0.047414318,-0.000082867,-0.000389628,0.000376679,0.548187256,-0.030402081,9.765273094
1784147739.570599,0.000849227,-0.055822924,-0.047414318,0.000029761,-0.000268975,0.000599127,0.568333805,0.041326173,9.786375999
1784147739.572604,0.000850504,-0.055824500,-0.047414318,-0.000042431,0.000454759,0.000078506,0.555963814,0.017584022,9.744966507
1784147739.574605,0.000850504,-0.055824500,-0.047414318,-0.000026127,0.000692488,-0.000175901,0.547039807,0.023363525,9.767411232
1784147739.576604,0.000851182,-0.055824243,-0.047414318,0.000249440,0.000388650,0.000647429,0.555467963,0.014380923,9.755256653
1784147739.578644,0.000851182,-0.055824243,-0.047414318,0.000396750,0.000292439,0.001482502,0.520895958,-0.020507842,9.809248924
1784147739.580621,0.000851182,-0.055824243,-0.047414318,0.000688955,0.000423328,0.001279926,0.533977687,0.021515835,9.798769951
1784147739.582608,0.000851365,-0.055823851,-0.047414318,0.001316526,0.000266315,0.000463687,0.529506147,0.022100775,9.787560463
1784147739.584608,0.000851365,-0.055823851,-0.047414318,0.000773796,-0.000341484,-0.000099169,0.552785039,0.017325388,9.787104607
1784147739.586612,0.000851349,-0.055823755,-0.047414318,-0.000489883,-0.000793671,-0.000384272,0.562786281,0.027139900,9.775072098
1784147739.588625,0.000851349,-0.055823755,-0.047414318,-0.000956679,-0.000965874,-0.000608422,0.554751098,0.031217804,9.783161163
1784147739.590613,0.000851349,-0.055823755,-0.047414318,-0.001078312,-0.000914904,-0.000571813,0.563128412,0.018997718,9.785331726
1784147739.592608,0.000851453,-0.055824798,-0.047414318,-0.000714351,-0.000828655,-0.000544152,0.547021329,0.023217263,9.788034439
1784147739.594656,0.000851453,-0.055824798,-0.047414318,0.000025380,-0.000391850,-0.000701681,0.541394234,0.001917666,9.769060135
1784147739.596627,0.000850682,-0.055824816,-0.047414318,-0.000137232,0.000293130,-0.000689147,0.576901793,0.005990783,9.762396812
1784147739.598621,0.000850682,-0.055824816,-0.047414318,-0.000929243,0.000385080,-0.000629199,0.551658630,-0.001896826,9.782945633
1784147739.600619,0.000850682,-0.055824816,-0.047414318,-0.000750609,0.000119378,-0.000495922,0.557323694,0.020918356,9.777716637
1784147739.602638,0.000851113,-0.055825334,-0.047414307,0.000372110,-0.000194430,-0.000145198,0.565262556,0.009190143,9.774511337
1784147739.604629,0.000851113,-0.055825334,-0.047414307,0.000555490,-0.000595634,0.000018071,0.543517888,-0.007972588,9.769897461
1784147739.606626,0.000850498,-0.055825729,-0.047414307,-0.000160562,-0.000843521,0.000262272,0.552506030,-0.004329368,9.808485031
1784147739.608640,0.000850498,-0.055825729,-0.047414307,-0.000625925,-0.000809496,0.000567817,0.528659105,0.028183419,9.815843582
1784147739.610635,0.000850498,-0.055825729,-0.047414307,-0.000748613,-0.000876152,0.000645823,0.546866715,0.011458989,9.803648949
1784147739.612634,0.000850889,-0.055825725,-0.047414307,-0.000423877,-0.001056055,0.000846990,0.535158932,0.007634049,9.795544624
1784147739.614637,0.000850889,-0.055825725,-0.047414307,-0.000061146,-0.001189469,0.001156192,0.525359452,0.012786676,9.781668663
1784147739.616639,0.000851139,-0.055824839,-0.047414314,-0.000029653,-0.001190834,0.000840052,0.575301290,-0.014642695,9.768539429
1784147739.618641,0.000851139,-0.055824839,-0.047414314,0.000141671,-0.000886334,0.000431167,0.553387344,-0.006494825,9.796366692
1784147739.620643,0.000851139,-0.055824839,-0.047414314,0.000409575,-0.000792490,0.000205021,0.552758515,0.016305462,9.804581642
1784147739.622643,0.000850264,-0.055825263,-0.047414307,0.000621090,-0.001008746,-0.000538943,0.550681412,0.030211456,9.806015015
1784147739.624639,0.000850264,-0.055825263,-0.047414307,0.001069014,-0.000685248,-0.000788936,0.531163990,0.009649342,9.771343231
1784147739.626646,0.000849601,-0.055824086,-0.047414307,0.001013944,-0.000537348,-0.000665268,0.526763797,0.016470758,9.765105247
1784147739.628644,0.000849601,-0.055824086,-0.047414307,0.000267457,-0.000687769,-0.001263706,0.542565286,-0.010423472,9.801263809
1784147739.630643,0.000849601,-0.055824086,-0.047414307,0.000177993,-0.000603704,-0.001788121,0.550273538,-0.005834915,9.772157669
1784147739.632645,0.000848748,-0.055824425,-0.047414307,0.000544685,-0.000622327,-0.001646407,0.564745903,0.004201546,9.783893585
1784147739.634653,0.000848748,-0.055824425,-0.047414307,0.000306762,-0.000452448,-0.001218019,0.560278177,0.005221728,9.774480820
1784147739.636646,0.000847899,-0.055824727,-0.047414307,-0.000207252,-0.000107812,-0.001103822,0.544040322,-0.001722776,9.772178650
1784147739.638650,0.000847899,-0.055824727,-0.047414307,-0.000724975,0.000200786,-0.001345471,0.530064642,-0.004902856,9.803528786
1784147739.640651,0.000847899,-0.055824727,-0.047414307,-0.000994612,0.000457005,-0.000961558,0.551261663,-0.035830580,9.767035484
1784147739.642646,0.000846049,-0.055825412,-0.047414307,-0.000416513,0.000470435,-0.000212269,0.547575235,-0.005038042,9.790990829
1784147739.644653,0.000846049,-0.055825412,-0.047414307,0.000288936,0.000026952,0.000367611,0.553316057,0.024048593,9.785802841
1784147739.646661,0.000846721,-0.055824965,-0.047414307,-0.000009747,-0.000197363,0.000789306,0.522688270,0.014203213,9.776295662
1784147739.648655,0.000846721,-0.055824965,-0.047414307,-0.000728854,0.000024167,0.000845129,0.532675564,0.023096360,9.767843246
1784147739.650667,0.000846721,-0.055824965,-0.047414307,-0.001195138,0.000333459,0.000146587,0.553190649,0.014142575,9.792912483
1784147739.652659,0.000846464,-0.055825178,-0.047414307,-0.001786762,0.000669487,-0.000362077,0.551204085,-0.002342216,9.783390045
1784147739.654664,0.000846464,-0.055825178,-0.047414307,-0.001874033,0.001016134,-0.000334380,0.551788211,0.006420848,9.747131348
1784147739.656669,0.000847112,-0.055825178,-0.047414307,-0.001089765,0.001132198,-0.000096995,0.535789907,0.020819491,9.767383575
1784147739.658667,0.000847112,-0.055825178,-0.047414307,-0.000558017,0.000963417,0.000363293,0.538407743,0.014929708,9.771831512
1784147739.660677,0.000847112,-0.055825178,-0.047414307,-0.000477794,0.000721764,0.000047593,0.540966630,0.003305455,9.763689995
1784147739.662671,0.000846519,-0.055825215,-0.047414307,-0.000253038,0.000693124,-0.001029741,0.559212685,-0.008656747,9.774838448
1784147739.664669,0.000846519,-0.055825215,-0.047414307,-0.000196788,0.000850976,-0.001416602,0.567284286,-0.008394943,9.786504745
1784147739.666674,0.000845478,-0.055826154,-0.047414307,-0.000249526,0.000836005,-0.000886968,0.543091178,-0.004551670,9.793680191
1784147739.668671,0.000845478,-0.055826154,-0.047414307,-0.000068115,0.001162610,-0.000155921,0.523878872,0.003231396,9.804920197
1784147739.670679,0.000845478,-0.055826154,-0.047414307,-0.000350353,0.001548668,0.000430961,0.513776958,0.020081272,9.784842491
1784147739.672678,0.000846496,-0.055824541,-0.047414314,-0.000924283,0.001204129,0.000818323,0.548292756,0.018151619,9.805037498
1784147739.674675,0.000846496,-0.055824541,-0.047414314,-0.000714807,0.000443056,0.000990357,0.546543777,0.018537089,9.753930092
1784147739.676681,0.000847204,-0.055824365,-0.047414307,0.000252907,-0.000133739,0.000394780,0.556500196,-0.009997929,9.779311180
1784147739.678683,0.000847204,-0.055824365,-0.047414307,0.000270797,-0.000564186,-0.000094396,0.537005126,0.010448264,9.774491310
1784147739.680686,0.000847204,-0.055824365,-0.047414307,-0.000401996,-0.000639809,0.000109086,0.525392354,0.015477615,9.781237602
1784147739.682680,0.000847204,-0.055823121,-0.047414307,-0.000127047,-0.000180950,0.000225297,0.541439712,0.007950646,9.802724838
1784147739.684684,0.000847204,-0.055823121,-0.047414307,0.000145570,0.000047537,-0.000177919,0.535065651,-0.001207526,9.778899193
1784147739.686701,0.000847505,-0.055822339,-0.047414314,-0.000073215,0.000074495,-0.000473097,0.546485722,0.016052458,9.788434982
1784147739.688695,0.000847505,-0.055822339,-0.047414314,-0.000287314,0.000128508,-0.000326991,0.539064705,-0.003191016,9.798615456
1784147739.690691,0.000847505,-0.055822339,-0.047414314,-0.000409788,-0.000101829,-0.000330314,0.559024096,-0.025545720,9.755901337
1784147739.692698,0.000846258,-0.055823591,-0.047414307,-0.000264973,-0.000449708,-0.000730506,0.554770172,-0.005816099,9.761403084
1784147739.694697,0.000846258,-0.055823591,-0.047414307,0.000042970,-0.000363665,-0.000965674,0.581547141,0.017720181,9.742749214
1784147739.696737,0.000846563,-0.055825084,-0.047414307,0.000307161,0.000215583,-0.000321718,0.535041273,-0.003021628,9.782026291
1784147739.698704,0.000846563,-0.055825084,-0.047414307,0.000622037,0.000363151,0.000651514,0.549830616,-0.002541186,9.813873291
1784147739.700706,0.000846563,-0.055825084,-0.047414307,0.000957711,0.000201400,0.001052290,0.561709642,0.011552255,9.763761520
1784147739.702695,0.000846033,-0.055825103,-0.047414307,0.001150262,0.000194889,0.000893495,0.539671063,0.008990390,9.785694122
1784147739.704705,0.000846033,-0.055825103,-0.047414307,0.001147655,0.000318677,0.000615836,0.563551009,0.015138380,9.760200500
1784147739.706711,0.000846266,-0.055825680,-0.047414307,0.001249876,0.000064087,0.000682587,0.573390663,0.013950631,9.783515930
1784147739.708710,0.000846266,-0.055825680,-0.047414307,0.001136053,-0.000698533,0.001251201,0.570816636,0.023833912,9.784473419
1784147739.710711,0.000846266,-0.055825680,-0.047414307,0.000371710,-0.000812441,0.001287721,0.558662415,-0.016342649,9.785549164
1784147739.712708,0.000845581,-0.055826079,-0.047414307,-0.000412617,-0.000366233,0.000540685,0.526668668,-0.026733208,9.792176247
1784147739.714712,0.000845581,-0.055826079,-0.047414307,-0.001091799,0.000119213,0.000448494,0.524602056,0.024845427,9.788470268
1784147739.716713,0.000846911,-0.055825491,-0.047414307,-0.001244366,0.000325837,0.000272748,0.539404929,0.025837423,9.811355591
1784147739.718710,0.000846911,-0.055825491,-0.047414307,-0.000904260,0.000294601,-0.000361028,0.510130465,0.014815324,9.775839806
1784147739.720716,0.000846911,-0.055825491,-0.047414307,-0.000948605,0.000110237,-0.000372796,0.528013408,0.009613270,9.782099724
1784147739.722713,0.000847307,-0.055825166,-0.047414307,-0.001018304,-0.000114328,-0.000273621,0.531017661,-0.001232098,9.789654732
1784147739.724712,0.000847307,-0.055825166,-0.047414307,-0.000813371,0.000040983,0.000179899,0.562577784,0.009688498,9.772269249
1784147739.726721,0.000847428,-0.055825733,-0.047414307,-0.000463975,0.000347635,0.000890767,0.585825682,0.003048127,9.782113075
1784147739.728724,0.000847428,-0.055825733,-0.047414307,-0.000030554,0.000319212,0.001064524,0.586676061,-0.001792374,9.768184662
1784147739.730727,0.000847428,-0.055825733,-0.047414307,0.000101712,-0.000021398,0.000846046,0.544066608,0.003347506,9.815251350
1784147739.732726,0.000852120,-0.055818066,-0.047373433,-0.000202028,-0.000645101,0.000113252,0.540850818,0.032821402,9.792721748
1784147739.734726,0.000852120,-0.055818066,-0.047373433,-0.000186057,-0.000921881,-0.000346273,0.576926589,0.009428209,9.783041000
1784147739.736726,0.000852644,-0.055819325,-0.047373425,0.000664080,-0.000286642,0.000311796,0.543352783,0.016156295,9.779466629
1784147739.738727,0.000852644,-0.055819325,-0.047373425,0.001105656,0.000518364,0.001063593,0.545474887,0.007063393,9.794204712
1784147739.740735,0.000852644,-0.055819325,-0.047373425,0.000829600,0.000793349,0.000615735,0.526664138,0.008795007,9.773573875
1784147739.742728,0.000852420,-0.055818114,-0.047373429,0.000735698,0.000761738,-0.000235149,0.544816256,0.026791541,9.793434143
1784147739.744736,0.000852420,-0.055818114,-0.047373429,0.000722111,0.000862121,-0.000529303,0.544579923,0.006283897,9.779404640
1784147739.746737,0.000852636,-0.055818420,-0.047373433,0.000638898,0.000933493,-0.000328525,0.552744567,0.012953883,9.771833420
1784147739.748739,0.000852636,-0.055818420,-0.047373433,0.000376913,0.000823784,0.000123400,0.548687458,0.011236039,9.768680573
1784147739.750734,0.000852636,-0.055818420,-0.047373433,-0.000123150,0.000497422,0.000089722,0.514857352,-0.001485800,9.791431427
1784147739.752738,0.000851649,-0.055816360,-0.047373436,-0.000650870,0.000207103,0.000118790,0.535203636,-0.025956064,9.793534279
1784147739.754740,0.000851649,-0.055816360,-0.047373436,-0.000784800,-0.000153741,0.000572776,0.557220876,0.013217165,9.789772034
1784147739.756748,0.000852601,-0.055816896,-0.047373433,-0.000722510,-0.000705660,0.000793833,0.561005950,0.030114207,9.801092148
1784147739.758743,0.000852601,-0.055816896,-0.047373433,-0.001068767,-0.000632869,0.000523650,0.561319828,0.054475807,9.777038574
1784147739.760745,0.000852601,-0.055816896,-0.047373433,-0.001043974,-0.000007850,0.000492918,0.559587479,0.022265293,9.773243904
1784147739.762755,0.000854062,-0.055817828,-0.047373433,-0.000741732,-0.000041131,0.000396052,0.529527307,0.024699520,9.800130844
1784147739.764751,0.000854062,-0.055817828,-0.047373433,-0.001051700,-0.000634638,0.000159006,0.526755035,-0.022809301,9.744230270
1784147739.766754,0.000853134,-0.055817410,-0.047373433,-0.001540793,-0.000326416,0.000026132,0.553236067,-0.019441180,9.790007591
1784147739.768747,0.000853134,-0.055817410,-0.047373433,-0.001545504,0.000527511,-0.000590103,0.556537807,-0.007268829,9.773500443
1784147739.770756,0.000853134,-0.055817410,-0.047373433,-0.001176139,0.000620492,-0.000535928,0.564099550,-0.013158264,9.768985748
1784147739.772752,0.000851632,-0.055818159,-0.047373429,-0.000570250,0.000194964,0.000097034,0.550981104,0.016871808,9.791134834
1784147739.774754,0.000851632,-0.055818159,-0.047373429,0.000069014,-0.000364723,-0.000165009,0.533801258,0.043528907,9.790840149
1784147739.776764,0.000853892,-0.055817205,-0.047373429,0.000447782,-0.000482639,-0.000498842,0.542925179,0.018354153,9.786205292
1784147739.778758,0.000853892,-0.055817205,-0.047373429,0.000726437,-0.000176571,-0.000089983,0.538358450,0.010488247,9.766424179
1784147739.780768,0.000853892,-0.055817205,-0.047373429,0.000622432,0.000050593,0.000062988,0.543502033,-0.008503216,9.781550407
1784147739.782767,0.000853048,-0.055816241,-0.047373433,0.000241356,0.000294578,-0.000349124,0.561048210,-0.041084956,9.795255661
1784147739.784766,0.000853048,-0.055816241,-0.047373433,0.000069516,0.000166742,-0.000903604,0.561099470,-0.001064404,9.774888992
1784147739.786770,0.000852855,-0.055817194,-0.047373429,0.000192719,-0.000291152,-0.000966190,0.555753231,0.002953571,9.786566734
1784147739.788771,0.000852855,-0.055817194,-0.047373429,0.000772364,-0.000328003,-0.000359486,0.541734099,0.030942928,9.782249451
1784147739.790773,0.000852855,-0.055817194,-0.047373429,0.001414635,-0.000086900,0.000030178,0.550920367,0.010718002,9.774507523
1784147739.792768,0.000853878,-0.055816554,-0.047373429,0.001449620,0.000060952,-0.000264456,0.557193577,0.009354037,9.765985489
1784147739.794769,0.000853878,-0.055816554,-0.047373429,0.001113604,0.000242784,-0.000190427,0.545764387,0.028800825,9.761167526
1784147739.796866,0.000854694,-0.055816513,-0.047373429,0.000650632,0.000356944,0.000296298,0.542452157,0.016952425,9.795162201
1784147739.798837,0.000854694,-0.055816513,-0.047373429,0.000040873,0.000264715,0.000378684,0.557205498,0.011069572,9.776757240
1784147739.800822,0.000854694,-0.055816513,-0.047373429,-0.000461312,-0.000248950,-0.000033225,0.562939644,0.003728886,9.790612221
1784147739.802842,0.000854537,-0.055817369,-0.047373429,-0.000606708,-0.000354101,-0.000566120,0.538832664,-0.022853617,9.791766167
1784147739.804874,0.000854537,-0.055817369,-0.047373429,-0.000127031,0.000316073,-0.000479891,0.540790141,-0.009434593,9.791404724
1784147739.806831,0.000853657,-0.055816658,-0.047373433,-0.000068856,0.000732332,0.000087513,0.525730610,0.007710268,9.801811218
1784147739.808810,0.000853657,-0.055816658,-0.047373433,-0.000971931,0.000577124,0.000605115,0.552362025,0.018344708,9.770522118
1784147739.810831,0.000853657,-0.055816658,-0.047373433,-0.001201994,-0.000063640,0.001160441,0.537823796,0.042136461,9.790389061
1784147739.812816,0.000855365,-0.055816572,-0.047373433,-0.000374795,-0.000540049,0.001385999,0.538951516,0.024184873,9.792515755
1784147739.814808,0.000855365,-0.055816572,-0.047373433,-0.000181102,-0.000322510,0.001191775,0.557770431,0.022923481,9.810009956
1784147739.816812,0.000856241,-0.055817019,-0.047373429,-0.000747801,-0.000355834,0.001282765,0.535715759,0.014560753,9.765550613
1784147739.818808,0.000856241,-0.055817019,-0.047373429,-0.000445583,-0.001161122,0.001237525,0.532027960,0.006537085,9.766391754
1784147739.820812,0.000856241,-0.055817019,-0.047373429,0.000233256,-0.001193075,0.000937609,0.520604908,-0.010341704,9.766273499
1784147739.822804,0.000854790,-0.055815320,-0.047373436,0.000195388,-0.000292542,0.000705373,0.556439757,0.022251485,9.780861855
1784147739.824812,0.000854790,-0.055815320,-0.047373436,-0.000304472,0.000222926,0.000805436,0.573218167,-0.000784389,9.776697159
1784147739.826808,0.000853536,-0.055816598,-0.047373433,-0.001107523,0.000187861,0.001091967,0.561639071,0.006132199,9.770005226
1784147739.828802,0.000853536,-0.055816598,-0.047373433,-0.001259131,0.000068864,0.001102300,0.544550180,0.005238533,9.800468445
1784147739.830811,0.000853536,-0.055816598,-0.047373433,-0.000553772,0.000066586,0.000588091,0.528995037,0.017966771,9.802777290
1784147739.832808,0.000854114,-0.055815637,-0.047373436,-0.000042311,-0.000046141,0.000718324,0.531508625,0.000716162,9.766802788
1784147739.834811,0.000854114,-0.055815637,-0.047373436,-0.000231070,0.000033031,0.001914364,0.552198768,0.004492888,9.765501022
1784147739.836812,0.000853737,-0.055816494,-0.047373433,-0.000670143,0.000546264,0.002408638,0.561699390,0.011876207,9.781250000
1784147739.838812,0.000853737,-0.055816494,-0.047373433,-0.000625549,0.000888521,0.001415228,0.567420661,0.002813625,9.785231590
1784147739.840812,0.000853737,-0.055816494,-0.047373433,-0.000526832,0.000544049,0.000543922,0.530858815,0.023351099,9.798329353
1784147739.842815,0.000854297,-0.055816855,-0.047373433,-0.000247326,-0.000398084,0.000717995,0.517773628,0.054048523,9.789547920
1784147739.844814,0.000854297,-0.055816855,-0.047373433,0.000138275,-0.000995830,0.000755329,0.537518084,0.017028382,9.793364525
1784147739.846823,0.000853728,-0.055816308,-0.047373436,0.000265651,-0.000566108,0.000859310,0.541030586,0.009484697,9.776731491
1784147739.848819,0.000853728,-0.055816308,-0.047373436,0.000055449,0.000128855,0.000828395,0.535813928,0.022630414,9.764705658
1784147739.850844,0.000853728,-0.055816308,-0.047373436,-0.000426204,0.000263232,0.000388088,0.543359876,0.016616968,9.777675629
1784147739.852866,0.000854123,-0.055816237,-0.047373436,-0.000618701,-0.000036675,0.000083416,0.550601363,0.020258116,9.756634712
1784147739.854841,0.000854123,-0.055816237,-0.047373436,-0.000344060,-0.000437075,-0.000554081,0.545011044,0.004518101,9.774910927
1784147739.856835,0.000853943,-0.055815723,-0.047373436,0.000202014,-0.000568618,-0.001323929,0.549708545,-0.014041911,9.793177605
1784147739.858834,0.000853943,-0.055815723,-0.047373436,0.000385533,-0.000357809,-0.001612610,0.561883330,-0.009266392,9.792771339
1784147739.860863,0.000853943,-0.055815723,-0.047373436,-0.000130485,-0.000001785,-0.001407624,0.546577632,-0.013922174,9.781966209
1784147739.862842,0.000853034,-0.055816442,-0.047373433,-0.000671108,0.000149251,-0.000916175,0.520410776,0.010721395,9.765958786
1784147739.864870,0.000853034,-0.055816442,-0.047373433,-0.000163949,0.000014468,-0.000377573,0.526267231,0.014477989,9.794234276
1784147739.866848,0.000853104,-0.055815712,-0.047373440,0.000331655,-0.000103632,0.000105141,0.544197738,0.012487972,9.789754868
1784147739.868839,0.000853104,-0.055815712,-0.047373440,-0.000445107,-0.000121851,0.000202637,0.577149808,0.027400704,9.775536537
1784147739.870843,0.000853104,-0.055815712,-0.047373440,-0.001264383,-0.000203171,0.000074311,0.537353337,0.038323592,9.760324478
1784147739.872843,0.000855067,-0.055816110,-0.047373440,-0.001302057,-0.000341765,0.000197895,0.525572360,0.031083126,9.791649818
1784147739.874841,0.000855067,-0.055816110,-0.047373440,-0.001236290,-0.000191525,0.000253368,0.558662832,0.019630359,9.767397881
1784147739.876844,0.000855452,-0.055818744,-0.047373436,-0.001561827,0.000410363,-0.000101210,0.566763401,0.020931173,9.758895874
1784147739.878852,0.000855452,-0.055818744,-0.047373436,-0.001690566,0.000864997,-0.000250943,0.562240779,-0.019314514,9.755944252
1784147739.880852,0.000855452,-0.055818744,-0.047373436,-0.001121308,0.000648956,-0.000343965,0.580064237,-0.027417371,9.792222977
1784147739.882849,0.000854129,-0.055820353,-0.047373436,-0.000671444,0.000243632,-0.001135129,0.551675558,0.000263490,9.794167519
1784147739.884850,0.000854129,-0.055820353,-0.047373436,-0.001121916,-0.000045244,-0.001387752,0.552643716,0.006888734,9.805867195
1784147739.886853,0.000853788,-0.055820625,-0.047373436,-0.001377008,-0.000027024,-0.000830271,0.534572065,-0.004798186,9.780668259
1784147739.888858,0.000853788,-0.055820625,-0.047373436,-0.000637241,0.000230361,-0.000764305,0.561418831,-0.011411416,9.780202866
1784147739.890851,0.000853788,-0.055820625,-0.047373436,-0.000402666,0.000691354,-0.000751313,0.545781672,-0.005815580,9.777534485
1784147739.892858,0.000852984,-0.055821367,-0.047373433,-0.000887903,0.000688287,-0.000094914,0.550296366,0.033556435,9.777342796
1784147739.894853,0.000852984,-0.055821367,-0.047373433,-0.000671065,-0.000058617,0.000470282,0.533020258,0.016189953,9.793355942
1784147739.896865,0.000853237,-0.055820525,-0.047373436,0.000014669,-0.000424554,0.000252039,0.515519083,0.015994830,9.789300919
1784147739.898908,0.000853237,-0.055820525,-0.047373436,0.000680531,-0.000438725,-0.000266314,0.522584736,0.005685588,9.777137756
1784147739.900880,0.000853237,-0.055820525,-0.047373436,0.000638441,-0.000555676,0.000058660,0.556102991,0.031651691,9.782716751
1784147739.902900,0.000854425,-0.055820916,-0.047373433,0.000103048,-0.000334094,0.001054484,0.544364214,0.026365224,9.791189194
1784147739.904870,0.000854425,-0.055820916,-0.047373433,0.000710397,-0.000018226,0.001258873,0.536680102,0.020750759,9.775454521
1784147739.906879,0.000854327,-0.055820685,-0.047373433,0.001461130,0.000088429,0.000450825,0.545359790,-0.002356509,9.795937538
1784147739.908875,0.000854327,-0.055820685,-0.047373433,0.001158239,0.000122619,-0.000356044,0.561192870,0.008183796,9.797365189
1784147739.910877,0.000854327,-0.055820685,-0.047373433,0.000685165,0.000327030,-0.000419738,0.540601134,0.011263215,9.779431343
1784147739.912878,0.000854068,-0.055820607,-0.047373436,0.000902270,0.000700665,0.000059509,0.531668901,0.013329028,9.757020950
1784147739.914877,0.000854068,-0.055820607,-0.047373436,0.001543133,0.000481228,0.000478870,0.550576627,0.019657530,9.778151512
1784147739.916880,0.000855241,-0.055820823,-0.047373433,0.001989775,0.000018590,0.000295252,0.556866467,0.018830562,9.757081032
1784147739.918881,0.000855241,-0.055820823,-0.047373433,0.002265289,-0.000026702,-0.000360468,0.564656138,-0.002991274,9.787433624
1784147739.920889,0.000855241,-0.055820823,-0.047373433,0.002016504,0.000284035,-0.000331501,0.541386306,0.000233934,9.753807068
1784147739.922881,0.000855103,-0.055820927,-0.047373433,0.001581784,0.000599702,0.000249302,0.550379694,0.002298338,9.762347221
1784147739.924902,0.000855103,-0.055820927,-0.047373433,0.001495776,0.000273516,-0.000034342,0.544155657,0.009723898,9.800497055
1784147739.926891,0.000854940,-0.055821229,-0.047373433,0.001358011,-0.000267955,-0.000459408,0.515353441,0.001313862,9.774861336
1784147739.928900,0.000854940,-0.055821229,-0.047373433,0.000883960,-0.000013067,-0.000332796,0.525881469,-0.017746592,9.789991379
1784147739.930890,0.000854940,-0.055821229,-0.047373433,0.000414576,0.000390387,-0.000311752,0.554118693,0.016399501,9.788892746
1784147739.932891,0.000855424,-0.055820994,-0.047373436,0.000322431,0.000410621,-0.000135083,0.574855506,0.021355135,9.747697830
1784147739.934891,0.000855424,-0.055820994,-0.047373436,0.000617365,0.000562684,0.000446254,0.549537957,0.007612236,9.772691727
1784147739.936896,0.000855380,-0.055820253,-0.047373440,0.000737364,0.000208054,0.000614283,0.555136561,0.024229094,9.757112503
1784147739.938896,0.000855380,-0.055820253,-0.047373440,0.000260167,-0.000509857,0.000354144,0.535175443,0.007764417,9.777162552
1784147739.940905,0.000855380,-0.055820253,-0.047373440,-0.000137353,-0.000548656,0.000546343,0.562214553,0.017258706,9.779490471
1784147739.942904,0.000855806,-0.055821206,-0.047373436,-0.000226466,-0.000469981,0.000506754,0.554987311,0.012918776,9.772732735
1784147739.944898,0.000855806,-0.055821206,-0.047373436,-0.000003344,-0.000681444,-0.000227147,0.513859093,-0.011186368,9.771192551
1784147739.946908,0.000855474,-0.055819329,-0.047373440,0.000381456,-0.000351799,-0.000776790,0.539537251,-0.004629311,9.747945786
1784147739.948906,0.000855474,-0.055819329,-0.047373440,0.000593898,0.000407954,-0.000668961,0.570867181,-0.010115133,9.769908905
1784147739.950904,0.000855474,-0.055819329,-0.047373440,0.000689464,0.000476861,-0.000719565,0.543339252,0.017264882,9.812649727
1784147739.952905,0.000855968,-0.055819642,-0.047373440,0.000427916,-0.000061573,-0.001049065,0.560138285,0.029954372,9.762085915
1784147739.954908,0.000855968,-0.055819642,-0.047373440,0.000021487,-0.000221263,-0.000674388,0.555430233,0.011651816,9.761067390
1784147739.956909,0.000855995,-0.055820003,-0.047373440,0.000197524,-0.000004907,0.000287133,0.542183518,0.028916771,9.751301765
1784147739.958910,0.000855995,-0.055820003,-0.047373440,0.000818805,0.000509920,0.000575173,0.522186518,0.010952403,9.793311119
1784147739.960916,0.000855995,-0.055820003,-0.047373440,0.000821047,0.000876471,0.000026068,0.547783732,0.012413362,9.793794632
1784147739.962909,0.000856454,-0.055819783,-0.047373444,0.000524659,0.000389308,-0.000143951,0.559980929,0.018580465,9.786670685
1784147739.964912,0.000856454,-0.055819783,-0.047373444,0.000503543,-0.000293110,-0.000034650,0.557906449,-0.004677797,9.784726143
1784147739.966928,0.000854995,-0.055819813,-0.047373440,0.000422364,-0.000265345,-0.000313241,0.582583010,-0.005009908,9.786990166
1784147739.968919,0.000854995,-0.055819813,-0.047373440,-0.000049136,0.000188210,-0.000008982,0.541400731,-0.034404729,9.773311615
1784147739.970916,0.000854995,-0.055819813,-0.047373440,-0.000502118,0.000569703,0.000880695,0.539395392,-0.013448997,9.791376114
1784147739.972923,0.000853601,-0.055819962,-0.047373444,-0.000058550,0.000304391,0.000696634,0.528490543,0.012263495,9.786601067
1784147739.974928,0.000853601,-0.055819962,-0.047373444,0.000479678,-0.000245987,-0.000287535,0.563987374,0.015440691,9.779930115
1784147739.976929,0.000853588,-0.055819977,-0.047373444,0.000528825,-0.000501786,-0.000589036,0.552641809,0.039195750,9.736134529
1784147739.978931,0.000853588,-0.055819977,-0.047373444,0.000329749,-0.000667712,-0.000790884,0.564594686,0.028035086,9.771941185
1784147739.980930,0.000853588,-0.055819977,-0.047373444,-0.000103135,-0.000764385,-0.001443702,0.546521187,0.019169103,9.791145325
1784147739.982933,0.000854267,-0.055819601,-0.047373444,-0.000379145,-0.000459575,-0.001538031,0.556164205,0.000218719,9.792378426
1784147739.984930,0.000854267,-0.055819601,-0.047373444,-0.000395155,0.000138906,-0.001676565,0.552263856,0.013111882,9.813527107
1784147739.986940,0.000854427,-0.055819076,-0.047373444,-0.000463500,0.000236730,-0.002302963,0.525867939,-0.019068219,9.786845207
1784147739.988940,0.000854427,-0.055819076,-0.047373444,-0.000356338,-0.000163449,-0.002472835,0.555635512,-0.007702110,9.773048401
1784147739.990941,0.000854427,-0.055819076,-0.047373444,-0.000083301,-0.000712055,-0.002110308,0.551728487,0.004733559,9.795540810
1784147739.992939,0.000854073,-0.055819664,-0.047373440,-0.000096110,-0.000500995,-0.001265488,0.538305700,0.007234873,9.782991409
1784147739.994942,0.000854073,-0.055819664,-0.047373440,-0.000097145,0.000391412,-0.000772279,0.555956304,0.018740315,9.771425247
1784147739.996976,0.000854158,-0.055820309,-0.047373440,0.000462086,0.000929259,-0.000701546,0.534410298,0.018546058,9.774541855
1784147739.998949,0.000854158,-0.055820309,-0.047373440,0.000991096,0.000887119,-0.000543931,0.538330078,0.009859054,9.791973114
1784147740.000944,0.000854158,-0.055820309,-0.047373440,0.001029371,0.000535955,-0.000395344,0.548166692,0.007025722,9.794654846
1784147740.002944,0.000854243,-0.055820893,-0.047373433,0.000691399,-0.000059343,-0.000054899,0.579669237,0.013844708,9.787108421
1784147740.004947,0.000854243,-0.055820893,-0.047373433,0.000268646,-0.000235245,-0.000437546,0.559021115,0.013642133,9.789776802
1784147740.006951,0.000853435,-0.055821225,-0.047373433,0.000238602,0.000193362,-0.001001586,0.529731452,0.001689132,9.759185791
1784147740.008952,0.000853435,-0.055821225,-0.047373433,0.000411143,0.000264641,-0.000619237,0.566863716,-0.006546475,9.779343605
1784147740.010951,0.000853435,-0.055821225,-0.047373433,-0.000048788,-0.000202748,0.000251186,0.556731939,0.008041338,9.762389183
1784147740.012976,0.000853307,-0.055821873,-0.047373436,-0.000707902,-0.000553757,0.000234842,0.547328949,0.010344647,9.770465851
1784147740.014976,0.000853307,-0.055821873,-0.047373436,-0.000622202,-0.000504265,-0.000640953,0.559022188,0.013245042,9.782601357
1784147740.016978,0.000853392,-0.055822674,-0.047373433,-0.000324676,-0.000418077,-0.001061685,0.562188029,0.014212011,9.766919136
1784147740.019046,0.000853392,-0.055822674,-0.047373433,-0.000129501,-0.000556480,-0.000809733,0.534650505,0.001898977,9.783849716
1784147740.021000,0.000853392,-0.055822674,-0.047373433,0.000300042,-0.000735278,-0.000156820,0.539200246,0.008011184,9.798239708
1784147740.022972,0.000852978,-0.055822898,-0.047373429,0.000832794,-0.000633026,0.000176051,0.544065714,0.002124456,9.798207283
1784147740.024975,0.000852978,-0.055822898,-0.047373429,0.001007610,-0.000389373,-0.000375132,0.558973968,0.009216573,9.782127380
1784147740.026968,0.000852812,-0.055823032,-0.047373433,0.000719290,-0.000224507,-0.000921808,0.547617912,-0.001864161,9.785631180
1784147740.028969,0.000852812,-0.055823032,-0.047373433,0.000124578,-0.000375557,-0.000455692,0.558922946,-0.031207424,9.796213150
1784147740.030974,0.000852812,-0.055823032,-0.047373433,-0.000364420,-0.000558873,0.000190254,0.548086464,-0.001307482,9.769495010
1784147740.032984,0.000852794,-0.055824354,-0.047373429,-0.000681891,-0.000476180,0.000553773,0.525961101,-0.011443343,9.785549164
1784147740.034974,0.000852794,-0.055824354,-0.047373429,-0.000550734,-0.000330184,0.000873803,0.544764996,0.022334183,9.790266991
1784147740.036977,0.000853445,-0.055824239,-0.047373429,0.000251206,-0.000123116,0.001054469,0.559681892,0.029089633,9.758494377
1784147740.038975,0.000853445,-0.055824239,-0.047373429,0.000778337,-0.000276423,0.000985727,0.562216997,0.017277785,9.776802063
1784147740.040981,0.000853445,-0.055824239,-0.047373429,0.000676262,-0.000185094,0.000972112,0.525068581,0.026196284,9.786686897
1784147740.042987,0.000853950,-0.055823654,-0.047373429,0.000551952,0.000277959,0.000964323,0.540646076,0.016076317,9.795603752
1784147740.044980,0.000853950,-0.055823654,-0.047373429,0.000312385,0.000185689,0.000829656,0.538189828,-0.000974692,9.803562164
1784147740.046984,0.000853120,-0.055822559,-0.047373433,-0.000043165,-0.000072697,-0.000064080,0.566938043,-0.001501256,9.762787819
1784147740.049004,0.000853120,-0.055822559,-0.047373433,-0.000248264,-0.000384848,-0.001149005,0.550110936,0.017502971,9.766926765
1784147740.050992,0.000853120,-0.055822559,-0.047373433,-0.000562258,-0.000615232,-0.001163412,0.543068767,-0.007159942,9.782454491
1784147740.052999,0.000852707,-0.055823367,-0.047373429,-0.001004877,-0.000422877,-0.000829256,0.546661913,-0.005557180,9.802643776
1784147740.055094,0.000852707,-0.055823367,-0.047373429,-0.001164131,-0.000213286,-0.000458818,0.539331555,0.015531508,9.748523712
1784147740.057000,0.000853063,-0.055822499,-0.047373436,-0.000992263,-0.000172254,-0.000098864,0.541779101,-0.004670781,9.749740601
1784147740.059009,0.000853063,-0.055822499,-0.047373436,-0.000956501,-0.000103960,-0.000071242,0.563031197,0.011341045,9.791110992
1784147740.061010,0.000853063,-0.055822499,-0.047373436,-0.000785965,-0.000108658,-0.000231712,0.570526361,-0.000746717,9.776246071
1784147740.063026,0.000852891,-0.055823527,-0.047373429,-0.000175301,-0.000279208,-0.000366823,0.541269302,-0.005958403,9.805773735
1784147740.065011,0.000852891,-0.055823527,-0.047373429,0.000285800,-0.000565841,-0.000430025,0.550304353,-0.002349796,9.786079407
1784147740.067015,0.000852580,-0.055824097,-0.047373429,0.000188040,-0.000716862,-0.000332019,0.589432955,0.042352151,9.793128014
1784147740.069010,0.000852580,-0.055824097,-0.047373429,0.000231428,-0.000234916,-0.000130781,0.552827179,0.022116235,9.806414604
1784147740.071012,0.000852580,-0.055824097,-0.047373429,0.000372465,0.000222438,0.000106844,0.540313840,0.026321577,9.804635048
1784147740.073008,0.000853523,-0.055824202,-0.047373429,0.000342286,-0.000019258,0.000330693,0.536114275,0.011727333,9.785259247
1784147740.075031,0.000853523,-0.055824202,-0.047373429,0.000157306,-0.000281798,0.000204195,0.551286697,0.041573253,9.782327652
1784147740.077034,0.000854317,-0.055824600,-0.047373429,-0.000482651,-0.000412504,-0.000068941,0.547766864,0.009442973,9.770461082
1784147740.079021,0.000854317,-0.055824600,-0.047373429,-0.000443326,-0.000549947,-0.000140987,0.557126880,0.004369232,9.774024010
1784147740.081024,0.000854317,-0.055824600,-0.047373429,0.000058005,-0.000385956,-0.000064887,0.560816407,0.012812240,9.777219772
1784147740.083024,0.000854238,-0.055825111,-0.047373425,0.000009409,-0.000064369,0.000045176,0.559782028,0.002422066,9.791050911
1784147740.085025,0.000854238,-0.055825111,-0.047373425,0.000063516,0.000044161,-0.000073773,0.551276684,0.003903799,9.787016869
1784147740.087027,0.000854061,-0.055825304,-0.047373429,0.000227107,-0.000129218,-0.000306050,0.556761622,0.011923542,9.783486366
1784147740.089049,0.000854061,-0.055825304,-0.047373429,-0.000146175,-0.000523742,0.000100120,0.545096278,0.011269311,9.770469666
1784147740.091036,0.000854061,-0.055825304,-0.047373429,-0.000656542,-0.001009779,0.000918028,0.516171336,-0.005404334,9.773025513
1784147740.093033,0.000853371,-0.055824060,-0.047373429,-0.000501999,-0.001294320,0.000991586,0.551535010,-0.011383496,9.794092178
1784147740.095031,0.000853371,-0.055824060,-0.047373429,0.000052220,-0.000804066,0.000995605,0.567316771,-0.007327315,9.762301445
1784147740.097037,0.000852205,-0.055824947,-0.047373429,0.000355586,0.000344908,0.001201355,0.551113486,0.026021812,9.764294624
1784147740.099037,0.000852205,-0.055824947,-0.047373429,0.000378297,0.001238059,0.001351239,0.562622786,0.015311672,9.800551414
1784147740.101038,0.000852205,-0.055824947,-0.047373429,0.000658106,0.001130569,0.001348312,0.547822475,0.052335341,9.787323952
1784147740.103035,0.000854501,-0.055825148,-0.047373421,0.000965419,0.000495829,0.000910000,0.580758452,0.031557690,9.814571381
1784147740.105039,0.000854501,-0.055825148,-0.047373421,0.001061592,-0.000125639,0.000336880,0.538814306,0.012159879,9.782573700
1784147740.107043,0.000854590,-0.055824015,-0.047373429,0.001673253,-0.000656208,-0.000080205,0.553588033,0.008869398,9.777635574
1784147740.109042,0.000854590,-0.055824015,-0.047373429,0.001689811,-0.000588115,-0.000382196,0.551892698,-0.020618374,9.768926620
1784147740.111049,0.000854590,-0.055824015,-0.047373429,0.000694023,-0.000130886,-0.000727886,0.548632920,0.007563318,9.781209946
1784147740.113061,0.000853666,-0.055824045,-0.047373425,0.000344716,-0.000125951,-0.000962897,0.533052325,0.018064469,9.781710625
1784147740.115045,0.000853666,-0.055824045,-0.047373425,0.000304035,-0.000272750,-0.000466681,0.560063541,-0.012277371,9.778403282
1784147740.117046,0.000852422,-0.055824384,-0.047373429,0.000098000,0.000105975,0.000258269,0.537505805,0.013689526,9.758822441
1784147740.119046,0.000852422,-0.055824384,-0.047373429,0.000128963,0.000240575,0.000027712,0.516171038,0.030562308,9.755771637
1784147740.121053,0.000852422,-0.055824384,-0.047373429,0.000526246,-0.000098055,-0.000033773,0.524982393,0.019842153,9.798302650
1784147740.123050,0.000852867,-0.055822514,-0.047373433,0.000905189,-0.000277918,0.000607919,0.542897463,0.017324688,9.805027008
1784147740.125052,0.000852867,-0.055822514,-0.047373433,0.001202491,-0.000261085,0.000408325,0.545063674,0.010201694,9.794672966
1784147740.127059,0.000852843,-0.055822369,-0.047373433,0.001167979,-0.000188466,-0.000332849,0.570955634,-0.002121788,9.779824257
1784147740.129057,0.000852843,-0.055822369,-0.047373433,0.000727355,0.000079816,-0.000041863,0.534739971,0.008685163,9.774477959
1784147740.131055,0.000852843,-0.055822369,-0.047373433,0.000459539,0.000289472,0.000693783,0.560117602,-0.006987685,9.790541649
1784147740.133057,0.000852637,-0.055822451,-0.047373433,0.000259979,-0.000129184,0.000486379,0.535696089,-0.021968316,9.798939705
1784147740.135064,0.000852637,-0.055822451,-0.047373433,0.000581806,-0.000726531,0.000226089,0.530702412,0.010363412,9.797798157
1784147740.137063,0.000852806,-0.055821721,-0.047373433,0.001038078,-0.000644099,0.000364640,0.516942501,-0.013301441,9.811082840
1784147740.139065,0.000852806,-0.055821721,-0.047373433,0.000958261,-0.000307845,0.000177628,0.520329237,0.006835639,9.808526039
1784147740.141071,0.000852806,-0.055821721,-0.047373433,0.000356023,-0.000148897,0.000346928,0.539269149,0.011391749,9.763738632
1784147740.143069,0.000852840,-0.055821165,-0.047373433,-0.000627097,-0.000154890,0.000739496,0.555720568,-0.000140830,9.780717850
1784147740.145076,0.000852840,-0.055821165,-0.047373433,-0.000887536,0.000090475,0.000594349,0.562906623,-0.000178760,9.773102760
1784147740.147070,0.000852678,-0.055821616,-0.047373433,-0.000531091,0.000570535,0.000292588,0.543734789,-0.025614157,9.793097496
1784147740.149067,0.000852678,-0.055821616,-0.047373433,-0.000927717,0.000440909,0.000141252,0.529695213,0.000592895,9.787423134
1784147740.151069,0.000852678,-0.055821616,-0.047373433,-0.000984266,0.000092206,-0.000006146,0.533928514,0.016264308,9.781250954
1784147740.153074,0.000852817,-0.055820663,-0.047373436,-0.000351588,0.000263558,-0.000218394,0.523633540,0.019027069,9.789328575
1784147740.155073,0.000852817,-0.055820663,-0.047373436,-0.000285964,0.000608970,-0.000426569,0.525519311,0.027016502,9.796555519
1784147740.157077,0.000854214,-0.055820055,-0.047373436,-0.000550598,0.000518442,-0.000002967,0.569236040,0.002952790,9.762369156
1784147740.159080,0.000854214,-0.055820055,-0.047373436,-0.000347219,0.000356677,0.000558444,0.557872355,-0.010215125,9.744340897
1784147740.161085,0.000854214,-0.055820055,-0.047373436,0.000474125,0.000452433,0.000175405,0.581549406,-0.015800349,9.794093132
1784147740.163080,0.000852935,-0.055821501,-0.047373433,0.000656491,0.000438783,-0.000447744,0.555246532,-0.002362162,9.778909683
1784147740.165083,0.000852935,-0.055821501,-0.047373433,-0.000118203,0.000306985,0.000016820,0.518050253,0.001720968,9.775763512
1784147740.167091,0.000852098,-0.055820219,-0.047373436,-0.000736779,0.000334120,0.000915455,0.554380655,-0.001696025,9.749772072
1784147740.169095,0.000852098,-0.055820219,-0.047373436,-0.000824645,0.000317963,0.000920613,0.595737636,0.005673001,9.773172379
1784147740.171087,0.000852098,-0.055820219,-0.047373436,-0.000637643,0.000000598,0.000417616,0.589720309,0.027293785,9.767925262
1784147740.173099,0.000852404,-0.055822108,-0.047373433,-0.000163520,-0.000616100,0.000681391,0.560001075,0.019956140,9.782196999
1784147740.175100,0.000852404,-0.055822108,-0.047373433,0.000396963,-0.001212446,0.000999432,0.548684955,0.012837111,9.795590401
1784147740.177137,0.000852690,-0.055821944,-0.047373433,0.000198307,-0.001043039,0.000691968,0.562467754,0.001930074,9.792393684
1784147740.179132,0.000852690,-0.055821944,-0.047373433,-0.000450708,-0.000646748,0.000883894,0.537258685,-0.004877198,9.786946297
1784147740.181116,0.000852690,-0.055821944,-0.047373433,-0.000330706,-0.000584199,0.001637154,0.526476622,-0.006464285,9.777511597
1784147740.183105,0.000851432,-0.055820845,-0.047373433,0.000356321,-0.000292445,0.002079909,0.536859989,-0.000423631,9.791458130
1784147740.185102,0.000851432,-0.055820845,-0.047373433,0.000805308,-0.000002372,0.001590471,0.547167599,-0.001871132,9.787425041
1784147740.187108,0.000851197,-0.055821162,-0.047373433,0.000659015,-0.000091939,0.001231491,0.542318046,0.005356310,9.787913322
1784147740.189107,0.000851197,-0.055821162,-0.047373433,0.000496274,-0.000284016,0.001203856,0.554659545,0.023605635,9.782663345
1784147740.191108,0.000851197,-0.055821162,-0.047373433,0.000940215,-0.000284795,0.000986823,0.548782289,0.020090340,9.783531189
1784147740.193108,0.000851184,-0.055821002,-0.047373433,0.001048835,-0.000032498,0.001064458,0.541925967,0.010267372,9.791084290
1784147740.195109,0.000851184,-0.055821002,-0.047373433,0.000839216,0.000120738,0.000741297,0.563948750,0.011488525,9.768695831
1784147740.197110,0.000851419,-0.055821974,-0.047373433,0.000810340,-0.000160965,-0.000145982,0.542696953,-0.000873198,9.781149864
1784147740.199117,0.000851419,-0.055821974,-0.047373433,0.000661924,-0.000366912,-0.000449577,0.541249394,-0.010167750,9.767639160
1784147740.201111,0.000851419,-0.055821974,-0.047373433,0.000432791,0.000128570,-0.000053578,0.552527547,-0.003754220,9.790555000
1784147740.203112,0.000849805,-0.055822250,-0.047373433,0.000264654,0.000451435,0.000577674,0.550584197,0.020528018,9.781743050
1784147740.205118,0.000849805,-0.055822250,-0.047373433,0.000369621,-0.000140234,0.000455631,0.542543530,0.023347884,9.777717590
1784147740.207135,0.000851204,-0.055821888,-0.047373433,0.000844203,-0.000557110,0.000295228,0.557857037,0.027254015,9.767894745
1784147740.209129,0.000851204,-0.055821888,-0.047373433,0.001322699,-0.000093800,0.001085451,0.581072688,0.018332507,9.783551216
1784147740.211123,0.000851204,-0.055821888,-0.047373433,0.001402775,0.000428484,0.001354842,0.565373540,0.018171621,9.771430969
1784147740.213140,0.000850902,-0.055823695,-0.047373429,0.001149974,0.000330102,0.000934166,0.553848803,0.029164372,9.758488655
1784147740.215139,0.000850902,-0.055823695,-0.047373429,0.000419703,0.000009786,0.001040648,0.543397605,0.019346073,9.771863937
1784147740.217165,0.000852315,-0.055823952,-0.047373429,-0.000094733,-0.000190076,0.001497520,0.540756464,0.023431296,9.769199371
1784147740.219164,0.000852315,-0.055823952,-0.047373429,0.000032420,-0.000859632,0.001268619,0.558257639,0.022816343,9.761141777
1784147740.221167,0.000852315,-0.055823952,-0.047373429,0.000507510,-0.001151868,0.000832788,0.549525380,0.006296973,9.768649101
1784147740.223148,0.000851708,-0.055823233,-0.047373429,0.001495765,-0.000525167,0.000430728,0.562729836,0.021831144,9.765623093
1784147740.225141,0.000851708,-0.055823233,-0.047373429,0.001723703,-0.000528197,-0.000370962,0.526918113,-0.007337343,9.773471832
1784147740.227139,0.000851211,-0.055822421,-0.047373433,0.001123923,-0.001098785,-0.000851057,0.525331438,0.011754030,9.800940514
1784147740.229147,0.000851211,-0.055822421,-0.047373433,0.001052820,-0.001052520,-0.000854662,0.557970941,0.038284525,9.791727066
1784147740.231144,0.000851211,-0.055822421,-0.047373433,0.000736850,-0.000367998,-0.000854081,0.569883525,0.021132212,9.788042068
1784147740.233150,0.000852126,-0.055824079,-0.047373429,-0.000270046,0.000105812,-0.001306326,0.546879172,0.010747484,9.777641296
1784147740.235141,0.000852126,-0.055824079,-0.047373429,-0.000862171,0.000056128,-0.002071001,0.549074352,0.006283642,9.771338463
1784147740.237154,0.000851777,-0.055825051,-0.047373429,-0.000971504,-0.000184741,-0.002105185,0.558076382,0.044791274,9.758592606
1784147740.239154,0.000851777,-0.055825051,-0.047373429,-0.000892645,-0.000547668,-0.001192185,0.538495779,0.023729945,9.794305801
1784147740.241161,0.000851777,-0.055825051,-0.047373429,-0.000017620,-0.000443110,-0.000487617,0.562103510,0.009087296,9.794681549
1784147740.243156,0.000852365,-0.055825524,-0.047373429,0.001131227,-0.000026708,-0.000585400,0.540685713,-0.019985350,9.763092995
1784147740.245189,0.000852365,-0.055825524,-0.047373429,0.001440366,-0.000129108,-0.001074924,0.545597255,-0.022266135,9.759943008
1784147740.247164,0.000851045,-0.055826437,-0.047373429,0.001248595,-0.000254646,-0.001197810,0.570414245,-0.008521039,9.798612595
1784147740.249170,0.000851045,-0.055826437,-0.047373429,0.000978415,-0.000652229,-0.001036519,0.554053843,0.010213893,9.776748657
1784147740.251158,0.000851045,-0.055826437,-0.047373429,0.000308862,-0.001101083,-0.000541570,0.548983991,-0.000102280,9.787436485
1784147740.253158,0.000850841,-0.055826880,-0.047373425,-0.000390285,-0.000904035,-0.000142318,0.531293929,-0.015972864,9.782835007
1784147740.255168,0.000850841,-0.055826880,-0.047373425,-0.000916905,-0.000758308,-0.000176415,0.538005471,0.019354651,9.780378342
1784147740.257178,0.000851913,-0.055827003,-0.047373425,-0.001281833,-0.000598242,-0.000218976,0.557733357,0.017767334,9.779042244
1784147740.259174,0.000851913,-0.055827003,-0.047373425,-0.001239270,-0.000359741,-0.000122449,0.546714842,0.034882717,9.786314011
1784147740.261173,0.000851913,-0.055827003,-0.047373425,-0.000798658,-0.000678825,0.000342914,0.547369182,0.013499456,9.767796516
1784147740.263208,0.000852370,-0.055826988,-0.047373425,0.000104136,-0.000716679,0.000214588,0.519188106,0.021438841,9.773200035
1784147740.265180,0.000852370,-0.055826988,-0.047373425,0.000930874,-0.000257333,-0.000327210,0.529364645,0.008420662,9.758331299
1784147740.267182,0.000852686,-0.055827361,-0.047373421,0.001258984,-0.000049838,-0.000055131,0.563126802,0.018174928,9.775014877
1784147740.269173,0.000852686,-0.055827361,-0.047373421,0.001133952,-0.000111077,0.000195470,0.550512969,0.015508235,9.794712067
1784147740.271178,0.000852686,-0.055827361,-0.047373421,0.001003832,-0.000565154,-0.000292231,0.525619924,-0.000457959,9.816554070
1784147740.273184,0.000852592,-0.055826470,-0.047373425,0.001179989,-0.000776966,0.000021495,0.523450196,0.004206198,9.794613838
1784147740.275181,0.000852592,-0.055826470,-0.047373425,0.001186635,-0.000444975,0.000415023,0.516607881,-0.007532247,9.756423950
1784147740.277191,0.000852121,-0.055825375,-0.047373425,0.001015365,0.000055746,-0.000109465,0.574676096,-0.028593697,9.778312683
1784147740.279186,0.000852121,-0.055825375,-0.047373425,0.000833433,0.000256151,-0.000005157,0.575402081,-0.006957408,9.758725166
1784147740.281185,0.000852121,-0.055825375,-0.047373425,0.000463891,0.000347161,0.000647806,0.555274427,-0.000926070,9.765918732
1784147740.283204,0.000852223,-0.055825394,-0.047373429,0.000363810,0.000988054,0.001054745,0.558898807,0.001734785,9.763248444
1784147740.285188,0.000852223,-0.055825394,-0.047373429,0.000309916,0.001404608,0.000719132,0.544621468,0.008638171,9.763278961
1784147740.287192,0.000852440,-0.055825312,-0.047373429,-0.000307728,0.001592180,-0.000158736,0.541061938,0.010542783,9.753872871
1784147740.289198,0.000852440,-0.055825312,-0.047373429,-0.000905607,0.001581999,-0.000077235,0.541258991,-0.008471292,9.781098366
1784147740.291201,0.000852440,-0.055825312,-0.047373429,-0.001143000,0.001623122,0.000524278,0.537341654,0.001451493,9.778918266
1784147740.293205,0.000851737,-0.055825256,-0.047373429,-0.000790337,0.001685735,0.000584403,0.558910131,0.004660652,9.792857170
1784147740.295201,0.000851737,-0.055825256,-0.047373429,0.000018977,0.000934756,0.000408021,0.545623720,0.019990673,9.803254128
1784147740.297236,0.000852540,-0.055824678,-0.047373429,0.000423732,0.000029352,0.000331394,0.558625162,0.016901257,9.773208618
1784147740.299203,0.000852540,-0.055824678,-0.047373429,0.000358284,-0.000535569,0.000149164,0.524120927,-0.015426556,9.781935692
1784147740.301201,0.000852540,-0.055824678,-0.047373429,0.000172448,-0.000386536,-0.000161203,0.526639342,0.006977730,9.777149200
1784147740.303203,0.000851921,-0.055823542,-0.047373429,-0.000102107,0.000227512,-0.000384707,0.548435092,0.027381103,9.766989708
1784147740.305211,0.000851921,-0.055823542,-0.047373429,0.000000895,0.000380485,-0.000043235,0.548762977,-0.019679029,9.768482208
1784147740.307209,0.000851046,-0.055823844,-0.047373429,0.000736049,-0.000255263,0.000545394,0.579072356,0.001332977,9.783439636
1784147740.309232,0.000851046,-0.055823844,-0.047373429,0.000962001,-0.001000834,0.000611102,0.565689445,-0.031414121,9.750041008
1784147740.311226,0.000851046,-0.055823844,-0.047373429,0.000556210,-0.000781969,0.000680361,0.544444203,-0.006135008,9.761839867
1784147740.313216,0.000850418,-0.055824004,-0.047373429,0.000029180,-0.000208265,0.001093792,0.536424994,-0.000309770,9.776215553
1784147740.315214,0.000850418,-0.055824004,-0.047373429,-0.000481291,0.000228593,0.001467084,0.555800557,-0.028994145,9.805639267
1784147740.317218,0.000849365,-0.055824451,-0.047373429,-0.000401852,0.000487754,0.001775514,0.522998214,0.002969821,9.780258179
1784147740.319217,0.000849365,-0.055824451,-0.047373429,-0.000455557,0.000442325,0.002233394,0.540149987,0.011249880,9.782120705
1784147740.321220,0.000849365,-0.055824451,-0.047373429,-0.000821428,0.000251868,0.002385041,0.538696349,0.002717714,9.787446022
1784147740.323215,0.000849403,-0.055823881,-0.047373425,-0.000818199,-0.000103453,0.002115648,0.547373235,0.015558025,9.793364525
1784147740.325219,0.000849403,-0.055823881,-0.047373425,-0.000635401,-0.000365132,0.002064083,0.563641846,0.024770942,9.791646004
1784147740.327225,0.000850156,-0.055824354,-0.047373425,-0.000231652,-0.000560229,0.002279649,0.552190661,0.042019255,9.780985832
1784147740.329227,0.000850156,-0.055824354,-0.047373425,0.000224931,-0.000809778,0.002057259,0.551945269,0.021845117,9.783098221
1784147740.331223,0.000850156,-0.055824354,-0.047373425,0.000236476,-0.000679467,0.001463234,0.520544946,0.023127582,9.785317421
1784147740.333225,0.000851065,-0.055823352,-0.047373425,-0.000182585,0.000049049,0.001195811,0.529849768,0.011944548,9.765975952
1784147740.335231,0.000851065,-0.055823352,-0.047373425,-0.000377615,0.000723123,0.000911711,0.548377335,0.023682948,9.783105850
1784147740.337230,0.000852466,-0.055823371,-0.047373421,-0.000035295,0.000831858,0.000558972,0.527035713,0.040501676,9.787676811
1784147740.339233,0.000852466,-0.055823371,-0.047373421,0.000410831,0.000728515,0.000373508,0.542246044,-0.000479901,9.789669991
1784147740.341234,0.000852466,-0.055823371,-0.047373421,0.000140210,0.000662198,-0.000177688,0.554888904,0.006062640,9.791965485
1784147740.343230,0.000852314,-0.055823330,-0.047373421,-0.000601501,0.000351652,-0.000888436,0.549657345,0.017470559,9.772307396
1784147740.345238,0.000852314,-0.055823330,-0.047373421,-0.000402700,-0.000027979,-0.001171216,0.559880733,0.010494906,9.789757729
1784147740.347241,0.000851395,-0.055824492,-0.047373425,0.000191872,-0.000402592,-0.000853546,0.560736716,0.004888847,9.757442474
1784147740.349240,0.000851395,-0.055824492,-0.047373425,-0.000024740,-0.000543158,-0.000514112,0.548621476,0.006257594,9.775820732
1784147740.351242,0.000851395,-0.055824492,-0.047373425,-0.000163961,-0.000626986,-0.000393067,0.542030573,0.018387912,9.783065796
1784147740.353240,0.000852055,-0.055824786,-0.047373425,0.000637026,-0.000876779,-0.000466971,0.528856754,0.041902058,9.776479721
1784147740.355241,0.000852055,-0.055824786,-0.047373425,0.001383598,-0.001059624,-0.000664970,0.540030539,0.003011703,9.806726456
1784147740.357241,0.000851382,-0.055823207,-0.047373425,0.001625791,-0.000580033,-0.000409135,0.513263762,0.013904598,9.772250175
1784147740.359248,0.000851382,-0.055823207,-0.047373425,0.001406125,0.000022837,0.000229316,0.527053356,0.003861692,9.773542404
1784147740.361246,0.000851382,-0.055823207,-0.047373425,0.001080874,0.000247370,0.000765170,0.542856693,0.012139930,9.778095245
1784147740.363242,0.000851364,-0.055822980,-0.047373425,0.001224748,0.000392266,0.000596428,0.558494925,0.004120238,9.743535995
1784147740.365247,0.000851364,-0.055822980,-0.047373425,0.001182242,0.000142525,-0.000034162,0.568133235,-0.012841531,9.780200005
1784147740.367253,0.000849709,-0.055824112,-0.047373425,0.001023592,-0.000075913,-0.000187066,0.542555034,0.024653614,9.783105850
1784147740.369249,0.000849709,-0.055824112,-0.047373425,0.001362944,0.000117601,0.000101372,0.529168427,-0.006501958,9.777962685
1784147740.371256,0.000849709,-0.055824112,-0.047373425,0.001144320,0.000606910,0.000096076,0.540081739,0.004632221,9.767731667
1784147740.373254,0.000849620,-0.055823542,-0.047373429,0.000118983,0.001047137,-0.000305832,0.559467196,0.011183910,9.756584167
1784147740.375295,0.000849620,-0.055823542,-0.047373429,0.000053872,0.000909731,-0.000473724,0.569442749,0.020794921,9.773243904
1784147740.377279,0.000850299,-0.055824649,-0.047373429,0.000560700,0.000367801,0.000034201,0.565868974,0.020561477,9.749477386
1784147740.379266,0.000850299,-0.055824649,-0.047373429,0.000623611,0.000083975,0.000458506,0.542562664,0.023903955,9.762477875
1784147740.381271,0.000850299,-0.055824649,-0.047373429,0.000907790,0.000040619,0.000119031,0.553595543,0.047733299,9.794025421
1784147740.383269,0.000852033,-0.055824224,-0.047373429,0.001516175,0.000346471,-0.000089651,0.533409238,0.048439972,9.794010162
1784147740.385268,0.000852033,-0.055824224,-0.047373429,0.001527441,0.000841491,0.000156296,0.515262961,-0.003858543,9.809349060
1784147740.387271,0.000851396,-0.055822704,-0.047373433,0.001102786,0.001244434,0.000064237,0.541257560,0.029512582,9.795241356
1784147740.389270,0.000851396,-0.055822704,-0.047373433,0.001136138,0.001339720,-0.000562993,0.548000216,0.028711664,9.769688606
1784147740.391267,0.000851396,-0.055822704,-0.047373433,0.001140966,0.001370800,-0.000604976,0.552998841,-0.001555143,9.795501709
1784147740.393272,0.000850919,-0.055822913,-0.047373429,0.000326948,0.001094609,-0.000367748,0.564964116,0.020919189,9.763825417
1784147740.395275,0.000850919,-0.055822913,-0.047373429,-0.000376022,0.000628258,-0.000792291,0.549664676,0.018744487,9.782178879
1784147740.397277,0.000851239,-0.055823389,-0.047373425,0.000128297,0.000707776,-0.000808786,0.552126169,-0.000943063,9.773984909
1784147740.399275,0.000851239,-0.055823389,-0.047373425,0.000492417,0.000529868,-0.000515241,0.533880234,0.012235834,9.780776978
1784147740.401283,0.000851239,-0.055823389,-0.047373425,0.000143545,0.000268316,-0.001187647,0.552727342,0.012007087,9.779000282
1784147740.403282,0.000851419,-0.055823285,-0.047373425,0.000038342,0.000384704,-0.002090732,0.543733716,0.010346126,9.776739120
1784147740.405285,0.000851419,-0.055823285,-0.047373425,0.000099792,0.000066264,-0.001811953,0.577197671,-0.005353900,9.782050133
1784147740.407286,0.000850783,-0.055825040,-0.047373421,0.000102958,-0.000546682,-0.001051448,0.552064002,0.032913771,9.801549911
1784147740.409285,0.000850783,-0.055825040,-0.047373421,-0.000234971,-0.000718666,-0.000640853,0.532881498,0.040932138,9.779615402
1784147740.411292,0.000850783,-0.055825040,-0.047373421,-0.000964547,-0.000424095,-0.000448479,0.515726864,-0.004960162,9.774372101
1784147740.413291,0.000850006,-0.055823378,-0.047373429,-0.001239499,-0.000028514,-0.000920682,0.559372306,0.005166459,9.783893585
1784147740.415291,0.000850006,-0.055823378,-0.047373429,-0.000481596,0.000284333,-0.001100551,0.536835849,-0.003451251,9.776194572
1784147740.417294,0.000848974,-0.055823207,-0.047373425,0.000210004,0.000217546,-0.000384569,0.534795761,0.014394193,9.790656090
1784147740.419297,0.000848974,-0.055823207,-0.047373425,0.000252530,-0.000724987,-0.000049214,0.575671852,0.016650988,9.777706146
1784147740.421293,0.000848974,-0.055823207,-0.047373425,0.000592596,-0.001445521,-0.000689149,0.575462043,0.000000117,9.788359642
1784147740.423296,0.000848470,-0.055825111,-0.047373425,0.001193283,-0.001180050,-0.001511406,0.559835851,0.006088427,9.779417992
1784147740.425298,0.000848470,-0.055825111,-0.047373425,0.001360097,-0.000860179,-0.001712998,0.527040124,0.002946689,9.776226997
1784147740.427300,0.000847451,-0.055824123,-0.047373429,0.001552937,-0.000595467,-0.001281907,0.523391187,-0.003555036,9.751972198
1784147740.429297,0.000847451,-0.055824123,-0.047373429,0.001508050,-0.000639821,-0.000121043,0.548442543,-0.007718232,9.788285255
1784147740.431304,0.000847451,-0.055824123,-0.047373429,0.001309884,-0.000904891,0.000813333,0.556557536,-0.005492882,9.775753021
1784147740.433303,0.000845789,-0.055824999,-0.047373433,0.001608983,-0.000430826,0.000523641,0.550787449,0.000348115,9.783856392
1784147740.435304,0.000845789,-0.055824999,-0.047373433,0.001346100,0.000463558,-0.000316915,0.530518293,0.033126149,9.810497284
1784147740.437311,0.000847070,-0.055823501,-0.047373429,0.000967536,0.000663604,-0.000354407,0.557263315,0.015577801,9.772749901
1784147740.439306,0.000847070,-0.055823501,-0.047373429,0.000787146,-0.000240184,0.000352710,0.563157916,0.022473300,9.800596237
1784147740.441308,0.000847070,-0.055823501,-0.047373429,0.000257771,-0.000859844,0.001120145,0.535297990,0.019268321,9.797410965
1784147740.443314,0.000848342,-0.055822853,-0.047373433,-0.000027620,-0.000429606,0.001557923,0.563537538,0.014626823,9.769163132
1784147740.445316,0.000848342,-0.055822853,-0.047373433,0.000233587,-0.000263683,0.001624038,0.563963711,-0.023957018,9.775641441
1784147740.447312,0.000846961,-0.055823840,-0.047373429,0.000709677,-0.000469768,0.001652782,0.550864756,0.005415597,9.764160156
1784147740.449319,0.000846961,-0.055823840,-0.047373429,0.000606990,-0.000468734,0.001294762,0.543354332,0.015762381,9.771842957
1784147740.451317,0.000846961,-0.055823840,-0.047373429,0.000336887,-0.000159224,0.000927047,0.550590873,0.020175446,9.768290520
1784147740.453315,0.000847484,-0.055824708,-0.047373429,0.000665372,0.000168028,0.000750832,0.541577220,0.017952058,9.782166481
1784147740.455319,0.000847484,-0.055824708,-0.047373429,0.001014363,0.000373342,-0.000045467,0.537000597,0.009196587,9.761483192
1784147740.457325,0.000847408,-0.055823911,-0.047373429,0.000944145,0.000651408,-0.000462895,0.535511374,-0.001642160,9.776206017
1784147740.459330,0.000847408,-0.055823911,-0.047373429,0.000832665,0.000401548,-0.000264153,0.555740893,0.003261623,9.806295395
1784147740.461337,0.000847408,-0.055823911,-0.047373429,0.000459673,-0.000063764,-0.000374139,0.553755939,0.023162819,9.783555984
1784147740.463333,0.000847978,-0.055823695,-0.047373429,-0.000338149,-0.000489165,-0.000112595,0.580835223,-0.000157909,9.800917625
1784147740.465329,0.000847978,-0.055823695,-0.047373429,-0.000233792,-0.000862669,0.000439708,0.571308136,-0.009371222,9.790536880
1784147740.467328,0.000846924,-0.055824477,-0.047373429,0.000534857,-0.000690369,0.000538750,0.553940654,0.000809889,9.776239395
1784147740.469331,0.000846924,-0.055824477,-0.047373429,0.000551541,-0.000648768,0.000573467,0.521193206,0.003723391,9.803576469
1784147740.471334,0.000846924,-0.055824477,-0.047373429,-0.000056136,-0.001027420,0.000866272,0.540890276,0.035024233,9.776895523
1784147740.473332,0.000847895,-0.055824418,-0.047373429,-0.000479075,-0.001141706,0.001116612,0.544196546,0.012478433,9.791099548
1784147740.475334,0.000847895,-0.055824418,-0.047373429,-0.000729867,-0.000972706,0.001156065,0.550430179,0.007559402,9.778521538
1784147740.477349,0.000847478,-0.055824645,-0.047373429,-0.000856963,-0.000794200,0.000860270,0.568168163,0.027455278,9.784045219
1784147740.479343,0.000847478,-0.055824645,-0.047373429,-0.000515343,-0.000668068,0.000519091,0.556917548,0.024501435,9.778635979
1784147740.481346,0.000847478,-0.055824645,-0.047373429,-0.000068990,-0.000686861,0.000360503,0.537803531,0.039950714,9.782751083
1784147740.483339,0.000848564,-0.055824656,-0.047373429,0.000003173,-0.000715047,0.000118127,0.508973777,0.030511212,9.775938988
1784147740.485344,0.000848564,-0.055824656,-0.047373429,-0.000214864,-0.000643663,0.000104108,0.564005256,0.018013984,9.796086311
1784147740.487344,0.000848624,-0.055825237,-0.047373421,-0.000353239,-0.000375780,0.000077078,0.544360697,-0.013683570,9.752375603
1784147740.489348,0.000848624,-0.055825237,-0.047373421,-0.000309344,-0.000199526,-0.000050799,0.559040248,-0.023391766,9.768019676
1784147740.491351,0.000848624,-0.055825237,-0.047373421,-0.000099501,-0.000238025,0.000342796,0.539904654,-0.009734335,9.772123337
1784147740.493348,0.000847777,-0.055825129,-0.047373425,0.000415388,-0.000268868,0.000449567,0.532978117,0.012615805,9.791986465
1784147740.495352,0.000847777,-0.055825129,-0.047373425,0.000664880,-0.000287548,0.000130030,0.563574255,0.018969707,9.788471222
1784147740.497354,0.000848350,-0.055825759,-0.047373425,0.000429897,-0.000368992,-0.000049634,0.559000373,0.010236502,9.764647484
1784147740.499358,0.000848350,-0.055825759,-0.047373425,-0.000120714,-0.000336117,0.000126275,0.547553122,-0.006833063,9.791427612
1784147740.501364,0.000848350,-0.055825759,-0.047373425,-0.000717302,0.000066152,0.000545048,0.525770009,0.010048647,9.787928581
1784147740.503356,0.000848637,-0.055824950,-0.047373425,-0.000447488,0.000297387,0.000886999,0.521564543,-0.001756458,9.817439079
1784147740.505361,0.000848637,-0.055824950,-0.047373425,0.000215341,0.000083603,0.001008355,0.528456092,0.009559823,9.788824081
1784147740.507366,0.000848705,-0.055823900,-0.047373429,0.000302802,0.000043111,0.000609377,0.553588808,0.009685834,9.788848877
1784147740.509364,0.000848705,-0.055823900,-0.047373429,0.000170981,0.000269260,0.000067113,0.587440908,0.025012769,9.777771950
1784147740.511376,0.000848705,-0.055823900,-0.047373429,0.000089867,0.000180750,-0.000148789,0.573063970,0.023430333,9.774162292
1784147740.513376,0.000849139,-0.055825554,-0.047373425,0.000188442,-0.000300849,-0.000073472,0.561774790,0.016524334,9.757518768
1784147740.515378,0.000849139,-0.055825554,-0.047373425,0.000350216,-0.000653766,0.000162046,0.539331198,0.016745027,9.766913414
1784147740.517372,0.000849561,-0.055825584,-0.047373425,-0.000100895,-0.000145220,-0.000240678,0.557535589,0.003642077,9.812576294
1784147740.519371,0.000849561,-0.055825584,-0.047373425,-0.000804053,0.000539925,-0.001291077,0.560642362,-0.001935498,9.772192001
1784147740.521377,0.000849561,-0.055825584,-0.047373425,-0.001071464,0.000420226,-0.001373370,0.560769498,0.009199936,9.781231880
1784147740.523375,0.000849574,-0.055826601,-0.047373425,-0.001216108,0.000147070,-0.000549738,0.586065888,0.022370864,9.773718834
1784147740.525376,0.000849574,-0.055826601,-0.047373425,-0.000701736,0.000391819,-0.000018482,0.578896523,0.024565935,9.793004036
1784147740.527385,0.000849738,-0.055827599,-0.047373421,0.000433698,0.000635460,0.000117381,0.580779016,0.031719856,9.791706085
1784147740.529380,0.000849738,-0.055827599,-0.047373421,0.000662176,0.000586632,0.000015573,0.525050521,0.026053196,9.806859970
1784147740.531377,0.000849738,-0.055827599,-0.047373421,0.000134957,-0.000105990,-0.000298029,0.527287900,0.023949984,9.783535957
1784147740.533382,0.000851010,-0.055826683,-0.047373425,-0.000109810,-0.001080703,-0.000420572,0.525892258,0.020739300,9.796514511
1784147740.535379,0.000851010,-0.055826683,-0.047373425,-0.000192765,-0.001306595,-0.000380632,0.533453405,0.013629987,9.774509430
1784147740.537384,0.000851256,-0.055826228,-0.047373425,-0.000087926,-0.001221392,-0.000277674,0.545952737,0.008503282,9.779868126
1784147740.539385,0.000851256,-0.055826228,-0.047373425,0.000713246,-0.001075480,-0.000471829,0.559688210,-0.006019247,9.781131744
1784147740.541392,0.000851256,-0.055826228,-0.047373425,0.000834606,-0.000261789,-0.000682270,0.527620792,0.014114530,9.779886246
1784147740.543385,0.000850400,-0.055825278,-0.047373425,0.000205384,0.000947920,-0.000381981,0.542862833,0.013404325,9.789310455
1784147740.545386,0.000850400,-0.055825278,-0.047373425,0.000283187,0.001282538,-0.000021003,0.539616406,0.004100977,9.780282021
1784147740.547393,0.000850541,-0.055824421,-0.047373429,0.000477179,0.000841075,0.000202263,0.515685678,-0.007311254,9.790048599
1784147740.549391,0.000850541,-0.055824421,-0.047373429,0.000113645,0.000615910,0.000202178,0.548598528,0.004049590,9.771324158
1784147740.551390,0.000850541,-0.055824421,-0.047373429,-0.000095581,0.000472268,-0.000285080,0.554438353,0.003622273,9.757876396
1784147740.553397,0.000850028,-0.055825297,-0.047373425,-0.000083681,0.000404951,-0.001145025,0.554772079,-0.004180055,9.783382416
1784147740.555471,0.000850028,-0.055825297,-0.047373425,-0.000256716,0.000355546,-0.001392688,0.572525084,0.017050160,9.790259361
1784147740.557440,0.000850698,-0.055826973,-0.047373421,-0.000260486,0.000044817,-0.001014838,0.595408916,0.015946880,9.778170586
1784147740.559598,0.000850698,-0.055826973,-0.047373421,0.000152896,-0.000150256,-0.000702640,0.559529662,0.017350437,9.771419525
1784147740.561424,0.000850698,-0.055826973,-0.047373421,0.000905417,-0.000368786,-0.000547122,0.528197348,-0.012746019,9.775679588
1784147740.563417,0.000849106,-0.055826526,-0.047373421,0.001218242,-0.000526330,-0.000289779,0.539899826,-0.008962416,9.789612770
1784147740.565417,0.000849106,-0.055826526,-0.047373421,0.001105178,-0.000350874,0.000133441,0.567072034,0.009688236,9.764204025
1784147740.567428,0.000849374,-0.055827472,-0.047373418,0.000660230,-0.000326700,0.000368392,0.564472318,0.018557945,9.781743050
1784147740.569448,0.000849374,-0.055827472,-0.047373418,0.000407628,-0.000381858,0.000539259,0.533368707,0.008098653,9.796442032
1784147740.571428,0.000849374,-0.055827472,-0.047373418,0.000859420,-0.000211133,0.000377090,0.517793536,0.019047763,9.796944618
1784147740.573438,0.000849577,-0.055825531,-0.047373421,0.000935590,-0.000171152,-0.000211267,0.523011565,0.004291445,9.783405304
1784147740.575431,0.000849577,-0.055825531,-0.047373421,0.000885484,0.000128989,-0.000620485,0.527358592,-0.007003239,9.788717270
1784147740.577429,0.000848279,-0.055824250,-0.047373429,0.000959883,0.000597658,-0.000790664,0.536831141,-0.002272707,9.799516678
1784147740.579432,0.000848279,-0.055824250,-0.047373429,0.000791430,0.000489397,-0.000574513,0.560273767,0.005186752,9.779412270
1784147740.581441,0.000848279,-0.055824250,-0.047373429,0.000829369,0.000281031,-0.000128686,0.569504440,-0.009418181,9.800397873
1784147740.583432,0.000846999,-0.055825938,-0.047373425,0.001076600,0.000378638,0.000233936,0.577784359,0.005861638,9.778985023
1784147740.585430,0.000846999,-0.055825938,-0.047373425,0.000969409,0.000580385,0.000245649,0.564326227,0.007273068,9.793775558
1784147740.587439,0.000846931,-0.055825911,-0.047373425,0.000693098,0.000801158,0.000308433,0.536933899,0.006238552,9.799571991
1784147740.589437,0.000846931,-0.055825911,-0.047373425,0.000671603,0.000992507,0.000932284,0.562560201,0.007118373,9.755665779
1784147740.591436,0.000846931,-0.055825911,-0.047373425,0.000510397,0.001096145,0.001602945,0.559981167,0.017366942,9.768280983
1784147740.593457,0.000846543,-0.055825830,-0.047373425,0.000084617,0.001032414,0.001855574,0.545072734,0.009868200,9.778531075
1784147740.595445,0.000846543,-0.055825830,-0.047373425,-0.000063191,0.000948349,0.002021609,0.552513599,-0.005485658,9.782026291
1784147740.597520,0.000846254,-0.055826582,-0.047373429,0.000262731,0.000881658,0.002269585,0.563767433,-0.003316448,9.771739960
1784147740.599451,0.000846254,-0.055826582,-0.047373429,0.000425181,0.000564558,0.002340307,0.544698894,0.016949117,9.791578293
1784147740.601470,0.000846254,-0.055826582,-0.047373429,-0.000000802,0.000054425,0.001902008,0.526233137,0.010560805,9.778069496
1784147740.603445,0.000845776,-0.055826016,-0.047373429,-0.000436554,-0.000277969,0.001275850,0.524175704,0.028269524,9.811804771
1784147740.605445,0.000845776,-0.055826016,-0.047373429,0.000076873,-0.000531065,0.001145893,0.550793767,0.036772262,9.765259743
1784147740.607452,0.000847147,-0.055826180,-0.047373425,0.000581937,-0.000267873,0.001216388,0.547533333,0.027764257,9.777752876
1784147740.609462,0.000847147,-0.055826180,-0.047373425,0.000157913,0.000238939,0.001177981,0.542114556,0.024319511,9.767860413
1784147740.611455,0.000847147,-0.055826180,-0.047373425,-0.000223906,0.000467374,0.000751962,0.549665749,0.018347397,9.775004387
1784147740.613456,0.000847175,-0.055826869,-0.047373425,-0.000571730,0.000816300,0.000153689,0.546992123,0.020554926,9.784429550
1784147740.615457,0.000847175,-0.055826869,-0.047373425,-0.000989412,0.000945713,-0.000192844,0.583265007,0.012226263,9.756166458
1784147740.617458,0.000847747,-0.055828467,-0.047373421,-0.000864097,0.000691822,-0.000193821,0.564106822,-0.010264190,9.803077698
1784147740.619456,0.000847747,-0.055828467,-0.047373421,-0.000485532,0.000428671,0.000310938,0.545614600,0.017487323,9.777235031
1784147740.621462,0.000847747,-0.055828467,-0.047373421,-0.000588854,0.000277497,0.000606066,0.549674809,0.020850746,9.801022530
1784147740.623465,0.000848642,-0.055828262,-0.047373421,-0.000752502,0.000260974,0.000388202,0.576564372,0.017411401,9.795198441
1784147740.625466,0.000848642,-0.055828262,-0.047373421,-0.000798793,0.000284702,0.000139546,0.557835937,0.025871975,9.773264885
1784147740.627466,0.000848893,-0.055828527,-0.047373421,-0.000760002,0.000249201,-0.000366709,0.525510848,0.026139650,9.793859482
1784147740.629467,0.000848893,-0.055828527,-0.047373421,-0.000355023,-0.000068268,-0.000808744,0.567000389,0.004665275,9.777622223
1784147740.631468,0.000848893,-0.055828527,-0.047373421,-0.000046453,-0.000503766,-0.000139028,0.562695563,0.018724022,9.761569023
1784147740.633466,0.000847856,-0.055829875,-0.047373421,-0.000234741,-0.000407014,0.001072576,0.533221304,0.033177499,9.798396111
