time_sec,roll_rad,pitch_rad,yaw_rad,gyro_x,gyro_y,gyro_z,acc_x,acc_y,acc_z
1784150503.384637,0.001830628,-0.049440473,-0.003283305,0.000853139,-0.000716675,-0.000225009,0.505354583,0.029108396,9.790720940
1784150503.386528,0.001831424,-0.049441043,-0.003283304,0.000909392,-0.000651732,-0.000499610,0.503305197,0.010100809,9.821084023
1784150503.388494,0.001831424,-0.049441043,-0.003283304,0.000934028,-0.000529815,-0.001096405,0.485129237,0.027479876,9.804141045
1784150503.390486,0.001831434,-0.049441364,-0.003283303,0.000227239,-0.000472171,-0.001045089,0.511965692,0.017137066,9.761061668
1784150503.392508,0.001831434,-0.049441364,-0.003283303,-0.000961787,-0.000716210,-0.000143884,0.507677376,0.036189783,9.798838615
1784150503.394496,0.001831434,-0.049441364,-0.003283303,-0.001249033,-0.000776672,0.000911347,0.456454307,0.028585136,9.763322830
1784150503.396499,0.001831835,-0.049440425,-0.003283305,-0.001180531,-0.000369417,0.000979008,0.473429114,0.021688584,9.757466316
1784150503.398506,0.001831835,-0.049440425,-0.003283305,-0.001709465,-0.000277282,0.000177803,0.491339862,0.020352840,9.787064552
1784150503.400500,0.001831340,-0.049440216,-0.003283306,-0.001937511,-0.000698280,-0.000336128,0.485414922,0.009571950,9.738571167
1784150503.402591,0.001831340,-0.049440216,-0.003283306,-0.001090223,-0.000960906,-0.000871133,0.508224726,0.005856844,9.778918266
1784150503.404510,0.001831340,-0.049440216,-0.003283306,-0.000378295,-0.000827269,-0.001583849,0.476690412,0.034756497,9.804179192
1784150503.406497,0.001831986,-0.049440354,-0.003283305,-0.000130184,-0.000567773,-0.001651287,0.464960724,0.028326452,9.784399986
1784150503.408508,0.001831986,-0.049440354,-0.003283305,-0.000059085,-0.000380540,-0.001213200,0.484732300,0.030326020,9.782638550
1784150503.410502,0.001832501,-0.049440250,-0.003283306,-0.000570243,-0.000401946,-0.000588952,0.476171434,0.028128667,9.792033195
1784150503.412499,0.001832501,-0.049440250,-0.003283306,-0.000851005,-0.000310423,-0.000151502,0.468738377,0.007979745,9.803551674
1784150503.414504,0.001832501,-0.049440250,-0.003283306,-0.000673811,-0.000190104,-0.000445681,0.496674448,0.017459350,9.806330681
1784150503.416498,0.001831903,-0.049440425,-0.003283305,-0.000077351,-0.000359371,-0.000678728,0.527829826,-0.003994081,9.805772781
1784150503.418502,0.001831903,-0.049440425,-0.003283305,0.000882868,-0.000187232,-0.000051739,0.495654583,0.005966949,9.786079407
1784150503.420496,0.001831650,-0.049440276,-0.003283305,0.001130396,-0.000091959,0.000241663,0.482640237,0.005307708,9.776200294
1784150503.422512,0.001831650,-0.049440276,-0.003283305,0.000834894,-0.000627182,0.000090243,0.503671587,0.002556036,9.810275078
1784150503.424501,0.001831650,-0.049440276,-0.003283305,0.000908027,-0.001057413,0.000178738,0.496252000,0.054451670,9.771596909
1784150503.426503,0.001832658,-0.049441017,-0.003283304,0.001021932,-0.000812625,0.000101998,0.460156679,0.038750034,9.776392937
1784150503.428500,0.001832658,-0.049441017,-0.003283304,0.000835778,-0.000433627,0.000082888,0.444418252,0.035847329,9.771875381
1784150503.430575,0.001833193,-0.049439836,-0.003283306,0.000660605,-0.000358305,0.000591287,0.457834810,0.032891698,9.785320282
1784150503.432513,0.001833193,-0.049439836,-0.003283306,0.000413698,0.000258927,0.000459143,0.481655926,0.037765387,9.813171387
1784150503.434513,0.001833193,-0.049439836,-0.003283306,0.000542739,0.000744230,-0.000123831,0.470746964,0.024639418,9.788417816
1784150503.436511,0.001833403,-0.049440175,-0.003283305,0.001116306,0.000405639,-0.000064217,0.457640857,0.016771460,9.784319878
1784150503.438507,0.001833403,-0.049440175,-0.003283305,0.001048688,0.000381089,-0.000164738,0.467951536,0.014132693,9.758757591
1784150503.440508,0.001832504,-0.049439903,-0.003283306,0.000751279,0.000816082,-0.000271940,0.492093891,0.007051951,9.765909195
1784150503.442517,0.001832504,-0.049439903,-0.003283306,0.000533555,0.001112769,0.000010886,0.485694349,-0.001496471,9.782436371
1784150503.444520,0.001832504,-0.049439903,-0.003283306,0.000152513,0.000844768,0.000304130,0.497833163,0.000562668,9.786046982
1784150503.446516,0.001831682,-0.049440913,-0.003283304,-0.000001460,0.000290650,0.000118812,0.480179399,0.023784915,9.765557289
1784150503.448512,0.001831682,-0.049440913,-0.003283304,0.000069613,0.000083771,-0.000141165,0.487158448,0.043491639,9.754034042
1784150503.450516,0.001832469,-0.049441140,-0.003283303,-0.000019954,0.000293020,-0.000076050,0.495887190,0.024419203,9.774093628
1784150503.452530,0.001832469,-0.049441140,-0.003283303,0.000349437,0.000547658,0.000153165,0.481864005,0.015596868,9.779850960
1784150503.454620,0.001832469,-0.049441140,-0.003283303,0.000996858,0.000585639,0.000229665,0.504272044,0.011042841,9.749805450
1784150503.456543,0.001832062,-0.049442142,-0.003283301,0.000636288,0.000445831,-0.000294519,0.477702409,0.006165124,9.790547371
1784150503.458545,0.001832062,-0.049442142,-0.003283301,-0.000117319,0.000079619,-0.000732789,0.457957268,0.006805632,9.799050331
1784150503.460538,0.001832201,-0.049441144,-0.003283303,-0.000525973,-0.000409646,-0.000240750,0.471705556,0.028758125,9.774547577
1784150503.462533,0.001832201,-0.049441144,-0.003283303,-0.000986278,-0.000746539,0.000153650,0.474724025,0.019240750,9.784352303
1784150503.464533,0.001832201,-0.049441144,-0.003283303,-0.001663160,-0.000948296,-0.000209199,0.470641017,0.052882612,9.786356926
1784150503.466533,0.001833778,-0.049440235,-0.003283305,-0.002135215,-0.000755397,-0.000164723,0.484911263,0.009548711,9.805819511
1784150503.468531,0.001833778,-0.049440235,-0.003283305,-0.002221943,-0.000169768,0.000213551,0.502039909,0.012377311,9.755191803
1784150503.470542,0.001833810,-0.049440980,-0.003283303,-0.002503157,0.000081429,0.000126759,0.481194556,-0.003160871,9.772558212
1784150503.472564,0.001833810,-0.049440980,-0.003283303,-0.002509099,0.000157382,-0.000442199,0.480134100,-0.016594566,9.773367882
1784150503.474555,0.001833810,-0.049440980,-0.003283303,-0.001900659,0.000043670,-0.000784440,0.486527622,0.031522900,9.800133705
1784150503.476550,0.001834052,-0.049440965,-0.003283303,-0.001405585,-0.000203379,-0.000763814,0.503526509,0.026437268,9.791599274
1784150503.478548,0.001834052,-0.049440965,-0.003283303,-0.000967696,0.000135910,-0.000438892,0.505481720,0.001843792,9.781131744
1784150503.480545,0.001833481,-0.049440909,-0.003283303,-0.000468945,0.000308480,-0.000094009,0.454853058,0.009972070,9.800414085
1784150503.482553,0.001833481,-0.049440909,-0.003283303,-0.000036759,0.000109577,0.000137484,0.464672357,0.005381873,9.798151970
1784150503.484555,0.001833481,-0.049440909,-0.003283303,0.000462926,0.000375561,0.000489225,0.462520331,0.011806078,9.780706406
1784150503.486554,0.001833156,-0.049440406,-0.003283305,0.000506865,0.001023976,0.000548919,0.469448477,0.029085403,9.795618057
1784150503.488590,0.001833156,-0.049440406,-0.003283305,-0.000168733,0.001287537,0.000662326,0.475367516,0.034551527,9.772346497
1784150503.490577,0.001833582,-0.049440119,-0.003283305,-0.000125386,0.000878683,0.000922962,0.503680408,0.038189180,9.776879311
1784150503.492568,0.001833582,-0.049440119,-0.003283305,0.000538515,0.000450350,0.000734023,0.461979419,0.042189907,9.793452263
1784150503.494563,0.001833582,-0.049440119,-0.003283305,0.001059362,0.000140569,0.000163211,0.482151330,0.038938548,9.773276329
1784150503.496564,0.001834423,-0.049439427,-0.003283306,0.001602049,-0.000067979,-0.000396679,0.521586061,0.034381885,9.775975227
1784150503.498567,0.001834423,-0.049439427,-0.003283306,0.001890735,-0.000039093,-0.000749560,0.506978512,0.014363091,9.782109261
1784150503.500567,0.001834012,-0.049440354,-0.003283305,0.001650639,0.000043349,-0.001422195,0.479131937,0.012479740,9.782071114
1784150503.502569,0.001834012,-0.049440354,-0.003283305,0.001189737,0.000272357,-0.002543529,0.486059099,-0.008243894,9.785531998
1784150503.504566,0.001834012,-0.049440354,-0.003283305,0.000831428,0.000218016,-0.002477139,0.499049991,-0.009795838,9.791361809
1784150503.506583,0.001831512,-0.049441069,-0.003283303,0.000344909,-0.000330976,-0.001150292,0.477393597,0.019838268,9.821569443
1784150503.508576,0.001831512,-0.049441069,-0.003283303,0.000084673,-0.000424722,-0.000380412,0.480341136,0.037624013,9.772369385
1784150503.510577,0.001832010,-0.049441312,-0.003283303,0.000590389,0.000045662,-0.000826358,0.501916468,0.005324028,9.802221298
1784150503.512580,0.001832010,-0.049441312,-0.003283303,0.001120040,0.000207818,-0.001350545,0.494583547,0.028013783,9.775012970
1784150503.514573,0.001832010,-0.049441312,-0.003283303,0.000740984,-0.000082554,-0.001284605,0.488807976,0.032190122,9.765170097
1784150503.516580,0.001832763,-0.049442023,-0.003283301,0.000340564,-0.000024419,-0.000964487,0.467455566,0.012549732,9.793268204
1784150503.518579,0.001832763,-0.049442023,-0.003283301,0.000414563,0.000444530,-0.000493653,0.491600811,0.005491236,9.797281265
1784150503.520585,0.001831947,-0.049442574,-0.003283300,0.000651128,0.000858949,-0.000601254,0.476971567,0.021270581,9.809921265
1784150503.522587,0.001831947,-0.049442574,-0.003283300,0.000803782,0.000981954,-0.000825083,0.482327402,0.053702187,9.776061058
1784150503.524580,0.001831947,-0.049442574,-0.003283300,0.000672266,0.000441994,-0.000630998,0.468537003,0.026148764,9.769145966
1784150503.526586,0.001832401,-0.049442038,-0.003283301,0.000319470,-0.000291018,-0.000419702,0.483425289,0.033488527,9.781311989
1784150503.528586,0.001832401,-0.049442038,-0.003283301,-0.000043914,-0.000590980,-0.000084122,0.534330666,0.010622663,9.754763603
1784150503.530590,0.001831948,-0.049443729,-0.003283298,0.000129449,-0.000436018,0.000127018,0.499425113,0.019912681,9.771377563
1784150503.532585,0.001831948,-0.049443729,-0.003283298,0.000728625,-0.000251031,-0.000566451,0.478245407,0.012577093,9.769965172
1784150503.534590,0.001831948,-0.049443729,-0.003283298,0.001050060,-0.000796895,-0.001418595,0.461409420,-0.004051838,9.807501793
1784150503.536585,0.001830976,-0.049442813,-0.003283300,0.000554090,-0.001641972,-0.001176539,0.491090119,0.001360415,9.812048912
1784150503.538589,0.001830976,-0.049442813,-0.003283300,-0.000488040,-0.001604392,-0.000654662,0.504863441,-0.012863226,9.771173477
1784150503.540592,0.001829697,-0.049443696,-0.003283298,-0.001366477,-0.000909538,-0.000307054,0.472985059,-0.013427266,9.781899452
1784150503.542599,0.001829697,-0.049443696,-0.003283298,-0.001720434,-0.000659855,0.000179873,0.463760555,0.004468830,9.802180290
1784150503.544593,0.001829697,-0.049443696,-0.003283298,-0.001778353,-0.000424905,0.000336638,0.455373436,0.016205981,9.804936409
1784150503.546597,0.001829694,-0.049442627,-0.003283300,-0.001943678,0.000001342,0.000163236,0.462926000,0.007813199,9.774403572
1784150503.548597,0.001829694,-0.049442627,-0.003283300,-0.002122123,0.000022836,0.000305990,0.496005505,0.035484683,9.792994499
1784150503.550602,0.001830622,-0.049443018,-0.003283300,-0.001656629,-0.000005806,0.000717564,0.501394987,0.035050411,9.781340599
1784150503.552603,0.001830622,-0.049443018,-0.003283300,-0.000885675,-0.000229099,0.000980846,0.480901718,0.010232840,9.779816628
1784150503.554606,0.001830622,-0.049443018,-0.003283300,-0.000289228,-0.000465576,0.001406962,0.483719230,0.021724509,9.796930313
1784150503.556604,0.001830379,-0.049443103,-0.003283300,0.000165654,-0.000492191,0.001411347,0.477778137,0.012436575,9.790588379
1784150503.558610,0.001830379,-0.049443103,-0.003283300,0.000678674,-0.000668891,0.000330844,0.499497712,-0.009404502,9.798539162
1784150503.560608,0.001829200,-0.049443714,-0.003283299,0.000873732,-0.000545249,-0.000202443,0.467746615,-0.000453252,9.794082642
1784150503.562610,0.001829200,-0.049443714,-0.003283299,0.000511552,-0.000059735,0.000385262,0.487897873,-0.005083467,9.778828621
1784150503.564650,0.001829200,-0.049443714,-0.003283299,0.000333837,-0.000085398,0.000883630,0.509957373,0.000480570,9.775747299
1784150503.566621,0.001828211,-0.049444921,-0.003283296,0.000415174,-0.000717122,0.001045035,0.475542873,0.012935543,9.787450790
1784150503.568621,0.001828211,-0.049444921,-0.003283296,0.000496040,-0.000941024,0.000748777,0.490114152,0.029831324,9.779502869
1784150503.570635,0.001828800,-0.049445372,-0.003283295,0.000359760,-0.000777601,0.000462257,0.489035934,0.016257724,9.800037384
1784150503.572627,0.001828800,-0.049445372,-0.003283295,0.000511098,-0.000790124,0.000722543,0.466745406,0.064597242,9.784186363
1784150503.574629,0.001828800,-0.049445372,-0.003283295,0.000405177,-0.000794923,0.000586907,0.460399181,0.022932105,9.795122147
1784150503.576623,0.001829065,-0.049444061,-0.003283298,-0.000014539,-0.000757288,0.000253108,0.486828327,0.018596224,9.790186882
1784150503.578628,0.001829065,-0.049444061,-0.003283298,-0.000065085,-0.000569745,-0.000133177,0.483527869,0.004003196,9.769018173
1784150503.580626,0.001827928,-0.049443409,-0.003283299,-0.000191568,-0.000325266,-0.000233606,0.488384366,-0.001953487,9.778848648
1784150503.582631,0.001827928,-0.049443409,-0.003283299,-0.000395310,-0.000293941,0.000342103,0.494021267,0.018612348,9.774950027
1784150503.584630,0.001827928,-0.049443409,-0.003283299,-0.000942537,-0.000462044,0.000308509,0.499539495,0.030136295,9.782652855
1784150503.586630,0.001828914,-0.049443990,-0.003283298,-0.001253342,-0.000907004,-0.000114761,0.476981848,0.021756690,9.804544449
1784150503.588667,0.001828914,-0.049443990,-0.003283298,-0.000505928,-0.001370415,0.000028957,0.485676229,0.033113573,9.766965866
1784150503.590656,0.001830727,-0.049444549,-0.003283296,0.000168295,-0.001368747,0.000352373,0.473889261,0.025015332,9.792906761
1784150503.592651,0.001830727,-0.049444549,-0.003283296,-0.000005382,-0.000982380,0.000589067,0.499044925,0.026132653,9.779487610
1784150503.594649,0.001830727,-0.049444549,-0.003283296,-0.000040922,-0.000647900,0.000761936,0.481547534,0.026372770,9.777231216
1784150503.596645,0.001830932,-0.049444340,-0.003283297,0.000655041,-0.000572903,0.000707559,0.498878062,0.049842183,9.785018921
1784150503.598645,0.001830932,-0.049444340,-0.003283297,0.001397639,-0.000554373,0.000270979,0.505316317,0.025969485,9.791149139
1784150503.600645,0.001830674,-0.049445517,-0.003283295,0.001249672,-0.000765886,-0.000302139,0.478301257,0.020312889,9.816191673
1784150503.602648,0.001830674,-0.049445517,-0.003283295,0.000345806,-0.001000387,-0.000883828,0.460599035,0.039100043,9.789396286
1784150503.604650,0.001830674,-0.049445517,-0.003283295,-0.000483933,-0.000357526,-0.001610202,0.466532588,0.009117439,9.773518562
1784150503.606652,0.001831103,-0.049443740,-0.003283298,-0.000455096,0.000245301,-0.001704359,0.477993548,-0.007647934,9.779250145
1784150503.608656,0.001831103,-0.049443740,-0.003283298,0.000012454,0.000333228,-0.001052126,0.475452125,0.002492902,9.743894577
1784150503.610661,0.001829964,-0.049443282,-0.003283299,0.000466235,0.000845598,-0.000502097,0.466720313,0.024783365,9.775413513
1784150503.612663,0.001829964,-0.049443282,-0.003283299,0.000704681,0.001005407,-0.000355467,0.525132537,0.031158825,9.781786919
1784150503.614667,0.001829964,-0.049443282,-0.003283299,0.000641431,0.000821937,-0.000828354,0.490835547,0.016272882,9.794660568
1784150503.616675,0.001829754,-0.049443435,-0.003283299,0.000548135,0.001266756,-0.001494632,0.484240294,0.027558140,9.794725418
1784150503.618671,0.001829754,-0.049443435,-0.003283299,0.000061483,0.001483005,-0.001277253,0.488860756,0.002717139,9.814297676
1784150503.620662,0.001829455,-0.049443487,-0.003283299,-0.000336131,0.001098262,-0.000670690,0.467398912,0.007644417,9.790098190
1784150503.622662,0.001829455,-0.049443487,-0.003283299,-0.000028864,0.000707312,-0.000842244,0.496921033,0.035616275,9.772822380
1784150503.624664,0.001829455,-0.049443487,-0.003283299,0.000448629,0.000473661,-0.000948480,0.496599495,0.046757452,9.781858444
1784150503.626664,0.001831092,-0.049444091,-0.003283298,0.000473886,0.000681700,-0.000500775,0.503504574,0.023022098,9.767815590
1784150503.628668,0.001831092,-0.049444091,-0.003283298,0.000400827,0.000709021,-0.000301826,0.493281156,0.030807823,9.762475014
1784150503.630670,0.001831629,-0.049444664,-0.003283296,0.000760960,0.000508145,-0.000103312,0.472100645,0.025492657,9.792009354
1784150503.632668,0.001831629,-0.049444664,-0.003283296,0.001027214,0.000651745,-0.000282008,0.491218358,0.011288691,9.801800728
1784150503.634676,0.001831629,-0.049444664,-0.003283296,0.000711340,0.000350087,-0.000776295,0.463395357,0.011213070,9.799533844
1784150503.636673,0.001830933,-0.049443096,-0.003283300,0.000298504,0.000109876,-0.000414710,0.471767664,0.034111410,9.777719498
1784150503.638693,0.001830933,-0.049443096,-0.003283300,-0.000091254,0.000114398,0.000084232,0.478864819,0.028913792,9.802799225
1784150503.640679,0.001831593,-0.049442943,-0.003283300,-0.000251553,-0.000328640,-0.000366915,0.471644789,0.024631092,9.787970543
1784150503.642684,0.001831593,-0.049442943,-0.003283300,-0.000349294,-0.000649159,-0.001092668,0.493848979,0.041873917,9.780479431
1784150503.644682,0.001831593,-0.049442943,-0.003283300,-0.000453062,-0.000488091,-0.001330396,0.489897341,0.012719771,9.791945457
1784150503.646689,0.001831617,-0.049443480,-0.003283299,-0.000023716,-0.000361964,-0.000888965,0.474749625,0.021874465,9.791989326
1784150503.648690,0.001831617,-0.049443480,-0.003283299,0.000702520,-0.000438082,-0.000314941,0.466124237,0.014304768,9.800900459
1784150503.650693,0.001831452,-0.049442537,-0.003283301,0.001202135,-0.000021030,-0.000580154,0.461609215,0.011709474,9.795947075
1784150503.652697,0.001831452,-0.049442537,-0.003283301,0.001351445,0.000430978,-0.001079755,0.490770400,0.009274024,9.770853043
1784150503.654693,0.001831452,-0.049442537,-0.003283301,0.001543309,0.000233182,-0.000760545,0.493453741,0.009169575,9.780717850
1784150503.656691,0.001831199,-0.049442928,-0.003283300,0.001538355,0.000230438,0.000158523,0.495062977,0.030276451,9.770993233
1784150503.658694,0.001831199,-0.049442928,-0.003283300,0.000887464,0.000542069,0.000720462,0.502554476,0.018160079,9.760161400
1784150503.660695,0.001831296,-0.049443759,-0.003283299,0.000355445,0.000322942,0.000603749,0.488921851,0.005630659,9.782485008
1784150503.662699,0.001831296,-0.049443759,-0.003283299,0.000978715,-0.000026696,0.000374857,0.493512422,0.014090789,9.781645775
1784150503.664733,0.001831296,-0.049443759,-0.003283299,0.001868680,-0.000088445,0.000264035,0.479129672,0.012867292,9.790591240
1784150503.666712,0.001832485,-0.049443368,-0.003283299,0.002118117,-0.000254568,0.000091735,0.469579011,0.001036153,9.770331383
1784150503.668710,0.001832485,-0.049443368,-0.003283299,0.002425298,-0.000344705,0.000580349,0.475028127,0.009582983,9.818811417
1784150503.670718,0.001832004,-0.049443331,-0.003283299,0.002470252,-0.000140887,0.001334656,0.501226187,0.019533932,9.758375168
1784150503.672714,0.001832004,-0.049443331,-0.003283299,0.001651345,-0.000215665,0.001628839,0.475425959,0.002286224,9.773036003
1784150503.674710,0.001832004,-0.049443331,-0.003283299,0.000696033,-0.000066509,0.001554883,0.467495561,0.014081210,9.766827583
1784150503.676714,0.001831703,-0.049443141,-0.003283300,0.000206814,0.000654992,0.000999300,0.480990529,0.016202597,9.759230614
1784150503.678715,0.001831703,-0.049443141,-0.003283300,0.000008154,0.000781144,0.000881417,0.458093315,0.018011024,9.798226357
1784150503.680708,0.001831253,-0.049441990,-0.003283302,-0.000088808,0.000313448,0.000973017,0.474499494,0.037631985,9.781779289
1784150503.682713,0.001831253,-0.049441990,-0.003283302,-0.000281404,0.000300804,0.000590085,0.504920959,0.028828347,9.767853737
1784150503.684744,0.001831253,-0.049441990,-0.003283302,-0.000598928,0.000635156,0.000366911,0.495059878,0.030657636,9.780408859
1784150503.686729,0.001832426,-0.049443260,-0.003283300,-0.000818876,0.000266411,0.000237042,0.481530279,-0.012163999,9.777879715
1784150503.688733,0.001832426,-0.049443260,-0.003283300,-0.001003941,-0.000684257,-0.000132184,0.485704750,0.000206342,9.795000076
1784150503.690725,0.001831720,-0.049443491,-0.003283299,-0.001246586,-0.001303981,-0.000346770,0.475973666,0.012383264,9.801344872
1784150503.692728,0.001831720,-0.049443491,-0.003283299,-0.001133627,-0.001704903,-0.000448197,0.507852614,0.013357112,9.796001434
1784150503.694732,0.001831720,-0.049443491,-0.003283299,-0.000541669,-0.001801154,-0.001061739,0.481777012,0.009236383,9.792365074
1784150503.696722,0.001831856,-0.049443416,-0.003283299,-0.000212347,-0.001275867,-0.001559698,0.464979857,0.028882524,9.769160271
1784150503.698725,0.001831856,-0.049443416,-0.003283299,-0.000627479,-0.001124333,-0.001238816,0.497180760,0.020745134,9.784382820
1784150503.700727,0.001831803,-0.049444120,-0.003283298,-0.000593782,-0.001508969,-0.000122742,0.451409221,0.021706387,9.794656754
1784150503.702733,0.001831803,-0.049444120,-0.003283298,0.000446869,-0.001458255,0.000711817,0.492372006,-0.005242710,9.793177605
1784150503.704728,0.001831803,-0.049444120,-0.003283298,0.000777201,-0.000998510,0.000635491,0.457424223,0.000066529,9.802593231
1784150503.706732,0.001831382,-0.049443599,-0.003283298,0.000024327,-0.000598215,0.000470363,0.484829634,0.000799349,9.776173592
1784150503.708732,0.001831382,-0.049443599,-0.003283298,-0.000633390,-0.000342422,0.000512162,0.493225783,0.027938817,9.788011551
1784150503.710743,0.001831236,-0.049444176,-0.003283297,-0.001151854,-0.000338746,0.001046983,0.515262187,0.030078148,9.762492180
1784150503.712738,0.001831236,-0.049444176,-0.003283297,-0.001421248,-0.000337679,0.001508965,0.504165530,0.041713070,9.784523964
1784150503.714744,0.001831236,-0.049444176,-0.003283297,-0.001036333,-0.000283969,0.000998297,0.495215714,0.044045597,9.787669182
1784150503.716744,0.001832255,-0.049444959,-0.003283296,-0.000740187,-0.000461002,0.000625101,0.508887410,0.059720282,9.764019966
1784150503.718745,0.001832255,-0.049444959,-0.003283296,-0.001179531,-0.000821212,0.001054924,0.485421360,0.013269737,9.785669327
1784150503.720743,0.001831717,-0.049444880,-0.003283296,-0.001643919,-0.001081289,0.001241466,0.486781895,0.014177032,9.781640053
1784150503.722750,0.001831717,-0.049444880,-0.003283296,-0.001595923,-0.000837957,0.000568053,0.482173473,0.004360299,9.784263611
1784150503.724744,0.001831717,-0.049444880,-0.003283296,-0.001450511,-0.000464334,0.000150956,0.493222862,0.025889792,9.761099815
1784150503.726755,0.001833061,-0.049444824,-0.003283296,-0.001345859,-0.000247909,0.000135621,0.513598979,0.003681591,9.760080338
1784150503.728776,0.001833061,-0.049444824,-0.003283296,-0.000963116,-0.000253219,-0.000255059,0.504776061,-0.019226888,9.784133911
1784150503.730767,0.001830907,-0.049445614,-0.003283295,-0.000780732,-0.000779020,-0.000380260,0.490896523,0.020806549,9.787066460
1784150503.732773,0.001830907,-0.049445614,-0.003283295,-0.001174554,-0.001302479,-0.000130103,0.487263262,0.019292442,9.817542076
1784150503.734766,0.001830907,-0.049445614,-0.003283295,-0.001401795,-0.001215591,-0.000089576,0.476453871,0.014652291,9.796428680
1784150503.736785,0.001831508,-0.049444314,-0.003283297,-0.001399575,-0.000738682,-0.000292156,0.495904565,-0.011007269,9.778349876
1784150503.738765,0.001831508,-0.049444314,-0.003283297,-0.001397092,-0.000284048,-0.000312772,0.508638144,0.004357771,9.799980164
1784150503.740768,0.001831223,-0.049445648,-0.003283294,-0.001122254,0.000276422,-0.000037250,0.468113214,0.029998565,9.795622826
1784150503.742781,0.001831223,-0.049445648,-0.003283294,-0.000596113,0.000804985,0.000525688,0.450958669,0.022102866,9.802728653
1784150503.744762,0.001831223,-0.049445648,-0.003283294,-0.000125461,0.000901330,0.000898210,0.489757299,0.038262486,9.791662216
1784150503.746764,0.001831978,-0.049445465,-0.003283295,-0.000304251,0.001123901,0.000718313,0.502455950,0.047677204,9.767971992
1784150503.748766,0.001831978,-0.049445465,-0.003283295,-0.000770964,0.001920196,0.000500000,0.501709878,0.024261791,9.785755157
1784150503.750787,0.001831588,-0.049446464,-0.003283293,-0.000697085,0.002315833,0.000340590,0.473709255,0.046999793,9.789011002
1784150503.752779,0.001831588,-0.049446464,-0.003283293,-0.000122794,0.002081110,-0.000535800,0.482986003,0.033974044,9.776832581
1784150503.754774,0.001831588,-0.049446464,-0.003283293,0.000367196,0.001802567,-0.001373297,0.498777092,0.041750260,9.789001465
1784150503.756774,0.001832519,-0.049447250,-0.003283292,0.000033556,0.001475458,-0.001064551,0.500355899,0.020975163,9.746278763
1784150503.758781,0.001832519,-0.049447250,-0.003283292,-0.000770888,0.001153330,-0.000859044,0.473299235,0.011747591,9.769507408
1784150503.760777,0.001832407,-0.049446803,-0.003283292,-0.000886982,0.000808258,-0.001142446,0.477450192,0.020690048,9.764636993
1784150503.762778,0.001832407,-0.049446803,-0.003283292,-0.000465575,0.000638317,-0.000842193,0.515743375,-0.001992959,9.798152924
1784150503.764779,0.001832407,-0.049446803,-0.003283292,0.000233742,0.000146429,0.000006924,0.501197100,0.018088292,9.772713661
1784150503.766777,0.001832464,-0.049447518,-0.003283291,0.001080306,-0.000879409,0.000279329,0.473609298,0.000920825,9.779301643
1784150503.768819,0.001832464,-0.049447518,-0.003283291,0.001085856,-0.001383596,0.000062965,0.473692507,0.008872828,9.795043945
1784150503.770811,0.001831884,-0.049446966,-0.003283292,0.000662362,-0.001169974,-0.000146252,0.474381536,0.027379749,9.774539948
1784150503.772806,0.001831884,-0.049446966,-0.003283292,0.000461913,-0.000929064,0.000279640,0.465379745,0.026465276,9.793355942
1784150503.774796,0.001831884,-0.049446966,-0.003283292,0.000279249,-0.000649379,0.001276389,0.461460233,0.035965532,9.787585258
1784150503.776793,0.001832483,-0.049445961,-0.003283294,-0.000156160,-0.000167070,0.001137096,0.467385411,0.044722833,9.805580139
1784150503.778788,0.001832483,-0.049445961,-0.003283294,-0.000633266,0.000280656,0.000277728,0.485453963,0.016364133,9.791516304
1784150503.780793,0.001831664,-0.049446046,-0.003283294,-0.000437979,0.000707191,-0.000058061,0.482292712,0.013811999,9.778046608
1784150503.782804,0.001831664,-0.049446046,-0.003283294,0.000244541,0.000901661,0.000094670,0.501038551,0.005894778,9.786533356
1784150503.784798,0.001831664,-0.049446046,-0.003283294,0.000682983,0.000664874,0.000384250,0.470325738,0.026888143,9.787982941
1784150503.786797,0.001831044,-0.049445618,-0.003283295,0.000585346,0.000388769,0.000612017,0.486557156,0.032971703,9.785348892
1784150503.788820,0.001831044,-0.049445618,-0.003283295,0.000371424,0.000386385,0.000905187,0.509450674,0.032754809,9.774608612
1784150503.790810,0.001831388,-0.049446248,-0.003283293,-0.000095901,-0.000025090,0.000971565,0.497863442,0.040417876,9.788992882
1784150503.792807,0.001831388,-0.049446248,-0.003283293,-0.000713137,-0.001018737,0.000185232,0.510028660,0.006717053,9.780717850
1784150503.794805,0.001831388,-0.049446248,-0.003283293,-0.000976555,-0.001328191,-0.000782138,0.501401901,0.035104457,9.773718834
1784150503.796803,0.001832278,-0.049447052,-0.003283292,-0.000816890,-0.000696775,-0.000939970,0.516324997,0.009587868,9.806745529
1784150503.798804,0.001832278,-0.049447052,-0.003283292,-0.000067673,-0.000068276,-0.000294829,0.503339827,0.012401032,9.812579155
1784150503.800804,0.001832552,-0.049446858,-0.003283293,0.000710298,0.000029748,-0.000259730,0.470742255,0.022981111,9.769577026
1784150503.802813,0.001832552,-0.049446858,-0.003283293,0.001144446,-0.000560394,-0.000725456,0.475911617,0.009056751,9.828225136
1784150503.804811,0.001832552,-0.049446858,-0.003283293,0.001246190,-0.000666775,-0.000611975,0.492722541,0.023461770,9.788431168
1784150503.806813,0.001832198,-0.049447108,-0.003283292,0.001002764,0.000049345,-0.000236560,0.465782940,0.023263378,9.801853180
1784150503.808817,0.001832198,-0.049447108,-0.003283292,0.000589119,0.000517810,0.000325083,0.457985610,0.045834873,9.792128563
1784150503.810825,0.001833070,-0.049446654,-0.003283293,0.000594762,0.000907335,0.001132131,0.479579866,0.049247537,9.777375221
1784150503.812817,0.001833070,-0.049446654,-0.003283293,0.000632695,0.000904741,0.001393582,0.500431061,0.029673649,9.783098221
1784150503.814817,0.001833070,-0.049446654,-0.003283293,-0.000050178,0.000266636,0.000911456,0.483588010,0.010557271,9.792374611
1784150503.816832,0.001832149,-0.049446955,-0.003283292,-0.000581529,0.000070476,0.000832453,0.480219424,0.028153239,9.781275749
1784150503.818827,0.001832149,-0.049446955,-0.003283292,-0.000582774,0.000516725,0.000887106,0.494692743,0.037385985,9.780004501
1784150503.820822,0.001832880,-0.049447116,-0.003283292,-0.000399530,0.001110921,0.000748194,0.520605564,0.026037918,9.753953934
1784150503.822828,0.001832880,-0.049447116,-0.003283292,-0.000033824,0.001359078,0.001007375,0.496802419,0.025764307,9.772310257
1784150503.824827,0.001832880,-0.049447116,-0.003283292,0.000334935,0.000945555,0.001066673,0.474218458,0.013934561,9.775349617
1784150503.826838,0.001832886,-0.049446844,-0.003283293,0.000439368,0.000344741,0.000349766,0.468140662,-0.005348414,9.788671494
1784150503.828834,0.001832886,-0.049446844,-0.003283293,0.000371398,-0.000072397,-0.000335074,0.473124743,-0.002193258,9.777039528
1784150503.830831,0.001831991,-0.049447015,-0.003283292,0.000611624,-0.000203174,-0.000218787,0.489127010,0.024676774,9.813094139
1784150503.832832,0.001831991,-0.049447015,-0.003283292,0.000836638,-0.000607293,0.000243374,0.467784315,0.002275853,9.788270950
1784150503.834872,0.001831991,-0.049447015,-0.003283292,0.000709602,-0.001147885,0.000144976,0.494782865,0.006992016,9.769496918
1784150503.836847,0.001831098,-0.049447544,-0.003283291,0.000696090,-0.000965361,-0.000121939,0.493087143,0.016307732,9.785696030
1784150503.838843,0.001831098,-0.049447544,-0.003283291,0.000468728,-0.000726481,0.000405933,0.504475176,0.030073047,9.782656670
1784150503.840879,0.001831228,-0.049448393,-0.003283290,-0.000026057,-0.000873449,0.000878430,0.495926857,0.027974278,9.778151512
1784150503.842862,0.001831228,-0.049448393,-0.003283290,0.000104633,-0.000908169,0.000303180,0.500681877,0.015542636,9.816633224
1784150503.844846,0.001831228,-0.049448393,-0.003283290,0.000759844,-0.000958163,-0.000006820,0.455318302,0.009286614,9.769923210
1784150503.846855,0.001831081,-0.049447890,-0.003283290,0.001035875,-0.001016057,0.000687551,0.480772227,0.000295020,9.791409492
1784150503.848850,0.001831081,-0.049447890,-0.003283290,0.000731953,-0.000944680,0.001175171,0.465829045,0.026869327,9.798738480
1784150503.850853,0.001831549,-0.049446985,-0.003283292,0.000456641,-0.001048782,0.000662955,0.491018176,0.030277321,9.778162003
1784150503.852853,0.001831549,-0.049446985,-0.003283292,0.000471994,-0.001304614,-0.000089937,0.509512365,0.038104899,9.778229713
1784150503.854856,0.001831549,-0.049446985,-0.003283292,0.000087575,-0.001183722,-0.000149929,0.487585723,0.044127438,9.789902687
1784150503.856847,0.001833352,-0.049447294,-0.003283291,-0.000838518,-0.000586370,0.000078956,0.490237415,0.003751615,9.792338371
1784150503.858861,0.001833352,-0.049447294,-0.003283291,-0.001494783,-0.000150629,0.000119366,0.464659005,0.004060250,9.795004845
1784150503.860859,0.001832671,-0.049446031,-0.003283294,-0.001412169,0.000178869,0.000131711,0.501563430,0.012163663,9.786126137
1784150503.862859,0.001832671,-0.049446031,-0.003283294,-0.000737436,0.000254381,-0.000527154,0.498118818,0.024701694,9.793375969
1784150503.864912,0.001832671,-0.049446031,-0.003283294,-0.000014442,-0.000069760,-0.001225496,0.464143872,0.034647565,9.779061317
1784150503.866867,0.001833056,-0.049445219,-0.003283295,0.000293735,-0.000237517,-0.000759399,0.480198503,0.025151066,9.762425423
1784150503.868898,0.001833056,-0.049445219,-0.003283295,0.000245420,-0.000343434,0.000337981,0.474186212,0.010843349,9.769054413
1784150503.870878,0.001833134,-0.049445320,-0.003283295,0.000100426,-0.000510290,0.001281151,0.500004947,0.032694302,9.800153732
1784150503.872880,0.001833134,-0.049445320,-0.003283295,-0.000362085,-0.000318468,0.001391761,0.467287838,0.037062973,9.811807632
1784150503.874873,0.001833134,-0.049445320,-0.003283295,-0.000839991,0.000094663,0.001166758,0.478419960,0.028544709,9.792485237
1784150503.876870,0.001833556,-0.049445409,-0.003283295,-0.001026988,0.000319897,0.001327612,0.497555941,0.014890453,9.787931442
1784150503.878874,0.001833556,-0.049445409,-0.003283295,-0.001090289,0.000554746,0.001517510,0.496930540,-0.000277243,9.779765129
1784150503.880867,0.001832631,-0.049446031,-0.003283294,-0.000992721,0.000546835,0.001239889,0.490381837,0.016643927,9.806318283
1784150503.882907,0.001832631,-0.049446031,-0.003283294,-0.000400200,0.000213124,0.000765868,0.493084371,0.015475397,9.776723862
1784150503.884886,0.001832631,-0.049446031,-0.003283294,-0.000146186,0.000260032,0.000403831,0.487689912,0.014654833,9.775815964
1784150503.886882,0.001830410,-0.049444553,-0.003280619,-0.001129867,0.000883839,-0.000002838,0.499272287,0.009790444,9.808973312
1784150503.888884,0.001830410,-0.049444553,-0.003280619,-0.002338451,0.001054327,-0.000066726,0.474300414,0.019850265,9.762387276
1784150503.890881,0.001830106,-0.049444102,-0.003280621,-0.002669679,0.000321329,0.000749316,0.482974827,0.032264870,9.765164375
1784150503.892887,0.001830106,-0.049444102,-0.003280621,-0.002276574,-0.000057832,0.001399820,0.492239863,0.019956972,9.778095245
1784150503.894908,0.001830106,-0.049444102,-0.003280621,-0.001980903,0.000302134,0.000848312,0.498252124,0.034264684,9.771469116
1784150503.896891,0.001831199,-0.049444687,-0.003280619,-0.001854625,0.000551090,-0.000167434,0.503009379,0.018608650,9.759268761
1784150503.898883,0.001831199,-0.049444687,-0.003280619,-0.001477871,0.000402850,-0.000493586,0.472499758,0.020232191,9.774940491
1784150503.900883,0.001831034,-0.049444586,-0.003280619,-0.000445120,0.000284026,-0.000296796,0.482753992,0.015121516,9.782091141
1784150503.902889,0.001831034,-0.049444586,-0.003280619,0.000505906,0.000142320,-0.000315895,0.465646625,0.010434670,9.778906822
1784150503.904889,0.001831034,-0.049444586,-0.003280619,0.000905895,-0.000211845,0.000011313,0.460998565,-0.000910357,9.807521820
1784150503.906887,0.001830243,-0.049443476,-0.003280621,0.001435151,-0.000167646,0.000450312,0.467927247,-0.022027904,9.803359032
1784150503.908888,0.001830243,-0.049443476,-0.003280621,0.001407982,0.000104431,0.000536126,0.486198515,0.003393552,9.786951065
1784150503.910901,0.001829008,-0.049443685,-0.003280621,0.000988755,0.000127616,0.000488719,0.468125790,-0.006276136,9.793148994
1784150503.912896,0.001829008,-0.049443685,-0.003280621,0.000738567,0.000163901,0.000129447,0.456776232,-0.017305993,9.789479256
1784150503.914900,0.001829008,-0.049443685,-0.003280621,0.000355246,0.000029403,0.000047024,0.480924368,0.011627596,9.772652626
1784150503.916906,0.001828594,-0.049443226,-0.003280622,0.000054325,-0.000357548,0.000183904,0.488516957,0.009629910,9.787889481
1784150503.918902,0.001828594,-0.049443226,-0.003280622,-0.000359755,-0.000399584,-0.000329115,0.493913829,0.010469557,9.786108017
1784150503.920904,0.001828369,-0.049443368,-0.003280622,-0.000567285,-0.000141684,-0.000953812,0.473967612,0.031712495,9.796087265
1784150503.922907,0.001828369,-0.049443368,-0.003280622,-0.000503359,-0.000048337,-0.001048045,0.472446471,0.054158982,9.792643547
1784150503.924905,0.001828369,-0.049443368,-0.003280622,-0.000295856,-0.000021610,-0.000539010,0.489569932,0.023409816,9.801428795
1784150503.926913,0.001827964,-0.049443956,-0.003280621,0.000107702,0.000010814,0.000211378,0.496106327,0.043169975,9.783180237
1784150503.928906,0.001827964,-0.049443956,-0.003280621,0.000040973,0.000005535,0.000233791,0.504943132,0.031840071,9.785358429
1784150503.930991,0.001828301,-0.049444269,-0.003280620,-0.000367835,-0.000025887,-0.000490731,0.480712056,0.031330917,9.774571419
1784150503.932921,0.001828301,-0.049444269,-0.003280620,-0.000486805,-0.000160694,-0.000693945,0.496387094,0.029680885,9.789370537
1784150503.934923,0.001828301,-0.049444269,-0.003280620,-0.000196604,-0.000427612,-0.000409082,0.480443239,0.046535544,9.779150963
1784150503.936913,0.001829836,-0.049444169,-0.003280620,0.000376307,-0.000731185,-0.000652891,0.496728867,0.020725448,9.787969589
1784150503.938913,0.001829836,-0.049444169,-0.003280620,0.000940750,-0.000720153,-0.000792873,0.491957992,-0.003746813,9.772564888
1784150503.940917,0.001828244,-0.049444698,-0.003280619,0.001486788,0.000130179,-0.000528904,0.491419733,-0.010527252,9.781935692
1784150503.942932,0.001828244,-0.049444698,-0.003280619,0.001377333,0.000629997,-0.000482493,0.478102982,0.000510760,9.765852928
1784150503.944922,0.001828244,-0.049444698,-0.003280619,0.000619238,0.000119795,-0.000508788,0.487099677,0.002600604,9.770806313
1784150503.946925,0.001826592,-0.049444232,-0.003280621,-0.000020803,0.000018278,-0.000400214,0.514897704,0.038448900,9.783168793
1784150503.948922,0.001826592,-0.049444232,-0.003280621,-0.000481392,0.000518798,-0.000083237,0.504884541,0.028135555,9.802371979
1784150503.950927,0.001827515,-0.049445085,-0.003280619,-0.000435358,0.001164195,0.000655300,0.477913558,0.024042230,9.796490669
1784150503.952931,0.001827515,-0.049445085,-0.003280619,-0.000222782,0.001435434,0.001030025,0.487086803,0.039278753,9.779561043
1784150503.954929,0.001827515,-0.049445085,-0.003280619,-0.000253693,0.000992263,0.000450709,0.476569682,0.023671923,9.787969589
1784150503.956932,0.001827436,-0.049445536,-0.003280618,-0.000444448,0.000149587,-0.000028636,0.464991987,0.031004686,9.785762787
1784150503.958936,0.001827436,-0.049445536,-0.003280618,-0.001287122,-0.000208149,0.000182081,0.517442286,0.026306733,9.784886360
1784150503.960935,0.001828123,-0.049448270,-0.003280613,-0.001911261,0.000233877,0.000249226,0.491643548,0.007044982,9.767701149
1784150503.962941,0.001828123,-0.049448270,-0.003280613,-0.001587921,0.000619051,0.000371935,0.486708403,0.007518027,9.773079872
1784150503.964938,0.001828123,-0.049448270,-0.003280613,-0.001103595,0.000535874,0.000640215,0.483808696,-0.007459133,9.805261612
1784150503.966943,0.001826688,-0.049448207,-0.003280613,-0.000628177,0.000096307,0.000779581,0.471039802,0.014082544,9.823320389
1784150503.968949,0.001826688,-0.049448207,-0.003280613,-0.000191597,-0.000172770,0.001188417,0.465408593,0.029124424,9.797407150
1784150503.970950,0.001827882,-0.049447469,-0.003280615,0.000328330,-0.000065754,0.001614622,0.485232592,0.035590872,9.797468185
1784150503.972960,0.001827882,-0.049447469,-0.003280615,0.000831873,-0.000238694,0.001526768,0.490644008,0.038571756,9.809597969
1784150503.974959,0.001827882,-0.049447469,-0.003280615,0.001180231,-0.000435480,0.001299877,0.503569186,0.029611150,9.786239624
1784150503.976946,0.001828079,-0.049448099,-0.003280614,0.001347918,-0.000129367,0.001371631,0.500311613,0.020625398,9.795594215
1784150503.978950,0.001828079,-0.049448099,-0.003280614,0.000949351,0.000405898,0.001316504,0.505402446,-0.005266352,9.773015976
1784150503.980945,0.001827099,-0.049448747,-0.003280613,0.000586422,0.000760948,0.001221880,0.521866143,-0.016296918,9.782376289
1784150503.982954,0.001827099,-0.049448747,-0.003280613,0.000739677,0.001089749,0.000720758,0.470456541,-0.000347841,9.774358749
1784150503.984949,0.001827099,-0.049448747,-0.003280613,0.000708531,0.001423026,-0.000005045,0.484859049,0.003868307,9.785608292
1784150503.986950,0.001826145,-0.049449045,-0.003280612,0.000028440,0.001201160,0.000076344,0.501734138,0.027696040,9.806848526
1784150503.988976,0.001826145,-0.049449045,-0.003280612,-0.000542395,0.000857477,0.000603847,0.493885279,0.007406959,9.775774956
1784150503.990973,0.001825860,-0.049449451,-0.003280611,-0.000629758,0.000803881,0.000610658,0.492149830,0.013977676,9.800025940
1784150503.992962,0.001825860,-0.049449451,-0.003280611,-0.000549415,0.000656617,0.000398624,0.486096621,0.031668544,9.780406952
1784150503.994960,0.001825860,-0.049449451,-0.003280611,0.000069637,0.000595962,0.000461932,0.508162320,0.038496982,9.788541794
1784150503.996964,0.001826623,-0.049450781,-0.003280609,0.001212781,0.000977510,0.000312952,0.482081294,0.034738369,9.797010422
1784150503.998966,0.001826623,-0.049450781,-0.003280609,0.001646979,0.001257658,0.000546786,0.466917574,0.042145740,9.790767670
1784150504.000962,0.001827750,-0.049449757,-0.003280611,0.001145147,0.001091364,0.000912337,0.484592915,0.020715335,9.811269760
1784150504.002969,0.001827750,-0.049449757,-0.003280611,0.000909463,0.001117352,0.000439540,0.503198862,0.035503983,9.777309418
1784150504.004965,0.001827750,-0.049449757,-0.003280611,0.000575922,0.001245250,0.000221824,0.483397931,0.029625403,9.757526398
1784150504.006973,0.001828298,-0.049449816,-0.003280611,-0.000193505,0.001181109,0.000223974,0.497697413,0.025733724,9.775001526
1784150504.008968,0.001828298,-0.049449816,-0.003280611,-0.000588645,0.001331920,0.000010282,0.493592381,0.019990599,9.770925522
1784150504.010977,0.001828362,-0.049450461,-0.003280610,-0.000552242,0.001330292,-0.000145496,0.495540291,-0.003039974,9.792748451
1784150504.013002,0.001828362,-0.049450461,-0.003280610,-0.000582753,0.000990061,-0.000640047,0.489859968,0.007967078,9.767256737
1784150504.014981,0.001828362,-0.049450461,-0.003280610,-0.000767216,0.000745172,-0.001199133,0.508753538,0.012967595,9.786136627
1784150504.016989,0.001827801,-0.049451172,-0.003280608,-0.000811548,0.000599919,-0.001299213,0.506253302,0.065076262,9.771674156
1784150504.018982,0.001827801,-0.049451172,-0.003280608,-0.000500361,0.000647855,-0.000630593,0.474106550,0.003730025,9.761385918
1784150504.021025,0.001826834,-0.049450323,-0.003280610,-0.000273841,0.000752339,0.000254016,0.464323729,0.013066554,9.789233208
1784150504.022990,0.001826834,-0.049450323,-0.003280610,-0.000417123,0.000654334,0.000481793,0.485118866,0.025777066,9.791576385
1784150504.024980,0.001826834,-0.049450323,-0.003280610,-0.000559761,0.000350468,0.000465852,0.484087110,0.051375784,9.785014153
1784150504.026989,0.001828208,-0.049449306,-0.003280612,-0.000411232,0.000107166,0.000653088,0.505151510,0.048884850,9.782329559
1784150504.029006,0.001828208,-0.049449306,-0.003280612,-0.000174244,0.000091745,0.000592024,0.504072189,0.071271531,9.786507607
1784150504.030992,0.001830719,-0.049449813,-0.003280611,-0.000200448,-0.000004795,0.000131556,0.504005194,0.029910281,9.806416512
1784150504.032995,0.001830719,-0.049449813,-0.003280611,-0.000200654,-0.000055779,-0.000456477,0.496270239,0.021058334,9.805007935
1784150504.034987,0.001830719,-0.049449813,-0.003280611,0.000146147,0.000209657,-0.000936772,0.503714561,0.004516403,9.786527634
1784150504.036989,0.001830250,-0.049450561,-0.003280609,0.000346434,0.000600916,-0.001177331,0.463726133,0.000955099,9.792292595
1784150504.038992,0.001830250,-0.049450561,-0.003280609,0.000165847,0.000939256,-0.000666829,0.493425459,0.006920234,9.782048225
1784150504.041089,0.001829928,-0.049451355,-0.003280608,0.000611159,0.001157750,0.000319589,0.471923947,0.011939352,9.808063507
1784150504.043027,0.001829928,-0.049451355,-0.003280608,0.001371009,0.001333656,0.000479363,0.470677286,0.018415652,9.781651497
1784150504.045012,0.001829928,-0.049451355,-0.003280608,0.001436932,0.001398383,0.000053074,0.479825109,-0.003328041,9.798558235
1784150504.047022,0.001829031,-0.049450524,-0.003280609,0.001154352,0.000963344,-0.000296788,0.508172691,0.037362948,9.758945465
1784150504.049023,0.001829031,-0.049450524,-0.003280609,0.001219036,0.000536839,-0.000768462,0.507563710,0.024755845,9.768727303
1784150504.051018,0.001829252,-0.049451496,-0.003280607,0.001573638,0.000188148,-0.001328416,0.494655013,-0.002933077,9.779296875
1784150504.053015,0.001829252,-0.049451496,-0.003280607,0.001464761,-0.000408765,-0.000944550,0.492049217,0.003052088,9.761400223
1784150504.055019,0.001829252,-0.049451496,-0.003280607,0.001149174,-0.000756711,0.000255843,0.486182302,0.002859745,9.799052238
1784150504.057025,0.001828548,-0.049450852,-0.003280608,0.000833101,-0.000700946,0.000752814,0.492397577,0.034980979,9.807333946
1784150504.059040,0.001828548,-0.049450852,-0.003280608,0.000115184,-0.000758853,0.000427560,0.473404914,0.022307878,9.796474457
1784150504.061040,0.001828687,-0.049450636,-0.003280609,-0.000427582,-0.000910147,0.000406598,0.492198616,0.019226018,9.817993164
1784150504.063038,0.001828687,-0.049450636,-0.003280609,-0.000241257,-0.000755984,0.000285414,0.490469038,0.022600956,9.787526131
1784150504.065033,0.001828687,-0.049450636,-0.003280609,-0.000213367,-0.000693413,-0.000308766,0.455016941,0.022613551,9.786595345
1784150504.067030,0.001829128,-0.049449254,-0.003280611,-0.000446614,-0.000698762,-0.000796462,0.491110027,0.039512809,9.802431107
1784150504.069040,0.001829128,-0.049449254,-0.003280611,-0.000005995,-0.001034887,-0.000881848,0.491729110,0.016636206,9.804975510
1784150504.071037,0.001829086,-0.049449269,-0.003280611,0.000633722,-0.001737816,-0.000187920,0.476599902,0.026747242,9.796506882
1784150504.073037,0.001829086,-0.049449269,-0.003280611,0.000727860,-0.001543471,0.000248737,0.489296108,0.038169667,9.805559158
1784150504.075036,0.001829086,-0.049449269,-0.003280611,0.000300444,-0.000600374,-0.000115454,0.476837873,0.006840799,9.760063171
1784150504.077029,0.001828850,-0.049449161,-0.003280611,-0.000048619,-0.000109373,-0.000634641,0.474715680,0.016743766,9.757436752
1784150504.079031,0.001828850,-0.049449161,-0.003280611,0.000074267,0.000010370,-0.001031641,0.487323463,0.023009669,9.798733711
1784150504.081030,0.001828925,-0.049449902,-0.003280610,0.000309134,0.000325375,-0.000561176,0.496827006,0.028795112,9.787123680
1784150504.083031,0.001828925,-0.049449902,-0.003280610,0.000456475,0.000120583,0.000194287,0.474117905,0.042625714,9.773292542
1784150504.085029,0.001828925,-0.049449902,-0.003280610,0.000396531,-0.000581015,0.000127529,0.483900636,0.000156212,9.805309296
1784150504.087035,0.001828055,-0.049449466,-0.003280611,0.000046813,-0.000980493,0.000024877,0.487162143,0.045547027,9.780048370
1784150504.089048,0.001828055,-0.049449466,-0.003280611,-0.000221203,-0.000786495,0.000133296,0.480280489,0.033903606,9.791624069
1784150504.091046,0.001828560,-0.049449231,-0.003280611,-0.000122434,-0.000338701,-0.000381258,0.466656238,0.057004157,9.781000137
1784150504.093079,0.001828560,-0.049449231,-0.003280611,0.000416658,-0.000322514,-0.000919556,0.499438882,0.019210713,9.744025230
1784150504.095053,0.001828560,-0.049449231,-0.003280611,0.000735393,-0.000366690,-0.000860835,0.501694977,-0.013445823,9.795825005
1784150504.097044,0.001827614,-0.049449503,-0.003280611,0.000249051,0.000005744,-0.000961359,0.503887594,-0.018738812,9.780101776
1784150504.099051,0.001827614,-0.049449503,-0.003280611,-0.000286276,0.000260901,-0.001016915,0.495143294,0.001426315,9.795465469
1784150504.101043,0.001826987,-0.049449857,-0.003280610,-0.000224990,0.000457589,-0.000677523,0.482260615,0.011127409,9.777582169
1784150504.103114,0.001826987,-0.049449857,-0.003280610,-0.000029296,0.001105657,-0.000824366,0.479884624,0.039189495,9.805108070
1784150504.105085,0.001826987,-0.049449857,-0.003280610,-0.000483720,0.001530761,-0.001022809,0.491804510,0.022094414,9.793353081
1784150504.107112,0.001826946,-0.049449746,-0.003280610,-0.001435421,0.001464395,-0.000394226,0.483863652,0.033806738,9.798799515
1784150504.109058,0.001826946,-0.049449746,-0.003280610,-0.001624239,0.001301174,0.000298525,0.492286175,0.023969544,9.780812263
1784150504.111056,0.001826605,-0.049449932,-0.003280610,-0.000744473,0.001551276,0.000481926,0.484102756,0.014719894,9.773123741
1784150504.113070,0.001826605,-0.049449932,-0.003280610,-0.000069102,0.001518770,0.000343614,0.483787209,0.025908779,9.775437355
1784150504.115065,0.001826605,-0.049449932,-0.003280610,0.000087703,0.000546186,0.000002362,0.475068837,0.011930906,9.803583145
1784150504.117068,0.001826406,-0.049449109,-0.003280611,-0.000034331,-0.000320448,-0.000464115,0.488475323,0.043648902,9.792592049
1784150504.119061,0.001826406,-0.049449109,-0.003280611,-0.000642420,-0.000443092,-0.000657515,0.480787486,0.038815890,9.793000221
1784150504.121071,0.001827453,-0.049448885,-0.003280612,-0.000830238,-0.000372420,-0.000923470,0.471076667,0.014778516,9.788354874
1784150504.123075,0.001827453,-0.049448885,-0.003280612,-0.000337056,-0.000614831,-0.001262267,0.471541733,0.017333351,9.806304932
1784150504.125070,0.001827453,-0.049448885,-0.003280612,-0.000194860,-0.000824419,-0.001617916,0.470812649,-0.007568663,9.781038284
1784150504.127067,0.001825705,-0.049448404,-0.003280613,-0.000305235,-0.000722141,-0.001984233,0.494361550,0.010050819,9.781173706
1784150504.129068,0.001825705,-0.049448404,-0.003280613,-0.000259803,-0.000633314,-0.001871723,0.512927949,0.024527870,9.791147232
1784150504.131075,0.001826009,-0.049449503,-0.003280611,0.000333363,-0.000610643,-0.001789106,0.483457237,-0.000606779,9.787371635
1784150504.133071,0.001826009,-0.049449503,-0.003280611,0.000751014,-0.000182204,-0.001365611,0.494172603,-0.004814561,9.792734146
1784150504.135077,0.001826009,-0.049449503,-0.003280611,0.000111827,-0.000060897,-0.000572263,0.498177290,0.029216284,9.788473129
1784150504.137071,0.001826816,-0.049450576,-0.003280609,-0.000539219,-0.000454846,-0.000268077,0.499928266,0.025199786,9.783069611
1784150504.139075,0.001826816,-0.049450576,-0.003280609,-0.000015758,-0.000428939,0.000011004,0.496178359,0.012632923,9.792848587
1784150504.141094,0.001826527,-0.049451232,-0.003280608,0.000997095,-0.000420085,0.000738762,0.473858416,0.022340287,9.791095734
1784150504.143146,0.001826527,-0.049451232,-0.003280608,0.001098597,-0.000713424,0.001374555,0.492351770,0.030161504,9.792061806
1784150504.145092,0.001826527,-0.049451232,-0.003280608,0.000940653,-0.000724081,0.001423295,0.476374894,0.043918598,9.776440620
1784150504.147081,0.001828957,-0.049451023,-0.003280608,0.000865565,-0.000442517,0.001171648,0.465244323,0.050422817,9.763918877
1784150504.149084,0.001828957,-0.049451023,-0.003280608,0.000196969,-0.000141229,0.001060093,0.483517408,0.040700424,9.775082588
1784150504.151087,0.001830540,-0.049451061,-0.003280608,-0.000382334,-0.000082963,0.001013885,0.457445413,0.037418392,9.779519081
1784150504.153088,0.001830540,-0.049451061,-0.003280608,-0.000443174,-0.000097966,0.000908270,0.498353750,0.004366358,9.754240990
1784150504.155092,0.001830540,-0.049451061,-0.003280608,-0.000719538,0.000181262,0.000886734,0.501544714,0.009584008,9.770865440
1784150504.157093,0.001830539,-0.049451783,-0.003280607,-0.001209422,0.000512121,0.001142074,0.498933315,0.013904516,9.735024452
1784150504.159091,0.001830539,-0.049451783,-0.003280607,-0.000953679,0.000531217,0.001219512,0.478152871,0.007388785,9.806695938
1784150504.161094,0.001830236,-0.049451672,-0.003280607,-0.000114629,0.000560405,0.000573027,0.466498286,0.007630477,9.793684959
1784150504.163102,0.001830236,-0.049451672,-0.003280607,0.000027566,0.000641831,-0.000078859,0.473615885,0.039778363,9.796586990
1784150504.165138,0.001830236,-0.049451672,-0.003280607,-0.000291582,0.000145518,-0.000196482,0.479654461,0.019946245,9.802293777
1784150504.167097,0.001831122,-0.049451720,-0.003280607,-0.000311611,-0.000562309,0.000041172,0.484428763,0.005640461,9.789204597
1784150504.169096,0.001831122,-0.049451720,-0.003280607,-0.000235568,-0.001025818,0.000359149,0.493465424,-0.025491340,9.803359985
1784150504.171101,0.001829117,-0.049452487,-0.003280605,-0.000303131,-0.001037947,0.000556307,0.499042243,-0.011072951,9.781938553
1784150504.173101,0.001829117,-0.049452487,-0.003280605,-0.000129744,-0.000597212,0.000377860,0.513159871,0.004573729,9.761429787
1784150504.175103,0.001829117,-0.049452487,-0.003280605,0.000121540,-0.000404036,0.000337608,0.496250719,0.017662246,9.778534889
1784150504.177108,0.001829181,-0.049453340,-0.003280604,0.000081383,-0.000714425,0.000883075,0.479573607,0.014850156,9.826022148
1784150504.179105,0.001829181,-0.049453340,-0.003280604,-0.000001026,-0.000832193,0.001317065,0.479993582,0.010565113,9.797751427
1784150504.181103,0.001829198,-0.049453583,-0.003280604,-0.000382458,-0.000589207,0.001417922,0.493907928,0.046391685,9.775129318
1784150504.183110,0.001829198,-0.049453583,-0.003280604,-0.000967371,-0.000443111,0.001201906,0.499869943,0.021091830,9.793802261
1784150504.185138,0.001829198,-0.049453583,-0.003280604,-0.001159004,-0.000480657,0.000628919,0.476400256,0.012202631,9.826002121
1784150504.187113,0.001829162,-0.049452908,-0.003280605,-0.000789633,-0.000313956,-0.000039332,0.461317539,0.025112718,9.801860809
1784150504.189128,0.001829162,-0.049452908,-0.003280605,-0.000231369,-0.000125851,-0.000164278,0.468923479,0.023219956,9.802305222
1784150504.191123,0.001829732,-0.049452629,-0.003280605,0.000082362,0.000005653,0.000809578,0.512302279,0.046136890,9.777835846
1784150504.193124,0.001829732,-0.049452629,-0.003280605,0.000332284,0.000389653,0.001448455,0.494766116,0.005238324,9.764105797
1784150504.195121,0.001829732,-0.049452629,-0.003280605,0.000191375,0.000661627,0.000812153,0.480346650,0.000888637,9.771686554
1784150504.197120,0.001829596,-0.049452703,-0.003280605,-0.000403229,0.000505299,0.000309753,0.475799948,-0.004388073,9.765819550
1784150504.199123,0.001829596,-0.049452703,-0.003280605,-0.000786378,0.000012562,-0.000004115,0.501287878,-0.011895872,9.767588615
1784150504.201126,0.001828386,-0.049453393,-0.003280604,-0.000705492,-0.000546827,-0.000467984,0.489194363,0.027234539,9.768277168
1784150504.203130,0.001828386,-0.049453393,-0.003280604,-0.000317913,-0.000652114,-0.000767597,0.473586649,0.036305953,9.780873299
1784150504.205126,0.001828386,-0.049453393,-0.003280604,-0.000081898,0.000009430,-0.000945719,0.451605588,0.000255740,9.786448479
1784150504.207126,0.001828602,-0.049452461,-0.003280606,-0.000326547,0.000476413,-0.000841551,0.486277282,0.009283827,9.777574539
1784150504.209130,0.001828602,-0.049452461,-0.003280606,-0.000855925,0.000118312,-0.000752062,0.482182771,0.006460199,9.804003716
1784150504.211144,0.001827785,-0.049452752,-0.003280605,-0.000732663,0.000068827,-0.000829299,0.456809551,0.022168027,9.783008575
1784150504.213179,0.001827785,-0.049452752,-0.003280605,0.000065538,0.000366128,-0.000720115,0.473252058,0.009348801,9.791908264
1784150504.215137,0.001827785,-0.049452752,-0.003280605,0.000369094,-0.000044045,-0.000680614,0.482662946,0.046319198,9.805604935
1784150504.217139,0.001828931,-0.049452461,-0.003280606,0.000047465,-0.000513006,-0.001303513,0.488959074,0.046756629,9.795750618
1784150504.219137,0.001828931,-0.049452461,-0.003280606,-0.000037546,-0.000441825,-0.001826958,0.497034341,0.046236970,9.791271210
1784150504.221137,0.001829828,-0.049453467,-0.003280604,-0.000027769,-0.000287287,-0.001467473,0.494208097,0.035081986,9.789852142
1784150504.223183,0.001829828,-0.049453467,-0.003280604,-0.000330161,-0.000351916,-0.001116811,0.491986901,-0.001087662,9.776617050
1784150504.225156,0.001829828,-0.049453467,-0.003280604,-0.000277743,-0.000328060,-0.001167410,0.483211815,-0.020780927,9.789484024
1784150504.227147,0.001828737,-0.049453143,-0.003280604,0.000306614,-0.000009365,-0.001400294,0.507561028,-0.012449763,9.771177292
1784150504.229144,0.001828737,-0.049453143,-0.003280604,0.000458610,-0.000025684,-0.001662026,0.487176597,0.010908363,9.799553871
1784150504.231142,0.001828174,-0.049453393,-0.003280604,-0.000014835,-0.000465689,-0.001458869,0.494379759,0.012220677,9.791050911
1784150504.233150,0.001828174,-0.049453393,-0.003280604,-0.000137131,-0.000196648,-0.000982300,0.475708127,0.026803253,9.790229797
1784150504.235153,0.001828174,-0.049453393,-0.003280604,-0.000132081,0.000410431,-0.000325804,0.491224200,0.010929756,9.789245605
1784150504.237155,0.001828408,-0.049453381,-0.003280604,-0.000569431,0.000191689,0.000111960,0.496175468,0.010583894,9.765935898
1784150504.239151,0.001828408,-0.049453381,-0.003280604,-0.000763168,-0.000218342,-0.000003575,0.472314984,0.006615298,9.799960136
1784150504.241155,0.001827792,-0.049452581,-0.003280605,-0.000723122,-0.000447998,0.000075397,0.460779369,0.016712135,9.787013054
1784150504.243159,0.001827792,-0.049452581,-0.003280605,-0.000986836,-0.000918902,0.000257133,0.454741657,0.037767310,9.798349380
1784150504.245159,0.001827792,-0.049452581,-0.003280605,-0.001287792,-0.001314222,0.000298803,0.463015467,0.053809501,9.795770645
1784150504.247159,0.001829242,-0.049451321,-0.003280608,-0.000888633,-0.001266890,0.000332010,0.475051135,0.046544123,9.787666321
1784150504.249165,0.001829242,-0.049451321,-0.003280608,-0.000238106,-0.001398503,0.000391951,0.472293615,0.003609935,9.781559944
1784150504.251165,0.001827994,-0.049451187,-0.003280608,-0.000265614,-0.001126667,0.000057781,0.489063740,0.016477119,9.769104004
1784150504.253214,0.001827994,-0.049451187,-0.003280608,-0.000384058,0.000025718,-0.000072187,0.496807396,0.027019162,9.784871101
1784150504.255178,0.001827994,-0.049451187,-0.003280608,-0.000221696,0.000501114,0.000066173,0.484524906,0.013694226,9.790602684
1784150504.257198,0.001828787,-0.049451578,-0.003280607,0.000036825,0.000257151,-0.000684534,0.475231618,-0.013837195,9.772483826
1784150504.259173,0.001828787,-0.049451578,-0.003280607,0.000497170,0.000113599,-0.001411312,0.494474232,0.017424872,9.752079010
1784150504.261169,0.001828466,-0.049452245,-0.003280606,0.001051704,0.000379883,-0.001162119,0.495604187,0.037485778,9.764313698
1784150504.263173,0.001828466,-0.049452245,-0.003280606,0.001181863,0.000447616,-0.000458221,0.509882689,0.032212071,9.787158966
1784150504.265177,0.001828466,-0.049452245,-0.003280606,0.000391555,0.000490939,-0.000344019,0.481906831,0.019987447,9.792432785
1784150504.267171,0.001827950,-0.049452193,-0.003280606,-0.000108846,0.000721891,-0.000620629,0.484685004,0.026710529,9.787098885
1784150504.269175,0.001827950,-0.049452193,-0.003280606,-0.000084042,0.000129420,-0.000735497,0.490830421,0.050174601,9.752733231
1784150504.271174,0.001828730,-0.049452633,-0.003280605,-0.000035444,-0.000876943,-0.001075057,0.465125114,0.002571076,9.751507759
1784150504.273182,0.001828730,-0.049452633,-0.003280605,0.000383956,-0.001183113,-0.001175019,0.477023482,-0.012262307,9.799842834
1784150504.275183,0.001828730,-0.049452633,-0.003280605,0.000423295,-0.000812964,-0.000649248,0.476412237,0.011081321,9.794611931
1784150504.277184,0.001828277,-0.049452115,-0.003280606,0.000106732,-0.000596467,0.000202272,0.488566488,0.013667913,9.787018776
1784150504.279183,0.001828277,-0.049452115,-0.003280606,-0.000048641,-0.000099569,0.001149538,0.484233856,0.026697205,9.789788246
1784150504.281224,0.001828677,-0.049452264,-0.003280606,0.000239883,0.000530728,0.001408501,0.478924930,0.033441093,9.796104431
1784150504.283243,0.001828677,-0.049452264,-0.003280606,0.000501842,0.000598001,0.000836875,0.500713050,0.053784061,9.794462204
1784150504.285213,0.001828677,-0.049452264,-0.003280606,0.000348347,0.000578613,0.000437576,0.494295210,0.042659167,9.795280457
1784150504.287204,0.001829806,-0.049453244,-0.003280604,0.000214287,0.000309088,0.000740942,0.489298970,0.038191922,9.802420616
1784150504.289249,0.001829806,-0.049453244,-0.003280604,0.000330675,-0.000177000,0.000870407,0.497791708,0.034988288,9.796580315
1784150504.291205,0.001830482,-0.049453862,-0.003280603,0.000604751,0.000083581,0.000192219,0.499886751,0.022845518,9.799193382
1784150504.293208,0.001830482,-0.049453862,-0.003280603,0.000788519,0.000541688,0.000006517,0.485167295,0.030212158,9.797883034
1784150504.295207,0.001830482,-0.049453862,-0.003280603,0.000804013,0.000168857,0.000823856,0.472892821,0.014924043,9.764595985
1784150504.297208,0.001830764,-0.049453538,-0.003280604,0.000775570,-0.000548978,0.000875175,0.474980712,0.001913959,9.763170242
1784150504.299208,0.001830764,-0.049453538,-0.003280604,0.000707376,-0.000669110,-0.000114224,0.461102843,0.006396921,9.787842751
1784150504.301204,0.001830282,-0.049452942,-0.003280605,0.000428515,-0.000249180,-0.000994994,0.493008196,0.010010841,9.789240837
1784150504.303210,0.001830282,-0.049452942,-0.003280605,-0.000265809,-0.000155730,-0.001349761,0.490401894,0.017612977,9.796012878
1784150504.305213,0.001830282,-0.049452942,-0.003280605,-0.001213213,-0.000645073,-0.000926043,0.504755676,0.014960626,9.765074730
1784150504.307212,0.001829563,-0.049454398,-0.003280602,-0.001218737,-0.001137477,-0.000201847,0.485629916,0.029911069,9.776360512
1784150504.309213,0.001829563,-0.049454398,-0.003280602,-0.000313508,-0.001072462,0.000076802,0.470768124,0.027238149,9.800988197
1784150504.311214,0.001829689,-0.049453810,-0.003280603,0.000239028,-0.000949957,-0.000044889,0.470136315,0.009992809,9.769942284
1784150504.313219,0.001829689,-0.049453810,-0.003280603,0.000206690,-0.001068473,-0.000713046,0.476986736,0.020984773,9.787055016
1784150504.315217,0.001829689,-0.049453810,-0.003280603,0.000364814,-0.001031992,-0.001000248,0.470264643,0.059537821,9.796262741
1784150504.317226,0.001831832,-0.049452730,-0.003280605,0.000949932,-0.000800802,-0.000178632,0.504120350,0.039330181,9.804684639
1784150504.319222,0.001831832,-0.049452730,-0.003280605,0.000781041,-0.000517195,0.000293240,0.493626386,0.023501152,9.781258583
1784150504.321229,0.001832643,-0.049453259,-0.003280604,0.000155817,-0.000049866,0.000096094,0.515464187,0.013535630,9.820221901
1784150504.323222,0.001832643,-0.049453259,-0.003280604,0.000278343,0.000300463,0.000260330,0.499276459,0.048628896,9.828948021
1784150504.325228,0.001832643,-0.049453259,-0.003280604,0.000451586,0.000013354,0.000611759,0.480349898,0.040530812,9.804669380
1784150504.327227,0.001833821,-0.049452737,-0.003280605,0.000703786,-0.000303606,0.000614646,0.491345078,0.022420939,9.811287880
1784150504.329229,0.001833821,-0.049452737,-0.003280605,0.001259605,0.000310874,0.000062444,0.486882865,0.022268949,9.777657509
1784150504.331230,0.001833712,-0.049453150,-0.003280604,0.001740038,0.001010907,-0.000536873,0.486698359,0.007438535,9.784287453
1784150504.333228,0.001833712,-0.049453150,-0.003280604,0.002045463,0.000834839,-0.000562171,0.460240960,0.011551837,9.820603371
1784150504.335240,0.001833712,-0.049453150,-0.003280604,0.001864217,0.000153065,-0.000602377,0.471954525,0.012181004,9.773992538
1784150504.337245,0.001834007,-0.049453072,-0.003280604,0.001675625,-0.000506423,-0.000397990,0.478469849,-0.005004070,9.784647942
1784150504.339232,0.001834007,-0.049453072,-0.003280604,0.001538907,-0.000862636,0.000040426,0.481349945,0.010223907,9.780265808
1784150504.341241,0.001833447,-0.049453039,-0.003280604,0.001317610,-0.000828407,-0.000360823,0.486998349,-0.004277796,9.793179512
1784150504.343239,0.001833447,-0.049453039,-0.003280604,0.001181735,-0.000207668,-0.000992752,0.482837319,-0.013299741,9.809258461
1784150504.345245,0.001833447,-0.049453039,-0.003280604,0.000757278,0.000317937,-0.001110230,0.473485917,-0.007752602,9.802109718
1784150504.347236,0.001832452,-0.049452752,-0.003280604,0.000152255,0.000057271,-0.001398437,0.474773049,0.024085654,9.796039581
1784150504.349246,0.001832452,-0.049452752,-0.003280604,-0.000002283,-0.000406028,-0.001555306,0.472967267,0.021996031,9.778090477
1784150504.351249,0.001832224,-0.049452174,-0.003280605,0.000126038,-0.000153599,-0.001431240,0.493645638,0.025273919,9.783961296
1784150504.353253,0.001832224,-0.049452174,-0.003280605,0.000023525,0.000337286,-0.001158942,0.482156485,0.039789945,9.779560089
1784150504.355249,0.001832224,-0.049452174,-0.003280605,-0.000199883,0.000353513,-0.000800248,0.487230480,0.050544545,9.770216942
1784150504.357253,0.001833618,-0.049452391,-0.003280605,-0.000562977,0.000188720,-0.000738815,0.491405576,0.027761500,9.816253662
1784150504.359252,0.001833618,-0.049452391,-0.003280605,-0.001172274,-0.000018383,-0.000568733,0.510770798,0.031317368,9.785360336
1784150504.361255,0.001834391,-0.049453080,-0.003280604,-0.001234958,0.000005520,-0.000262731,0.492274642,0.023473883,9.787533760
1784150504.363252,0.001834391,-0.049453080,-0.003280604,-0.000860034,0.000485602,0.000089796,0.470494419,0.002787882,9.774379730
1784150504.365262,0.001834391,-0.049453080,-0.003280604,-0.000788962,0.000531861,0.000290441,0.464654177,0.001185252,9.758222580
1784150504.367255,0.001833777,-0.049452633,-0.003280605,-0.000576831,0.000225277,-0.000124638,0.489308000,0.001078530,9.791870117
1784150504.369260,0.001833777,-0.049452633,-0.003280605,0.000047897,-0.000002803,-0.000480454,0.492317438,0.025837697,9.770064354
1784150504.371258,0.001834018,-0.049451828,-0.003280606,0.000211219,-0.000242235,-0.000018462,0.471508354,0.013422525,9.789242744
1784150504.373270,0.001834018,-0.049451828,-0.003280606,-0.000079281,0.000181509,0.000356881,0.476940662,0.017378829,9.790169716
1784150504.375275,0.001834018,-0.049451828,-0.003280606,0.000270874,0.000575026,0.000487264,0.462473452,0.007383702,9.772607803
1784150504.377269,0.001832939,-0.049450785,-0.003280608,0.000787679,0.000082146,0.001029615,0.472400218,0.011746369,9.771299362
1784150504.379272,0.001832939,-0.049450785,-0.003280608,0.000840562,-0.000233773,0.000828729,0.479898304,0.039297611,9.789864540
1784150504.381269,0.001834087,-0.049450256,-0.003280609,0.000886801,0.000115739,0.000071865,0.492907435,0.039105441,9.793462753
1784150504.383289,0.001834087,-0.049450256,-0.003280609,0.000793582,0.000405839,-0.000172625,0.489072174,0.056970697,9.808368683
1784150504.385315,0.001834087,-0.049450256,-0.003280609,0.000437532,0.000693164,-0.000495182,0.486903518,0.023647806,9.772734642
1784150504.387282,0.001834370,-0.049450569,-0.003280608,0.000231956,0.000900789,-0.000549568,0.476465613,0.013934431,9.771318436
1784150504.389332,0.001834370,-0.049450569,-0.003280608,0.000201708,0.000560237,0.000148387,0.463708133,0.036781840,9.794766426
1784150504.391292,0.001835398,-0.049449615,-0.003280610,0.000321015,0.000022195,0.000727656,0.487759292,0.020065337,9.770919800
1784150504.393296,0.001835398,-0.049449615,-0.003280610,0.000268237,-0.000040618,0.000555549,0.500028968,-0.003084743,9.790957451
1784150504.395287,0.001835398,-0.049449615,-0.003280610,-0.000000672,0.000295308,0.000233362,0.508893728,0.025421487,9.798770905
1784150504.397288,0.001835492,-0.049450837,-0.003280608,0.000056000,0.000518419,0.000143347,0.494513541,0.023003539,9.786637306
1784150504.399291,0.001835492,-0.049450837,-0.003280608,0.000531752,0.000677707,-0.000156229,0.460565269,0.035996113,9.784893990
1784150504.401292,0.001836663,-0.049449462,-0.003280611,0.001204541,0.000862226,-0.000373567,0.456928492,0.032833245,9.795181274
1784150504.403294,0.001836663,-0.049449462,-0.003280611,0.001477447,0.001068329,-0.000098598,0.471711367,0.029209277,9.774101257
1784150504.405294,0.001836663,-0.049449462,-0.003280611,0.001295681,0.001150249,0.000154885,0.467733502,0.034601569,9.779063225
1784150504.407297,0.001837317,-0.049448770,-0.003280612,0.000835781,0.000980685,0.000139177,0.476527661,0.019287709,9.774490356
1784150504.409297,0.001837317,-0.049448770,-0.003280612,0.000227002,0.000678570,0.000379029,0.509643435,0.009655401,9.746215820
1784150504.411301,0.001837088,-0.049450140,-0.003280609,-0.000310024,0.000153947,0.000479706,0.490174025,-0.002827899,9.772568703
1784150504.413305,0.001837088,-0.049450140,-0.003280609,-0.000498054,-0.000026902,-0.000348097,0.467847675,0.006828595,9.777989388
1784150504.415347,0.001837088,-0.049450140,-0.003280609,-0.000177159,0.000446506,-0.000640163,0.483968407,0.004743924,9.790097237
1784150504.417312,0.001835686,-0.049450312,-0.003280609,-0.000034724,0.000877490,-0.000058316,0.472751111,0.042074177,9.790324211
1784150504.419302,0.001835686,-0.049450312,-0.003280609,-0.000310798,0.001090102,-0.000050807,0.471471697,0.010296338,9.787877083
1784150504.421322,0.001835734,-0.049449522,-0.003280610,-0.000822836,0.000871687,-0.000264532,0.483289957,0.023099575,9.793351173
1784150504.423316,0.001835734,-0.049449522,-0.003280610,-0.001161341,0.000637991,-0.000059553,0.510690987,0.023797413,9.771862984
1784150504.425310,0.001835734,-0.049449522,-0.003280610,-0.000752554,0.000874771,0.000075030,0.486174196,0.040386118,9.814536095
1784150504.427305,0.001836774,-0.049449243,-0.003280611,-0.000130108,0.000936764,0.000010506,0.483507186,0.040214308,9.780459404
1784150504.429310,0.001836774,-0.049449243,-0.003280611,0.000227633,0.000531870,0.000141359,0.468720645,0.042592958,9.787634850
1784150504.431386,0.001838967,-0.049448859,-0.003280611,0.000273371,0.000454552,0.000345866,0.514528215,0.046374861,9.803393364
1784150504.433321,0.001838967,-0.049448859,-0.003280611,-0.000118743,0.001212004,0.000625068,0.513068855,0.036581486,9.797052383
1784150504.435318,0.001838967,-0.049448859,-0.003280611,-0.000606083,0.001513764,0.000862854,0.503584206,0.030135423,9.775483131
1784150504.437354,0.001839700,-0.049449287,-0.003280611,-0.000895479,0.001033240,0.000653193,0.470363021,0.029614061,9.782620430
1784150504.439331,0.001839700,-0.049449287,-0.003280611,-0.000745968,0.000501078,0.000211186,0.468914896,0.021126416,9.781668663
1784150504.441327,0.001840049,-0.049448628,-0.003280612,-0.000129358,0.000251701,-0.000073131,0.477025896,-0.012243229,9.797153473
1784150504.443324,0.001840049,-0.049448628,-0.003280612,0.000862304,0.000029403,-0.000478187,0.476378083,0.006354068,9.766337395
1784150504.445323,0.001840049,-0.049448628,-0.003280612,0.001399420,-0.000492074,-0.000522838,0.462004125,0.006010592,9.777529716
1784150504.447323,0.001839157,-0.049447749,-0.003280613,0.001248885,-0.000794678,-0.000465538,0.475171298,0.019628916,9.791975975
1784150504.449330,0.001839157,-0.049447749,-0.003280613,0.001287476,-0.000779965,-0.000873544,0.507882059,-0.021973982,9.786808968
1784150504.451329,0.001836105,-0.049449351,-0.003280610,0.001802885,-0.000829162,-0.001062021,0.509617209,0.011068868,9.799575806
1784150504.453334,0.001836105,-0.049449351,-0.003280610,0.002230403,-0.000993661,-0.000856975,0.494390965,0.013119778,9.790606499
1784150504.455335,0.001836105,-0.049449351,-0.003280610,0.001894800,-0.000746758,-0.000670481,0.500476897,-0.003906921,9.779745102
1784150504.457340,0.001834484,-0.049449846,-0.003280609,0.001490418,-0.000277955,-0.000406905,0.490360230,0.014042007,9.794197083
1784150504.459332,0.001834484,-0.049449846,-0.003280609,0.001641722,-0.000359322,0.000451378,0.496418923,0.032768913,9.796115875
1784150504.461338,0.001835928,-0.049450565,-0.003280608,0.001225652,-0.000523021,0.001418194,0.500561297,0.040427901,9.782718658
1784150504.463340,0.001835928,-0.049450565,-0.003280608,0.000332174,-0.000234945,0.001311509,0.460122138,0.036856446,9.790726662
1784150504.465370,0.001835928,-0.049450565,-0.003280608,-0.000336922,-0.000130226,0.000799932,0.488294363,0.029657181,9.807296753
1784150504.467349,0.001836263,-0.049449675,-0.003280609,-0.000827972,-0.000255655,0.001039885,0.469790339,0.056909855,9.788623810
1784150504.469343,0.001836263,-0.049449675,-0.003280609,-0.000605272,-0.000260967,0.000837003,0.473522812,0.032560110,9.803713799
1784150504.471344,0.001836863,-0.049449518,-0.003280610,0.000228438,-0.000248101,-0.000284433,0.496536583,0.003807854,9.773065567
1784150504.473348,0.001836863,-0.049449518,-0.003280610,0.000524215,-0.000648686,-0.001212477,0.481497496,0.021924952,9.772719383
1784150504.475525,0.001836863,-0.049449518,-0.003280610,-0.000239523,-0.001164935,-0.001728887,0.489870489,0.010076518,9.785653114
1784150504.477422,0.001836738,-0.049450487,-0.003280608,-0.001116735,-0.001070797,-0.001904407,0.453240722,0.024809575,9.796023369
1784150504.479383,0.001836738,-0.049450487,-0.003280608,-0.001012749,-0.000725674,-0.001469943,0.456369519,0.022647176,9.779423714
1784150504.481379,0.001837399,-0.049449012,-0.003280611,-0.000143521,-0.000645467,-0.001044824,0.472329974,0.007949645,9.801313400
1784150504.483381,0.001837399,-0.049449012,-0.003280611,0.000075007,-0.000579688,-0.001205093,0.478148520,0.006543739,9.799516678
1784150504.485368,0.001837399,-0.049449012,-0.003280611,0.000055467,-0.000367074,-0.001447577,0.484496504,0.011038257,9.786101341
1784150504.487367,0.001836284,-0.049448486,-0.003280612,0.000399655,-0.000469146,-0.001444568,0.499265999,0.007309357,9.779814720
1784150504.489377,0.001836284,-0.049448486,-0.003280612,0.000663077,-0.000959948,-0.001065588,0.483880311,-0.002436170,9.791843414
1784150504.491371,0.001835346,-0.049448401,-0.003280612,0.000617409,-0.001478915,-0.000465850,0.482609808,0.004662606,9.803992271
1784150504.493374,0.001835346,-0.049448401,-0.003280612,0.000844659,-0.001210819,-0.000187399,0.491160125,0.043150548,9.794833183
1784150504.495376,0.001835346,-0.049448401,-0.003280612,0.001072787,-0.000312338,-0.000287414,0.488061994,0.009991412,9.800893784
1784150504.497375,0.001834985,-0.049448822,-0.003280611,0.000493521,-0.000010526,-0.000237060,0.459965676,0.023868745,9.790196419
1784150504.499368,0.001834985,-0.049448822,-0.003280611,0.000115672,-0.000586973,0.000427068,0.489201277,0.029315371,9.790705681
1784150504.501385,0.001835519,-0.049449317,-0.003280610,0.000164477,-0.001136397,0.000910673,0.483029574,0.001591085,9.794109344
1784150504.503391,0.001835519,-0.049449317,-0.003280610,0.000157318,-0.000561685,0.000853146,0.473260731,0.009012130,9.776214600
1784150504.505385,0.001835519,-0.049449317,-0.003280610,0.000535603,0.000230172,0.000922237,0.477542132,-0.007257814,9.788219452
1784150504.507377,0.001835311,-0.049448900,-0.003280611,0.001494275,0.000352120,0.000573981,0.508428454,0.021649949,9.762879372
1784150504.509377,0.001835311,-0.049448900,-0.003280611,0.002030055,0.000320481,-0.000294412,0.520674169,-0.004121127,9.773486137
1784150504.511378,0.001834279,-0.049450919,-0.003280608,0.001752056,0.000428750,-0.000620476,0.486358136,0.015189989,9.765954971
1784150504.513382,0.001834279,-0.049450919,-0.003280608,0.001354560,0.000974715,-0.000368318,0.493883997,0.007397419,9.777121544
1784150504.515393,0.001834279,-0.049450919,-0.003280608,0.001260631,0.001169577,0.000265851,0.472768307,0.008267846,9.818800926
1784150504.517393,0.001834069,-0.049450926,-0.003280608,0.001035960,0.000268489,0.000848140,0.447104841,0.035768323,9.778155327
1784150504.519386,0.001834069,-0.049450926,-0.003280608,0.000815974,-0.000672668,0.000837413,0.496892929,0.034583628,9.792092323
1784150504.521391,0.001834915,-0.049451876,-0.003280605,0.001203836,-0.000807001,0.000959903,0.509306788,0.021082377,9.778120995
1784150504.523389,0.001834915,-0.049451876,-0.003280605,0.001546216,-0.000366195,0.001160542,0.503336430,0.009132127,9.768174171
1784150504.525394,0.001834915,-0.049451876,-0.003280605,0.000893232,-0.000031358,0.000655484,0.497056484,0.011658731,9.802258492
1784150504.527388,0.001834765,-0.049452249,-0.003280605,-0.000273957,-0.000228960,0.000121529,0.485420763,0.012859940,9.780284882
1784150504.529394,0.001834765,-0.049452249,-0.003280605,-0.000927472,-0.000502909,0.000039018,0.465338767,0.021683961,9.772702217
1784150504.531393,0.001834568,-0.049451549,-0.003280606,-0.001056536,-0.000312229,0.000306567,0.447968811,-0.004933896,9.766685486
1784150504.533397,0.001834568,-0.049451549,-0.003280606,-0.001437577,0.000115547,0.000863664,0.468006134,0.019832185,9.776278496
1784150504.535394,0.001834568,-0.049451549,-0.003280606,-0.001967684,0.000378892,0.000781434,0.483424157,0.034695689,9.800600052
1784150504.537398,0.001834947,-0.049451437,-0.003280606,-0.001919394,0.000602492,0.000650190,0.485193819,0.031232085,9.780403137
1784150504.539407,0.001834947,-0.049451437,-0.003280606,-0.001362519,0.000718114,0.001475788,0.506291866,0.031438448,9.776391029
1784150504.541406,0.001835405,-0.049452692,-0.003280604,-0.000960676,0.000460068,0.002129470,0.483484536,0.038819548,9.787623405
1784150504.543404,0.001835405,-0.049452692,-0.003280604,-0.000687030,0.000042173,0.001972546,0.475713164,0.026437962,9.778571129
1784150504.545407,0.001835405,-0.049452692,-0.003280604,-0.000212938,-0.000011129,0.001517079,0.476532489,0.057725903,9.787738800
1784150504.547415,0.001837766,-0.049451970,-0.003280605,0.000065143,0.000383633,0.001043171,0.481264174,0.039436162,9.767898560
1784150504.549411,0.001837766,-0.049451970,-0.003280605,-0.000003078,0.000710131,0.000697721,0.504729927,0.014757133,9.793766975
1784150504.551414,0.001837483,-0.049453143,-0.003280603,0.000069056,0.000549579,0.000624556,0.493902445,0.009163827,9.780719757
1784150504.553414,0.001837483,-0.049453143,-0.003280603,0.000186145,-0.000235488,0.000802309,0.476659834,0.030867931,9.783980370
1784150504.555413,0.001837483,-0.049453143,-0.003280603,0.000253796,-0.000771101,0.000913923,0.483573109,0.010439626,9.808962822
1784150504.557415,0.001837263,-0.049453016,-0.003280603,0.000453933,-0.000674503,0.000601045,0.488382041,0.034807332,9.775946617
1784150504.559416,0.001837263,-0.049453016,-0.003280603,0.000724316,-0.000838026,0.000137338,0.488285244,0.027153829,9.781277657
1784150504.561418,0.001838185,-0.049453400,-0.003280603,0.000757339,-0.001046043,-0.000092913,0.508455157,0.025913341,9.793394089
1784150504.563421,0.001838185,-0.049453400,-0.003280603,0.000334091,-0.000760778,-0.000258925,0.510429323,0.040679421,9.792593956
1784150504.565424,0.001838185,-0.049453400,-0.003280603,-0.000190303,-0.000495864,-0.000506251,0.473053306,0.030780375,9.802804947
1784150504.567422,0.001839033,-0.049453586,-0.003280602,-0.000322329,-0.000523554,-0.000362326,0.460251391,0.009607741,9.778895378
1784150504.569427,0.001839033,-0.049453586,-0.003280602,0.000071148,-0.000335119,0.000087448,0.475763470,-0.007107629,9.770284653
1784150504.571432,0.001837253,-0.049453590,-0.003280602,0.000520745,-0.000251497,0.000072078,0.484202027,0.023609163,9.783043861
1784150504.573434,0.001837253,-0.049453590,-0.003280602,0.000808041,-0.000585575,-0.000031642,0.500853479,-0.007318669,9.817831993
1784150504.575427,0.001837253,-0.049453590,-0.003280602,0.001034913,-0.000847911,0.000019084,0.474240333,0.018159799,9.811244011
1784150504.577429,0.001836754,-0.049452264,-0.003280605,0.001293921,-0.000821493,-0.000357793,0.457720786,0.023481328,9.785708427
1784150504.579428,0.001836754,-0.049452264,-0.003280605,0.001628085,-0.000679151,-0.000414806,0.492894500,0.036976926,9.777757645
1784150504.581432,0.001837718,-0.049452975,-0.003280603,0.001833256,-0.000632915,0.000175093,0.494099975,0.025312686,9.777684212
1784150504.583436,0.001837718,-0.049452975,-0.003280603,0.001225188,-0.000428962,0.000586522,0.489060879,0.016454862,9.772242546
1784150504.585440,0.001837718,-0.049452975,-0.003280603,0.000383130,-0.000454523,0.000631914,0.483464748,0.036636978,9.779540062
1784150504.587435,0.001838118,-0.049452942,-0.003280604,0.000129255,-0.000832245,-0.000112676,0.473223925,0.043069281,9.775536537
1784150504.589460,0.001838118,-0.049452942,-0.003280604,-0.000197898,-0.000959672,-0.001015541,0.488131016,0.052178632,9.790853500
1784150504.591449,0.001840553,-0.049453758,-0.003280602,-0.000559208,-0.000604515,-0.001129413,0.460862398,0.025067596,9.809033394
1784150504.593450,0.001840553,-0.049453758,-0.003280602,-0.000223375,-0.000101033,-0.001083691,0.451769620,0.014113916,9.790573120
1784150504.595446,0.001840553,-0.049453758,-0.003280602,0.000400076,0.000119442,-0.001339424,0.480339170,0.001234847,9.786035538
1784150504.597448,0.001839908,-0.049452636,-0.003280604,0.000603289,0.000445751,-0.001687665,0.503874302,-0.018843738,9.794896126
1784150504.599454,0.001839908,-0.049452636,-0.003280604,0.000172983,0.000742701,-0.001779478,0.503230929,0.002625372,9.801308632
1784150504.601454,0.001839254,-0.049453918,-0.003280601,-0.000758373,0.000695036,-0.001740504,0.500036836,-0.002617709,9.788271904
1784150504.603454,0.001839254,-0.049453918,-0.003280601,-0.001129639,0.000691670,-0.001494827,0.506536245,0.015229794,9.787045479
1784150504.605454,0.001839254,-0.049453918,-0.003280601,-0.001112156,0.000665236,-0.000846184,0.470851123,0.033566840,9.792958260
1784150504.607459,0.001840251,-0.049453493,-0.003280602,-0.001443879,0.000507249,-0.000627699,0.466609329,0.015801890,9.778492928
1784150504.609461,0.001840251,-0.049453493,-0.003280602,-0.001523230,0.000231846,-0.001028777,0.496725798,0.021106640,9.797386169
1784150504.611473,0.001840773,-0.049453989,-0.003280601,-0.001402561,-0.000134139,-0.001086922,0.502361834,0.004886219,9.799978256
1784150504.613466,0.001840773,-0.049453989,-0.003280601,-0.001821033,-0.000238172,-0.000334899,0.512900293,0.022688329,9.797860146
1784150504.615472,0.001840773,-0.049453989,-0.003280601,-0.001781404,-0.000192675,0.000376631,0.495511085,0.031887669,9.795660973
1784150504.617475,0.001841228,-0.049454406,-0.003280601,-0.001010347,-0.000217658,0.000264015,0.484363705,0.037448268,9.789856911
1784150504.619464,0.001841228,-0.049454406,-0.003280601,-0.000590154,-0.000016349,-0.000141958,0.492841780,0.032913476,9.782215118
1784150504.621467,0.001841987,-0.049455315,-0.003280599,-0.000569656,0.000475255,-0.000418186,0.495545119,0.035398226,9.805996895
1784150504.623469,0.001841987,-0.049455315,-0.003280599,-0.000831287,0.000402614,-0.000333426,0.484876752,0.006845048,9.808043480
1784150504.625468,0.001841987,-0.049455315,-0.003280599,-0.000861270,0.000185087,-0.000127926,0.465171039,0.008607241,9.784723282
1784150504.627469,0.001841429,-0.049453236,-0.003280602,-0.000535058,0.000489519,0.000241532,0.509498477,-0.000809870,9.769013405
1784150504.629474,0.001841429,-0.049453236,-0.003280602,-0.000407841,0.000532493,0.000509507,0.503404438,0.014126475,9.758791924
1784150504.631473,0.001841326,-0.049454443,-0.003280601,-0.000100138,0.000259036,0.000125709,0.503579199,0.030500708,9.787140846
1784150504.633480,0.001841326,-0.049454443,-0.003280601,0.000905266,0.000393718,-0.000204937,0.474748433,0.023891695,9.823386192
1784150504.635482,0.001841326,-0.049454443,-0.003280601,0.001604026,0.000656070,-0.000751828,0.492175907,0.015804498,9.795105934
1784150504.637484,0.001841228,-0.049455225,-0.003280599,0.001351132,0.000708755,-0.000718972,0.469236642,0.010391863,9.778461456
1784150504.639500,0.001841228,-0.049455225,-0.003280599,0.000787684,0.001014904,0.000334807,0.488841504,-0.001082394,9.781544685
1784150504.641489,0.001840346,-0.049455758,-0.003280598,0.000254085,0.001563022,0.001140192,0.483054698,0.002194848,9.772145271
1784150504.643486,0.001840346,-0.049455758,-0.003280598,0.000132960,0.001565224,0.001436291,0.502131402,0.023636382,9.809960365
1784150504.645489,0.001840346,-0.049455758,-0.003280598,0.000093893,0.001028313,0.001324141,0.492856532,0.070214465,9.766315460
1784150504.647488,0.001842233,-0.049456161,-0.003280597,-0.000239746,0.000751011,0.000827399,0.484553635,0.052726638,9.783230782
1784150504.649492,0.001842233,-0.049456161,-0.003280597,-0.000142172,0.000240447,0.000283831,0.465154350,0.008070251,9.797271729
1784150504.651495,0.001841393,-0.049455337,-0.003280598,-0.000237661,-0.000419566,0.000192859,0.460808635,0.019374464,9.790616989
1784150504.653495,0.001841393,-0.049455337,-0.003280598,-0.000734241,-0.000248135,0.000183698,0.479936063,0.005653436,9.795477867
1784150504.655497,0.001841393,-0.049455337,-0.003280598,-0.000853791,0.000469994,-0.000126167,0.493478924,0.012610178,9.800915718
1784150504.657498,0.001841032,-0.049455401,-0.003280598,-0.000416171,0.001041041,-0.000278592,0.495009094,0.028230239,9.806845665
1784150504.659496,0.001841032,-0.049455401,-0.003280598,0.000318606,0.001505448,-0.000208184,0.480515033,0.016401934,9.795100212
1784150504.661500,0.001840884,-0.049455307,-0.003280598,0.000416232,0.001506387,-0.000141415,0.481166512,-0.005003591,9.779719353
1784150504.663483,0.001840884,-0.049455307,-0.003280598,-0.000097275,0.000990292,0.000083935,0.483220041,-0.020310706,9.786347389
1784150504.665507,0.001840884,-0.049455307,-0.003280598,-0.000179878,0.000721830,-0.000184081,0.485747457,0.002570152,9.777529716
1784150504.667503,0.001840146,-0.049455527,-0.003280598,0.000029166,0.000290805,-0.000614885,0.480229259,0.028636178,9.776347160
1784150504.669507,0.001840146,-0.049455527,-0.003280598,0.000067407,-0.000438711,-0.000479923,0.477823555,0.017252859,9.806310654
1784150504.671508,0.001839612,-0.049456075,-0.003280597,0.000349720,-0.000864462,-0.000452818,0.509640336,0.010846662,9.767743111
1784150504.673517,0.001839612,-0.049456075,-0.003280597,0.000268579,-0.000885198,-0.000161139,0.521732628,0.011323438,9.804969788
1784150504.675513,0.001839612,-0.049456075,-0.003280597,-0.000440803,-0.000769290,0.000375976,0.484355152,0.036164798,9.781331062
1784150504.677517,0.001839946,-0.049457021,-0.003280595,-0.000958424,-0.000809510,0.000549941,0.464793324,0.051626194,9.784550667
1784150504.679516,0.001839946,-0.049457021,-0.003280595,-0.000956641,-0.000932448,0.000604545,0.455496669,0.025689472,9.794238091
1784150504.681529,0.001840180,-0.049455158,-0.003280598,-0.000192608,-0.000759026,0.000448431,0.467675686,0.028876651,9.765128136
1784150504.683532,0.001840180,-0.049455158,-0.003280598,0.000228381,0.000144399,0.000068041,0.487381428,0.026304383,9.776339531
1784150504.685541,0.001840180,-0.049455158,-0.003280598,0.000013063,0.000989041,-0.000353274,0.481176376,0.032259237,9.769198418
1784150504.687531,0.001839838,-0.049455341,-0.003280598,0.000175137,0.000989274,-0.000717274,0.487882048,0.030355727,9.772779465
1784150504.689555,0.001839838,-0.049455341,-0.003280598,0.000398974,0.000718869,-0.001074042,0.470655084,0.016214004,9.776257515
1784150504.691545,0.001840188,-0.049453840,-0.003280601,0.000400818,0.000684949,-0.001224980,0.484625965,0.020976068,9.774509430
1784150504.693540,0.001840188,-0.049453840,-0.003280601,0.000452800,0.000440493,-0.000812579,0.496232599,0.017519161,9.798707008
1784150504.695542,0.001840188,-0.049453840,-0.003280601,0.000505866,0.000062372,-0.000206359,0.504030287,0.030514043,9.784451485
1784150504.697540,0.001840951,-0.049456317,-0.003280597,0.000041724,0.000151102,0.000435067,0.471754014,-0.005206813,9.762223244
1784150504.699542,0.001840951,-0.049456317,-0.003280597,-0.000491608,0.000489715,0.000596674,0.452532560,0.000882977,9.759554863
1784150504.701545,0.001840088,-0.049454831,-0.003280599,-0.000773522,0.000555471,0.000677461,0.449017256,0.007594335,9.767216682
1784150504.703544,0.001840088,-0.049454831,-0.003280599,-0.000494742,0.000377958,0.001421795,0.483243376,0.018273752,9.778973579
1784150504.705550,0.001840088,-0.049454831,-0.003280599,0.000867547,0.000416577,0.001894606,0.515418768,0.042255782,9.750913620
1784150504.707549,0.001840537,-0.049456079,-0.003280597,0.002045674,0.000752789,0.001573137,0.484286040,0.030350847,9.779949188
1784150504.709553,0.001840537,-0.049456079,-0.003280597,0.001964646,0.001132509,0.001554832,0.474869996,0.032145776,9.796539307
1784150504.711554,0.001841260,-0.049455766,-0.003280598,0.001249519,0.001017789,0.001935413,0.472537309,0.024581438,9.793350220
1784150504.713552,0.001841260,-0.049455766,-0.003280598,0.000794963,0.000270851,0.001667518,0.484946042,0.013065632,9.815256119
1784150504.715557,0.001841260,-0.049455766,-0.003280598,0.000663893,-0.000359904,0.000569604,0.471071661,0.014333736,9.787902832
1784150504.717559,0.001841221,-0.049454719,-0.003280599,0.000829408,-0.000207034,-0.000749891,0.505575478,0.009878476,9.785219193
1784150504.719556,0.001841221,-0.049454719,-0.003280599,0.000661166,0.000066116,-0.001169133,0.498059779,0.018967226,9.780786514
1784150504.721560,0.001840919,-0.049455252,-0.003280598,0.000026013,-0.000270673,-0.001261723,0.486795783,0.014691762,9.772228241
1784150504.723565,0.001840919,-0.049455252,-0.003280598,-0.000745035,-0.000585247,-0.001239791,0.519931793,0.009271975,9.781641960
1784150504.725564,0.001840919,-0.049455252,-0.003280598,-0.001634050,-0.000868200,-0.000683080,0.499077171,0.029223863,9.785783768
1784150504.727562,0.001841496,-0.049456522,-0.003280596,-0.001470220,-0.001245956,-0.000132773,0.491599530,0.043071669,9.805144310
1784150504.729569,0.001841496,-0.049456522,-0.003280596,-0.000099087,-0.001191111,0.000019221,0.483753204,0.025235059,9.807263374
1784150504.731563,0.001841437,-0.049456131,-0.003280597,0.000289644,-0.000765377,-0.000067442,0.498483688,0.018360896,9.802302361
1784150504.733571,0.001841437,-0.049456131,-0.003280597,-0.000801569,-0.000388852,0.000264751,0.466021806,0.044196717,9.819025040
1784150504.735591,0.001841437,-0.049456131,-0.003280597,-0.001285064,0.000260067,0.000509331,0.481688023,0.037613131,9.771474838
1784150504.737582,0.001842279,-0.049455658,-0.003280598,-0.001451552,0.001163441,0.000581890,0.489037722,0.016677069,9.804075241
1784150504.739574,0.001842279,-0.049455658,-0.003280598,-0.001665682,0.001623774,0.000759861,0.466289878,0.026148895,9.773179054
1784150504.741575,0.001843030,-0.049454343,-0.003280600,-0.001265631,0.001486808,0.000616986,0.455723077,0.006097439,9.776627541
1784150504.743577,0.001843030,-0.049454343,-0.003280600,-0.001081872,0.001442742,0.000422783,0.469608188,0.004508559,9.786045074
1784150504.745579,0.001843030,-0.049454343,-0.003280600,-0.001123274,0.001899172,0.000175441,0.496731162,0.019527828,9.767338753
1784150504.747581,0.001842986,-0.049454555,-0.003280600,-0.000562126,0.001774215,0.000174163,0.474353582,-0.010836234,9.793124199
1784150504.749580,0.001842986,-0.049454555,-0.003280600,0.000488964,0.000936853,0.000404769,0.455448836,0.018017268,9.739043236
1784150504.751579,0.001843351,-0.049453359,-0.003280602,0.000674641,0.000101765,0.000137343,0.487284124,0.018241087,9.776288033
1784150504.753589,0.001843351,-0.049453359,-0.003280602,0.000431148,-0.000395173,0.000050857,0.467207789,0.029136391,9.792478561
1784150504.755587,0.001843351,-0.049453359,-0.003280602,0.000820659,-0.000169325,-0.000007972,0.488743007,0.027624659,9.777246475
1784150504.757591,0.001843449,-0.049453549,-0.003280602,0.000799165,0.000196374,-0.000032141,0.481221944,0.038292225,9.802862167
1784150504.759592,0.001843449,-0.049453549,-0.003280602,0.000322921,-0.000166762,0.000686138,0.462836474,0.037806906,9.778183937
1784150504.761590,0.001844035,-0.049452480,-0.003280604,-0.000281655,-0.000842616,0.001224747,0.464555025,0.033129409,9.802812576
1784150504.763617,0.001844035,-0.049452480,-0.003280604,-0.000570144,-0.000845427,0.000771652,0.479773879,0.028994501,9.789799690
1784150504.765640,0.001844035,-0.049452480,-0.003280604,-0.000050889,-0.000454376,-0.000367406,0.491405129,0.025731549,9.786649704
1784150504.767613,0.001843878,-0.049452893,-0.003280602,0.000468960,-0.000336340,-0.000656347,0.508524537,0.031323858,9.788496017
1784150504.769609,0.001843878,-0.049452893,-0.003280602,0.000319872,-0.000376078,0.000016161,0.472479850,0.019669767,9.791077614
1784150504.771599,0.001844017,-0.049451854,-0.003280604,-0.000310978,-0.000271631,0.000217161,0.479543924,0.010157877,9.792816162
1784150504.773606,0.001844017,-0.049451854,-0.003280604,-0.000427188,-0.000287137,0.000020638,0.460308075,0.014513050,9.782065392
1784150504.775609,0.001844017,-0.049451854,-0.003280604,0.000028062,-0.000415569,0.000419233,0.469585717,0.038273554,9.763397217
1784150504.777606,0.001843821,-0.049450696,-0.003280607,0.000364624,-0.000094095,0.000531407,0.473015279,0.027238021,9.796955109
1784150504.779605,0.001843821,-0.049450696,-0.003280607,0.000234455,0.000382670,-0.000126244,0.458611578,0.023012338,9.787050247
1784150504.781608,0.001844159,-0.049448770,-0.003280611,-0.000406416,0.000534011,0.000024518,0.490474522,0.022238852,9.775419235
1784150504.783607,0.001844159,-0.049448770,-0.003280611,-0.000390169,0.000241190,0.000439749,0.510819137,0.035345837,9.785834312
1784150504.785620,0.001844159,-0.049448770,-0.003280611,0.000415949,-0.000263810,-0.000052403,0.503125489,0.030061685,9.786690712
1784150504.787613,0.001844247,-0.049450476,-0.003280608,0.001078981,-0.000308640,-0.000390958,0.495450735,0.024926968,9.766473770
1784150504.789626,0.001844247,-0.049450476,-0.003280608,0.001039725,-0.000050446,-0.000185505,0.477327198,0.010803107,9.769057274
1784150504.791613,0.001843679,-0.049449481,-0.003280609,0.000015098,-0.000048388,-0.000237025,0.489008307,0.013608111,9.794640541
1784150504.793621,0.001843679,-0.049449481,-0.003280609,-0.001022637,-0.000258964,-0.000402563,0.484567344,0.015244788,9.761470795
1784150504.795623,0.001843679,-0.049449481,-0.003280609,-0.001292619,-0.000580595,-0.000360855,0.480074465,0.014851135,9.761912346
1784150504.797628,0.001843533,-0.049448729,-0.003280611,-0.001558737,-0.000474268,0.000014301,0.529017329,0.019358344,9.796061516
1784150504.799628,0.001843533,-0.049448729,-0.003280611,-0.002149567,-0.000285532,0.000450054,0.497556746,0.014086745,9.774925232
1784150504.801625,0.001843215,-0.049449384,-0.003280610,-0.002237900,-0.000435398,0.000062417,0.485109687,-0.013506180,9.771150589
1784150504.803633,0.001843215,-0.049449384,-0.003280610,-0.001702641,-0.000333389,-0.000488620,0.489853889,0.008729460,9.786091805
1784150504.805630,0.001843215,-0.049449384,-0.003280610,-0.000986548,-0.000085701,-0.000383110,0.486158371,0.037018649,9.784028053
1784150504.807632,0.001843967,-0.049449589,-0.003280609,-0.000375894,0.000002675,-0.000126100,0.498972595,0.020293258,9.781691551
1784150504.809650,0.001843967,-0.049449589,-0.003280609,-0.000292951,0.000052627,0.000114628,0.467609316,0.023895020,9.772719383
1784150504.811649,0.001844495,-0.049448822,-0.003280611,-0.000488130,-0.000107104,0.000432913,0.475854605,0.038901389,9.789858818
1784150504.813651,0.001844495,-0.049448822,-0.003280611,-0.000017241,-0.000461741,0.000285338,0.477084100,0.029048076,9.787106514
1784150504.815641,0.001844495,-0.049448822,-0.003280611,0.000815823,-0.000563050,0.000125329,0.469636202,0.007161348,9.790993690
1784150504.817644,0.001843981,-0.049448691,-0.003280611,0.000848168,-0.000182891,0.000371417,0.470683903,0.018873150,9.780309677
1784150504.819645,0.001843981,-0.049448691,-0.003280611,0.000492848,0.000065126,0.000062527,0.462853581,0.037537001,9.753074646
1784150504.821643,0.001845372,-0.049448382,-0.003280612,0.000262082,-0.000562692,-0.000455784,0.459802687,0.009613489,9.778895378
1784150504.823650,0.001845372,-0.049448382,-0.003280612,-0.000084527,-0.000732241,-0.000489064,0.490035921,0.024350865,9.794261932
1784150504.825648,0.001845372,-0.049448382,-0.003280612,-0.000004172,-0.000122817,-0.000274023,0.474223554,0.015596041,9.793742180
1784150504.827644,0.001844521,-0.049447443,-0.003280614,0.000597570,0.000282386,-0.000622171,0.491423965,0.027501144,9.789799690
1784150504.829650,0.001844521,-0.049447443,-0.003280614,0.000908277,0.000348612,-0.001472981,0.500178516,0.008632197,9.781170845
1784150504.831646,0.001843465,-0.049448509,-0.003280611,0.000442015,0.000110028,-0.001066533,0.501145124,0.014841280,9.788384438
1784150504.833656,0.001843465,-0.049448509,-0.003280611,-0.000136481,-0.000158393,0.000402021,0.487357795,0.027333489,9.820730209
1784150504.835656,0.001843465,-0.049448509,-0.003280611,-0.000068920,-0.000374550,0.001039266,0.456746757,0.018835159,9.810783386
1784150504.837659,0.001844019,-0.049447123,-0.003280614,0.000322271,-0.000837153,0.000762212,0.488999069,0.013534976,9.804952621
1784150504.839654,0.001844019,-0.049447123,-0.003280614,0.000627236,-0.001029491,0.000416804,0.492219239,0.018578108,9.783019066
1784150504.841659,0.001844089,-0.049447767,-0.003280613,0.000657760,-0.000414010,0.000566223,0.508218825,0.006215773,9.791473389
1784150504.843657,0.001844089,-0.049447767,-0.003280613,0.000352357,-0.000107760,0.000944538,0.494877666,0.054246347,9.802976608
1784150504.845669,0.001844089,-0.049447767,-0.003280613,0.000120629,-0.000835751,0.000763527,0.478892207,0.066719972,9.778832436
1784150504.847664,0.001845878,-0.049447723,-0.003280613,0.000437600,-0.001639871,0.000396236,0.490618855,0.035941221,9.801510811
1784150504.849666,0.001845878,-0.049447723,-0.003280613,0.000858181,-0.001294961,0.000657657,0.481664449,0.037022080,9.791646004
1784150504.851662,0.001847154,-0.049447056,-0.003280614,0.001280518,-0.000308309,0.001069003,0.482386291,0.023466822,9.806355476
1784150504.853669,0.001847154,-0.049447056,-0.003280614,0.002073626,-0.000074225,0.000301678,0.488551199,0.012737021,9.791944504
1784150504.855668,0.001847154,-0.049447056,-0.003280614,0.002432132,-0.000274779,-0.000999850,0.484754741,-0.005465747,9.775237083
1784150504.857673,0.001845697,-0.049447041,-0.003280614,0.001792946,0.000070601,-0.001260723,0.512938261,0.022987219,9.755719185
1784150504.859690,0.001845697,-0.049447041,-0.003280614,0.001020387,0.000466631,-0.000981102,0.496525139,0.003312196,9.779786110
1784150504.861678,0.001844794,-0.049447306,-0.003280614,0.000722584,0.000071408,-0.001286240,0.483992636,0.007771550,9.805358887
1784150504.863681,0.001844794,-0.049447306,-0.003280614,0.000863109,-0.000615903,-0.001582395,0.483067125,0.005940329,9.812519073
1784150504.865680,0.001844794,-0.049447306,-0.003280614,0.000732462,-0.000881428,-0.001580579,0.489990294,0.019938022,9.784818649
1784150504.867680,0.001845645,-0.049447294,-0.003280614,0.000079430,-0.000922194,-0.002012535,0.462825775,-0.000272362,9.777489662
1784150504.869683,0.001845645,-0.049447294,-0.003280614,-0.000087866,-0.000812442,-0.002127373,0.476003140,0.011805304,9.756508827
1784150504.871686,0.001844937,-0.049447056,-0.003280614,0.000008595,-0.000486285,-0.001649707,0.498594463,0.024908982,9.763339996
1784150504.873693,0.001844937,-0.049447056,-0.003280614,-0.000011359,-0.000177263,-0.001048752,0.491202325,0.045104556,9.771980286
1784150504.875695,0.001844937,-0.049447056,-0.003280614,0.000080109,-0.000099606,-0.000232528,0.532658577,0.021746123,9.768732071
1784150504.877693,0.001844659,-0.049449574,-0.003280609,0.000038461,-0.000023867,0.000362017,0.493737251,0.032076005,9.772347450
1784150504.879684,0.001844659,-0.049449574,-0.003280609,-0.000367338,0.000256106,0.000019565,0.468691200,0.001934041,9.771680832
1784150504.881690,0.001844266,-0.049449075,-0.003280610,-0.000626885,0.000389448,-0.000519073,0.442931861,0.027057614,9.813511848
1784150504.883695,0.001844266,-0.049449075,-0.003280610,-0.000476075,0.000246166,-0.000460969,0.446028888,0.021807179,9.790169716
1784150504.885707,0.001844266,-0.049449075,-0.003280610,-0.000155241,-0.000295790,0.000120811,0.464840382,0.018055152,9.779850960
1784150504.887706,0.001844564,-0.049447957,-0.003280612,0.000096216,-0.000726677,0.000526407,0.481057167,0.022807540,9.775414467
1784150504.889712,0.001844564,-0.049447957,-0.003280612,0.000355337,-0.000769634,0.000534680,0.486086190,0.031585880,9.792063713
1784150504.891708,0.001845808,-0.049447928,-0.003280612,0.000725243,-0.000766993,0.000559236,0.501349628,0.032260887,9.795668602
1784150504.893701,0.001845808,-0.049447928,-0.003280612,0.000563022,-0.000544756,0.000631822,0.483930886,0.002421455,9.801736832
1784150504.895706,0.001845808,-0.049447928,-0.003280612,0.000700557,-0.000203964,0.000415325,0.488200486,0.020405795,9.785267830
1784150504.897700,0.001845843,-0.049448460,-0.003280612,0.001508748,0.000219092,-0.000137431,0.476653695,0.029603532,9.772764206
1784150504.899699,0.001845843,-0.049448460,-0.003280612,0.001104271,0.000610876,-0.000685635,0.466240108,0.023324406,9.792439461
1784150504.901710,0.001846448,-0.049447417,-0.003280614,0.000285746,0.000938045,-0.001103648,0.475188613,0.019765636,9.772698402
1784150504.903709,0.001846448,-0.049447417,-0.003280614,0.000449095,0.001203970,-0.001370701,0.487006098,0.032562509,9.779068947
1784150504.905707,0.001846448,-0.049447417,-0.003280614,0.000745075,0.001001021,-0.001765745,0.484589189,0.016633181,9.755203247
1784150504.907708,0.001846401,-0.049447306,-0.003280614,0.000430956,0.000372465,-0.001984844,0.480992883,0.017841814,9.780761719
1784150504.909712,0.001846401,-0.049447306,-0.003280614,-0.000517953,0.000227766,-0.002053595,0.480175197,0.024156569,9.776318550
1784150504.911708,0.001846787,-0.049447827,-0.003280613,-0.001061839,0.000425313,-0.001867083,0.491668075,0.010885848,9.794626236
1784150504.913715,0.001846787,-0.049447827,-0.003280613,-0.000702146,0.000307313,-0.001442641,0.470638990,0.016086815,9.794191360
1784150504.915714,0.001846787,-0.049447827,-0.003280613,-0.000386462,0.000201778,-0.000970997,0.485373020,0.010051340,9.797304153
1784150504.917718,0.001846428,-0.049447548,-0.003280613,-0.000627635,0.000057205,-0.000502172,0.482047617,0.032041069,9.798338890
1784150504.919716,0.001846428,-0.049447548,-0.003280613,-0.000970354,-0.000354846,0.000252579,0.479618907,0.052392792,9.776051521
1784150504.921723,0.001847595,-0.049447082,-0.003280614,-0.001218894,-0.000582151,0.000658401,0.491933793,0.031625610,9.775929451
1784150504.923723,0.001847595,-0.049447082,-0.003280614,-0.001046260,0.000044507,0.000291097,0.501271844,0.023946768,9.767818451
1784150504.925730,0.001847595,-0.049447082,-0.003280614,-0.000557462,0.000658324,0.000151335,0.484640568,0.022307230,9.776309967
1784150504.927723,0.001847790,-0.049446750,-0.003280615,-0.000299054,0.000527906,0.000479391,0.476889193,0.012514850,9.781172752
1784150504.929727,0.001847790,-0.049446750,-0.003280615,-0.000095586,0.000145411,0.000608487,0.501976013,0.009441536,9.790143013
1784150504.931799,0.001847679,-0.049447872,-0.003280613,-0.000003893,-0.000453511,0.000195208,0.488505900,0.009137428,9.794163704
1784150504.933747,0.001847679,-0.049447872,-0.003280613,0.000207516,-0.000803928,0.000310038,0.474386871,0.028637789,9.786652565
1784150504.935736,0.001847679,-0.049447872,-0.003280613,0.000241921,-0.000392607,0.000505526,0.501786351,0.031349678,9.797008514
1784150504.937737,0.001848637,-0.049448300,-0.003280612,-0.000071689,0.000290552,0.000342654,0.506773412,0.034933724,9.788070679
1784150504.939735,0.001848637,-0.049448300,-0.003280612,0.000021289,0.000494559,0.000583915,0.493360043,0.038724862,9.783149719
1784150504.941739,0.001849338,-0.049448360,-0.003280612,0.000429434,0.000334073,0.000668230,0.470995635,0.009275797,9.806251526
1784150504.943738,0.001849338,-0.049448360,-0.003280612,0.001019130,0.000484439,0.000659399,0.459992945,0.025705112,9.783929825
1784150504.945739,0.001849338,-0.049448360,-0.003280612,0.001757518,0.000716865,0.000618038,0.489030153,0.015806589,9.800483704
1784150504.947743,0.001850085,-0.049447838,-0.003280613,0.002004727,0.000745658,0.000532506,0.487732917,0.019452035,9.794229507
1784150504.949747,0.001850085,-0.049447838,-0.003280613,0.001442890,0.000825421,0.000992849,0.488154799,0.016803034,9.787936211
1784150504.951752,0.001850065,-0.049447909,-0.003280613,0.001161215,0.000937367,0.001130136,0.506859899,0.005321201,9.793708801
1784150504.953758,0.001850065,-0.049447909,-0.003280613,0.001660921,0.000818307,0.000417819,0.495142937,0.001423132,9.795913696
1784150504.955749,0.001850065,-0.049447909,-0.003280613,0.001874031,0.000332127,0.000726822,0.472842515,0.013716517,9.808523178
1784150504.957748,0.001849906,-0.049447186,-0.003280614,0.001557608,0.000083947,0.002107084,0.480305761,0.000160868,9.811134338
1784150504.959749,0.001849906,-0.049447186,-0.003280614,0.001152828,0.000324214,0.002266224,0.471407831,0.004523720,9.780667305
1784150504.961758,0.001848583,-0.049447097,-0.003280615,0.000314620,0.000257653,0.001639823,0.489490509,0.015893040,9.787482262
1784150504.963760,0.001848583,-0.049447097,-0.003280615,-0.000374194,-0.000277520,0.001433386,0.492849290,0.032567263,9.767866135
1784150504.965760,0.001848583,-0.049447097,-0.003280615,-0.000024525,-0.000532133,0.001212898,0.495587945,0.036951967,9.776415825
1784150504.967761,0.001852424,-0.049446959,-0.003280615,0.000306272,-0.000411343,0.000873584,0.481918782,0.018866144,9.761041641
1784150504.969762,0.001852424,-0.049446959,-0.003280615,-0.000140065,-0.000281710,0.000914366,0.492624760,0.016205367,9.800938606
1784150504.971782,0.001853043,-0.049448378,-0.003280612,-0.000663636,-0.000096467,0.001160887,0.458578259,0.021938356,9.812149048
1784150504.973798,0.001853043,-0.049448378,-0.003280612,-0.000552423,0.000342143,0.000855551,0.466390163,0.035451151,9.788034439
1784150504.975835,0.001853043,-0.049448378,-0.003280612,0.000038434,0.000927927,0.000346582,0.518585563,0.008072529,9.763698578
1784150504.977774,0.001852076,-0.049450744,-0.003280608,0.000485990,0.001387046,0.000535617,0.493932068,0.008992500,9.741713524
1784150504.979768,0.001852076,-0.049450744,-0.003280608,0.000357186,0.001509095,0.000888042,0.485205948,-0.004235726,9.790488243
1784150504.981768,0.001851178,-0.049450405,-0.003280608,-0.000320120,0.001031644,0.000599144,0.458835572,0.040991195,9.778647423
1784150504.983775,0.001851178,-0.049450405,-0.003280608,-0.001195492,0.000437062,0.000206185,0.474892646,0.033540528,9.789375305
1784150504.985772,0.001851178,-0.049450405,-0.003280608,-0.001956889,0.000327575,0.000192302,0.483181089,0.012513854,9.769969940
1784150504.987771,0.001850823,-0.049450535,-0.003280608,-0.002147504,0.000495214,0.000292456,0.481331378,0.008050878,9.770836830
1784150504.989788,0.001850823,-0.049450535,-0.003280608,-0.001851681,0.000684647,0.000366483,0.480041891,0.014593580,9.798224449
1784150504.991780,0.001851536,-0.049450312,-0.003280608,-0.001256272,0.000836661,0.000403040,0.456326425,0.019470111,9.785233498
1784150504.993806,0.001851536,-0.049450312,-0.003280608,-0.000370604,0.000889859,0.000213448,0.481782079,0.008871096,9.780704498
1784150504.995785,0.001851536,-0.049450312,-0.003280608,0.000254785,0.000749388,-0.000015957,0.482788950,0.019045055,9.797359467
1784150504.997784,0.001852094,-0.049450286,-0.003280608,0.000401681,0.000576950,0.000050716,0.494908214,0.018518182,9.786608696
1784150504.999782,0.001852094,-0.049450286,-0.003280608,0.000761847,0.000483713,0.000244284,0.506638408,0.023331244,9.781718254
1784150505.001811,0.001852218,-0.049451288,-0.003280606,0.000991120,0.000686468,0.000332596,0.478015065,0.030517183,9.767838478
1784150505.003800,0.001852218,-0.049451288,-0.003280606,0.000510040,0.001005699,-0.000018335,0.494985193,0.024799172,9.785304070
1784150505.005791,0.001852218,-0.049451288,-0.003280606,0.000374323,0.000950277,-0.000654336,0.492428690,0.037252575,9.802865982
1784150505.007789,0.001853194,-0.049451854,-0.003280605,0.000508861,0.000815730,-0.000847033,0.483285666,0.021444453,9.774063110
1784150505.009798,0.001853194,-0.049451854,-0.003280605,0.000333468,0.000610010,-0.000555201,0.484656721,0.024461189,9.788430214
1784150505.011795,0.001853614,-0.049452793,-0.003280603,0.000200173,-0.000026438,-0.000237014,0.483624339,0.012870209,9.782076836
1784150505.013797,0.001853614,-0.049452793,-0.003280603,0.000355508,-0.000582027,-0.000131692,0.472186029,-0.004939478,9.786883354
1784150505.015867,0.001853614,-0.049452793,-0.003280603,0.000599319,-0.000645196,-0.000215321,0.482346416,0.017478360,9.766414642
1784150505.017805,0.001853650,-0.049452771,-0.003280603,0.000581461,-0.000417901,-0.000473602,0.491765112,0.018135896,9.783016205
1784150505.019802,0.001853650,-0.049452771,-0.003280603,0.000428301,0.000163174,-0.000659665,0.500424445,0.029216152,9.784440041
1784150505.021807,0.001854620,-0.049454737,-0.003280600,0.000458996,0.000526411,-0.000055194,0.493981242,0.017890936,9.813503265
1784150505.023801,0.001854620,-0.049454737,-0.003280600,0.000545961,0.000140586,0.000670464,0.475963652,0.011493701,9.800444603
1784150505.025803,0.001854620,-0.049454737,-0.003280600,0.000192519,-0.000365995,0.000547315,0.493565142,0.018154234,9.777189255
1784150505.027804,0.001854700,-0.049455021,-0.003280599,-0.000604132,-0.000511016,0.000096957,0.479524434,0.005951713,9.754233360
1784150505.029807,0.001854700,-0.049455021,-0.003280599,-0.001003124,-0.000687183,-0.000790835,0.484596372,0.017500484,9.759243011
1784150505.031818,0.001854307,-0.049455110,-0.003280599,-0.000879043,-0.000962768,-0.001636313,0.480067641,0.014797084,9.769533157
1784150505.033814,0.001854307,-0.049455110,-0.003280599,-0.000932187,-0.000861639,-0.001330139,0.492844999,-0.003840982,9.784220695
1784150505.035810,0.001854307,-0.049455110,-0.003280599,-0.000697267,-0.000452143,-0.000581286,0.513827741,0.023318753,9.770518303
1784150505.037813,0.001854902,-0.049455538,-0.003280598,-0.000126087,-0.000012268,-0.000341211,0.525726914,0.004844807,9.763685226
1784150505.039810,0.001854902,-0.049455538,-0.003280598,-0.000343348,0.000226006,-0.000330249,0.483684629,0.017804146,9.781213760
1784150505.041831,0.001855168,-0.049455814,-0.003280598,-0.001137494,0.000101009,-0.000415197,0.491707474,0.049597494,9.769320488
1784150505.043824,0.001855168,-0.049455814,-0.003280598,-0.001049946,-0.000249553,-0.000423312,0.497518569,0.047727738,9.769761086
1784150505.045821,0.001855168,-0.049455814,-0.003280598,-0.000373832,-0.000675078,-0.000176474,0.466066122,0.045356560,9.781821251
1784150505.047818,0.001856462,-0.049454905,-0.003280599,-0.000038131,-0.000565854,-0.000572226,0.464578211,0.032907210,9.770979881
1784150505.049824,0.001856462,-0.049454905,-0.003280599,0.000552119,-0.000291911,-0.000876947,0.508568227,-0.002679243,9.781554222
1784150505.051827,0.001855175,-0.049456038,-0.003280597,0.001338300,-0.000512493,-0.000721620,0.487076432,-0.000014033,9.760478973
1784150505.053825,0.001855175,-0.049456038,-0.003280597,0.001441009,-0.000808016,-0.001277881,0.486643523,0.002142491,9.773045540
1784150505.055824,0.001855175,-0.049456038,-0.003280597,0.000955913,-0.000963376,-0.001665615,0.486577451,-0.002025881,9.792295456
1784150505.057836,0.001854216,-0.049456049,-0.003280597,0.000816006,-0.001157716,-0.000828976,0.503382623,0.011928002,9.752949715
1784150505.059859,0.001854216,-0.049456049,-0.003280597,0.001185229,-0.001161595,-0.000019408,0.493635416,0.024787806,9.789337158
1784150505.061839,0.001854361,-0.049456064,-0.003280597,0.001079245,-0.000955856,-0.000494136,0.472076654,0.022871654,9.782579422
1784150505.063838,0.001854361,-0.049456064,-0.003280597,0.000804466,-0.000800526,-0.001381809,0.490995139,0.028069314,9.773663521
1784150505.065867,0.001854361,-0.049456064,-0.003280597,0.001019983,-0.000517173,-0.001160373,0.477211952,0.038973171,9.777307510
1784150505.067845,0.001855656,-0.049455427,-0.003280598,0.001339046,-0.000209154,-0.000240060,0.488056600,0.044296578,9.765246391
1784150505.069842,0.001855656,-0.049455427,-0.003280598,0.001717567,0.000069871,0.000069878,0.502026916,0.013085634,9.781647682
1784150505.071841,0.001855294,-0.049455836,-0.003280597,0.001736093,-0.000224636,-0.000267123,0.485152423,0.026447594,9.760198593
1784150505.073884,0.001855294,-0.049455836,-0.003280597,0.001115884,-0.000627240,-0.001020130,0.487029433,0.035583772,9.795228004
1784150505.075855,0.001855294,-0.049455836,-0.003280597,0.001012558,-0.000491535,-0.001692106,0.478704214,0.014677604,9.788808823
1784150505.077851,0.001856124,-0.049455579,-0.003280598,0.001425272,-0.000240814,-0.001385733,0.484555811,0.015559201,9.780302048
1784150505.079856,0.001856124,-0.049455579,-0.003280598,0.001654454,0.000137275,-0.000620014,0.490386426,0.017085524,9.807218552
1784150505.081849,0.001855939,-0.049455717,-0.003280597,0.001801340,0.000197820,-0.000207839,0.485935479,0.019859398,9.803195953
1784150505.083853,0.001855939,-0.049455717,-0.003280597,0.002069934,0.000062296,-0.000251302,0.490518391,0.028259113,9.810876846
1784150505.085849,0.001855939,-0.049455717,-0.003280597,0.002522221,0.000319788,-0.000118106,0.479005724,0.039347261,9.784483910
1784150505.087856,0.001856701,-0.049455840,-0.003280597,0.002033262,0.000171220,0.000463151,0.497701347,0.027385671,9.794737816
1784150505.089874,0.001856701,-0.049455840,-0.003280597,0.000970929,-0.000142066,0.000342772,0.475285113,0.030659413,9.815808296
1784150505.091868,0.001857391,-0.049454842,-0.003280599,0.000603273,0.000207058,-0.000679754,0.449159563,0.021280814,9.795548439
1784150505.093867,0.001857391,-0.049454842,-0.003280599,0.000678036,0.000420371,-0.001207717,0.479575336,0.013242731,9.800009727
1784150505.095862,0.001857391,-0.049454842,-0.003280599,0.000563325,0.000176075,-0.000692237,0.474020809,-0.003430996,9.760444641
1784150505.097861,0.001856423,-0.049454760,-0.003280599,-0.000080225,0.000145373,0.000134511,0.496412694,0.029477756,9.754848480
1784150505.099863,0.001856423,-0.049454760,-0.003280599,-0.000674278,0.000215238,0.000592688,0.479462594,0.003031834,9.786942482
1784150505.101861,0.001854964,-0.049454495,-0.003280599,-0.000729820,-0.000041706,0.000564314,0.509629488,0.009950734,9.767737389
1784150505.103876,0.001854964,-0.049454495,-0.003280599,-0.000410190,-0.000394098,0.000434984,0.502466619,0.012603305,9.785680771
1784150505.105918,0.001854964,-0.049454495,-0.003280599,0.000222373,-0.000422571,0.000577349,0.481632084,0.033524245,9.779518127
1784150505.107886,0.001856002,-0.049455028,-0.003280598,0.000430813,-0.000298702,0.001024449,0.491079092,0.034810990,9.770568848
1784150505.109961,0.001856002,-0.049455028,-0.003280598,-0.000158354,-0.000217367,0.001168412,0.509543598,0.040783137,9.779591560
1784150505.111899,0.001856875,-0.049455997,-0.003280597,-0.000545417,0.000311733,0.000896884,0.499060601,0.027066724,9.774112701
1784150505.113889,0.001856875,-0.049455997,-0.003280597,-0.000158886,0.000653860,0.000717952,0.495703429,0.010405224,9.791936874
1784150505.115891,0.001856875,-0.049455997,-0.003280597,0.000044508,0.000486415,0.001162813,0.485730171,0.037186556,9.761164665
1784150505.117911,0.001857878,-0.049456507,-0.003280595,-0.000151651,0.000261036,0.001341353,0.507240117,0.036691196,9.792116165
1784150505.119891,0.001857878,-0.049456507,-0.003280595,-0.000080495,-0.000402906,0.000403916,0.511619687,0.026464142,9.773224831
1784150505.121904,0.001857982,-0.049457390,-0.003280594,0.000207324,-0.000746681,-0.000025118,0.507061541,0.019071642,9.749861717
1784150505.123892,0.001857982,-0.049457390,-0.003280594,0.000062034,-0.000206307,0.000478510,0.498820752,0.007747166,9.782059669
1784150505.125885,0.001857982,-0.049457390,-0.003280594,-0.000460371,0.000189961,0.001151630,0.468996555,0.027038947,9.769151688
1784150505.127886,0.001858544,-0.049457066,-0.003280594,-0.000375163,0.000077633,0.001640497,0.485116720,0.024544470,9.775877953
1784150505.129908,0.001858544,-0.049457066,-0.003280594,-0.000186163,-0.000127133,0.001274076,0.468793213,0.048028909,9.779150963
1784150505.131963,0.001860472,-0.049456112,-0.003280597,-0.000440870,0.000144124,0.000647825,0.462028563,0.045414660,9.780920982
1784150505.133915,0.001860472,-0.049456112,-0.003280597,-0.000732733,0.000593429,0.000427514,0.513740182,0.015738389,9.765537262
1784150505.135897,0.001860472,-0.049456112,-0.003280597,-0.000898955,0.000235166,0.000443793,0.483309835,0.024472071,9.789323807
1784150505.137894,0.001860679,-0.049456507,-0.003280596,-0.000789954,-0.000460951,0.000561903,0.493399739,0.005906666,9.798630714
1784150505.139900,0.001860679,-0.049456507,-0.003280596,-0.000254947,-0.000666216,0.000523989,0.484336704,0.034398396,9.777732849
1784150505.141895,0.001861115,-0.049456257,-0.003280596,0.000155286,-0.000687320,0.000063873,0.466947526,0.008034529,9.799068451
1784150505.143903,0.001861115,-0.049456257,-0.003280596,-0.000377296,-0.000658173,-0.000200182,0.482479870,-0.006495082,9.798092842
1784150505.145899,0.001861115,-0.049456257,-0.003280596,-0.000674385,-0.000479137,0.000131982,0.480129242,-0.016632719,9.778746605
1784150505.147900,0.001859342,-0.049455699,-0.003280597,0.000105609,-0.000196687,0.000250028,0.506155431,0.020229885,9.777663231
1784150505.149904,0.001859342,-0.049455699,-0.003280597,0.000566824,0.000118999,0.000210103,0.482451618,0.026008697,9.763778687
1784150505.151907,0.001859550,-0.049455788,-0.003280597,0.000252868,0.000463311,0.000288934,0.478957772,0.036132041,9.795672417
1784150505.153906,0.001859550,-0.049455788,-0.003280597,0.000022271,0.000516833,0.000236947,0.516053796,0.021936579,9.771856308
1784150505.155916,0.001859550,-0.049455788,-0.003280597,0.000116612,-0.000187187,0.000556390,0.501229525,0.020776063,9.772730827
1784150505.157924,0.001859879,-0.049457662,-0.003280594,-0.000013579,-0.000628021,0.001132169,0.491548538,-0.000189174,9.777070045
1784150505.159917,0.001859879,-0.049457662,-0.003280594,-0.000120305,-0.000443176,0.001247538,0.480967253,0.017234879,9.803174019
1784150505.161911,0.001859700,-0.049457684,-0.003280594,0.000288596,-0.000545099,0.000897795,0.496652335,0.014447629,9.788825035
1784150505.163913,0.001859700,-0.049457684,-0.003280594,0.000765646,-0.000817944,0.000425567,0.491780430,0.020283494,9.796030998
1784150505.165913,0.001859700,-0.049457684,-0.003280594,0.000952232,-0.000765419,0.000479839,0.477720618,0.008334977,9.800424576
1784150505.167919,0.001859357,-0.049457897,-0.003280593,0.000820370,-0.000453063,0.000321906,0.484269798,-0.006556241,9.803474426
1784150505.169930,0.001859357,-0.049457897,-0.003280593,0.000488652,-0.000382088,-0.000263740,0.484525800,0.012890506,9.777595520
1784150505.171926,0.001859279,-0.049458373,-0.003280592,0.000627119,-0.000210813,-0.000310018,0.490130186,0.030768579,9.773681641
1784150505.173936,0.001859279,-0.049458373,-0.003280592,0.000874139,0.000126270,0.000000668,0.469547570,0.035541277,9.769655228
1784150505.175926,0.001859279,-0.049458373,-0.003280592,0.000325156,-0.000195065,0.000024113,0.481270373,0.002300511,9.760487556
1784150505.177926,0.001858813,-0.049457949,-0.003280593,-0.000366485,-0.000799785,-0.000647305,0.485932678,-0.018562896,9.787705421
1784150505.179929,0.001858813,-0.049457949,-0.003280593,-0.000193756,-0.000580536,-0.001312193,0.449725509,-0.007689177,9.772947311
1784150505.181931,0.001856712,-0.049455408,-0.003280598,0.000536379,0.000379866,-0.001339841,0.454273254,-0.002809556,9.771636963
1784150505.183937,0.001856712,-0.049455408,-0.003280598,0.000970921,0.000590265,-0.000658842,0.493601739,0.022090502,9.790663719
1784150505.185946,0.001856712,-0.049455408,-0.003280598,0.000771077,-0.000151960,0.000011968,0.478693813,0.013784862,9.788354874
1784150505.187933,0.001856124,-0.049455170,-0.003280599,-0.000260045,-0.000752234,0.000029559,0.495788664,0.015536297,9.763277054
1784150505.189967,0.001856124,-0.049455170,-0.003280599,-0.001425492,-0.001058623,-0.000029762,0.505870998,0.033690363,9.775507927
1784150505.191947,0.001856700,-0.049456585,-0.003280596,-0.001511169,-0.000947296,-0.000196263,0.496442080,-0.004233189,9.769875526
1784150505.193945,0.001856700,-0.049456585,-0.003280596,-0.000978484,-0.000946491,-0.000010178,0.488366187,0.034276698,9.787598610
1784150505.195943,0.001856700,-0.049456585,-0.003280596,-0.000852441,-0.001753376,0.000174624,0.483694315,0.055470418,9.776971817
1784150505.197941,0.001857902,-0.049456913,-0.003280596,-0.001067054,-0.002405559,-0.000395617,0.471049994,0.050131857,9.794408798
1784150505.199946,0.001857902,-0.049456913,-0.003280596,-0.000888093,-0.001983991,-0.000859658,0.516445816,0.017025517,9.768686295
1784150505.201990,0.001857629,-0.049458422,-0.003280593,-0.000517448,-0.001211052,-0.001266937,0.519531250,0.014116269,9.794225693
1784150505.203976,0.001857629,-0.049458422,-0.003280593,-0.000918493,-0.000926181,-0.001981443,0.492137432,0.012258956,9.789704323
1784150505.205962,0.001857629,-0.049458422,-0.003280593,-0.001139829,-0.000775741,-0.002123071,0.487112820,0.004325676,9.780232430
1784150505.207955,0.001856480,-0.049458969,-0.003280592,-0.000649830,-0.000462160,-0.001411743,0.490871042,0.019389534,9.797369003
1784150505.209953,0.001856480,-0.049458969,-0.003280592,-0.000562242,-0.000016152,-0.000676142,0.476734251,0.035913143,9.767424583
1784150505.211969,0.001857362,-0.049458258,-0.003280593,-0.000749551,0.000421566,-0.000483019,0.448678553,0.019005422,9.801362038
1784150505.213970,0.001857362,-0.049458258,-0.003280593,-0.000744876,0.000344927,-0.000669243,0.476010621,0.014295935,9.784321785
1784150505.215977,0.001857362,-0.049458258,-0.003280593,-0.000417841,0.000158505,-0.000624601,0.492918760,0.003631270,9.804444313
1784150505.218075,0.001856531,-0.049458891,-0.003280592,0.000005157,0.000398358,-0.000535537,0.481800556,0.011854199,9.802244186
1784150505.219983,0.001856531,-0.049458891,-0.003280592,-0.000029764,0.000472887,-0.001139676,0.487953901,0.037002012,9.783132553
