time_sec,roll_rad,pitch_rad,yaw_rad,gyro_x,gyro_y,gyro_z,acc_x,acc_y,acc_z
1784151134.705211,0.002551657,-0.088971771,0.034033958,-0.000207569,0.000307702,0.000359269,0.838242114,0.018777689,9.761833191
1784151134.707172,0.002551657,-0.088971771,0.034033958,-0.000615125,0.000655679,0.000945184,0.859741628,0.014552746,9.750170708
1784151134.709157,0.002550881,-0.088971354,0.034033954,-0.000982392,0.001019922,0.001047590,0.848963916,0.013810711,9.747912407
1784151134.711164,0.002550881,-0.088971354,0.034033954,-0.000999860,0.000889801,0.000596883,0.836362779,0.010029070,9.735322952
1784151134.713112,0.002550160,-0.088969290,0.034033950,-0.001126653,0.000361934,0.000645041,0.877050817,-0.002166539,9.738871574
1784151134.715145,0.002550160,-0.088969290,0.034033950,-0.000806077,-0.000261938,0.000823862,0.857119083,0.020811008,9.756933212
1784151134.717111,0.002550160,-0.088969290,0.034033950,-0.000205646,-0.000304294,0.000614025,0.879562914,0.022213640,9.771309853
1784151134.719122,0.002549691,-0.088969745,0.034033950,-0.000202230,-0.000295689,0.000659262,0.874359727,0.036680978,9.762430191
1784151134.721114,0.002549691,-0.088969745,0.034033950,-0.000425232,-0.000938835,0.001320053,0.852717459,0.026406186,9.734099388
1784151134.723137,0.002550493,-0.088968232,0.034033939,-0.000224106,-0.001231176,0.001784940,0.855855048,0.027960656,9.761908531
1784151134.725115,0.002550493,-0.088968232,0.034033939,0.000113868,-0.000683933,0.001099191,0.847408831,0.033963338,9.752075195
1784151134.727144,0.002550493,-0.088968232,0.034033939,0.000163525,-0.000119721,0.000365568,0.871268868,0.003985697,9.766252518
1784151134.729131,0.002549038,-0.088968679,0.034033939,0.000107283,0.000269650,0.000589039,0.891133308,0.051196922,9.770161629
1784151134.731111,0.002549038,-0.088968679,0.034033939,0.000118339,0.000372086,0.000859219,0.884776831,0.008235594,9.774363518
1784151134.733106,0.002547927,-0.088969432,0.034033947,0.000266525,-0.000056345,0.000656323,0.877949953,0.000671520,9.779239655
1784151134.735108,0.002547927,-0.088969432,0.034033947,0.000498626,-0.000568446,0.000615909,0.857691228,0.029885303,9.739953995
1784151134.737108,0.002547927,-0.088969432,0.034033947,0.000530721,-0.000202948,0.000734780,0.868715584,0.013221063,9.732236862
1784151134.739104,0.002547974,-0.088969119,0.034033947,-0.000143843,0.000649139,0.000444442,0.874562979,0.015691014,9.752431870
1784151134.741092,0.002547974,-0.088969119,0.034033947,-0.000297031,0.000692688,-0.000166883,0.889975905,0.028082961,9.746251106
1784151134.743123,0.002548340,-0.088970006,0.034033947,0.000310063,0.000302682,-0.000613435,0.885542214,0.032613706,9.747172356
1784151134.745107,0.002548340,-0.088970006,0.034033947,0.000427546,0.000093733,-0.000884686,0.865053177,0.045014456,9.741403580
1784151134.747110,0.002548340,-0.088970006,0.034033947,0.000549529,-0.000075768,-0.001262845,0.864839911,0.028741593,9.761921883
1784151134.749104,0.002548365,-0.088969357,0.034033947,0.000421874,-0.000160804,-0.001556512,0.859841347,0.025471963,9.789692879
1784151134.751108,0.002548365,-0.088969357,0.034033947,-0.000465790,-0.000107074,-0.001626649,0.876310110,0.012049347,9.757342339
1784151134.753097,0.002548388,-0.088970393,0.034033950,-0.001189678,-0.000482188,-0.001499656,0.895169616,0.012729242,9.753777504
1784151134.755121,0.002548388,-0.088970393,0.034033950,-0.001287606,-0.001069060,-0.000920809,0.884022295,0.019506535,9.765916824
1784151134.757098,0.002548388,-0.088970393,0.034033950,-0.000705924,-0.001323086,-0.000587379,0.844805777,0.004811018,9.760853767
1784151134.759168,0.002547476,-0.088969335,0.034033943,0.000373147,-0.001258790,-0.001064121,0.848104715,0.017771190,9.759593964
1784151134.761201,0.002547476,-0.088969335,0.034033943,0.001360362,-0.000928347,-0.001048487,0.884988010,0.023275863,9.738144875
1784151134.763123,0.002547123,-0.088969871,0.034033943,0.001774437,-0.000258550,-0.000024291,0.867417336,0.019290380,9.763208389
1784151134.765117,0.002547123,-0.088969871,0.034033943,0.001010076,0.000295103,0.000684395,0.867995083,0.030029338,9.764175415
1784151134.767153,0.002547123,-0.088969871,0.034033943,-0.000183010,0.000188851,0.000294224,0.888030708,0.053565998,9.757619858
1784151134.769135,0.002547593,-0.088970192,0.034033943,-0.000258207,-0.000128557,-0.000405279,0.878478944,0.042131949,9.744536400
1784151134.771117,0.002547593,-0.088970192,0.034033943,0.000286057,-0.000115031,-0.000786181,0.884154260,0.029463427,9.751634598
1784151134.773118,0.002547632,-0.088970028,0.034033947,0.000452107,0.000364069,-0.000862847,0.842750430,0.021725560,9.780237198
1784151134.775137,0.002547632,-0.088970028,0.034033947,0.000370342,0.000425406,-0.000613740,0.844695508,0.031399097,9.739502907
1784151134.777138,0.002547632,-0.088970028,0.034033947,0.000487413,0.000072533,-0.000488359,0.876584470,0.035289265,9.765112877
1784151134.779227,0.002547861,-0.088970646,0.034033947,0.000561549,0.000498342,-0.000194663,0.857123196,0.021249432,9.758279800
1784151134.781137,0.002547861,-0.088970646,0.034033947,0.000565651,0.001170168,-0.000159291,0.877027094,0.033209067,9.741786957
1784151134.783179,0.002548620,-0.088971049,0.034033943,0.000397374,0.000712013,-0.000879199,0.864785969,0.024668604,9.767724037
1784151134.785133,0.002548620,-0.088971049,0.034033943,-0.000149161,-0.000355476,-0.001354251,0.845282972,0.043431062,9.747651100
1784151134.787143,0.002548620,-0.088971049,0.034033943,-0.000709222,-0.000936825,-0.001139878,0.867351711,0.015125182,9.782011986
1784151134.789136,0.002548784,-0.088969834,0.034033943,-0.000878790,-0.000986689,-0.000692420,0.875358284,0.008794758,9.775702477
1784151134.791136,0.002548784,-0.088969834,0.034033943,-0.000639648,-0.000954153,-0.000491855,0.879902363,0.013645756,9.778428078
1784151134.793131,0.002548031,-0.088970497,0.034033947,-0.000608533,-0.000802472,-0.000417466,0.861514032,0.014758315,9.781107903
1784151134.795157,0.002548031,-0.088970497,0.034033947,-0.000689665,-0.000188869,-0.000035705,0.851392746,0.029428810,9.752498627
1784151134.797134,0.002548031,-0.088970497,0.034033947,-0.000477494,0.000360437,0.000694701,0.872021616,0.030695455,9.789289474
1784151134.799145,0.002548435,-0.088970400,0.034033947,-0.000145471,0.000365140,0.000827733,0.849226475,0.036551792,9.762853622
1784151134.801175,0.002548435,-0.088970400,0.034033947,-0.000012024,0.000229837,0.000255783,0.838903904,0.036664948,9.765534401
1784151134.803230,0.002548957,-0.088968366,0.034033936,0.000282592,-0.000049632,-0.000360141,0.873351395,-0.009472345,9.764822960
1784151134.805168,0.002548957,-0.088968366,0.034033936,0.000907948,-0.000603177,-0.000232474,0.885240555,0.005917280,9.721445084
1784151134.807184,0.002548957,-0.088968366,0.034033936,0.001092167,-0.000846380,0.000655270,0.898096561,0.032379597,9.757493973
1784151134.809203,0.002549414,-0.088968955,0.034033936,0.001122570,-0.000520447,0.001629553,0.890430987,0.066528134,9.757705688
1784151134.811186,0.002549414,-0.088968955,0.034033936,0.001095181,0.000132061,0.002251283,0.847785294,0.028118189,9.754280090
1784151134.813172,0.002549338,-0.088967524,0.034033932,0.000422147,0.000206223,0.001762239,0.852925420,0.008694662,9.767162323
1784151134.815200,0.002549338,-0.088967524,0.034033932,-0.000564193,-0.000682161,0.000389036,0.868136883,0.041685864,9.762905121
1784151134.817212,0.002549338,-0.088967524,0.034033932,-0.001478375,-0.001091469,-0.000899143,0.874812186,0.035490330,9.740006447
1784151134.819168,0.002550740,-0.088967733,0.034033932,-0.001795146,-0.000731315,-0.001201531,0.866903484,0.012297271,9.739401817
1784151134.821161,0.002550740,-0.088967733,0.034033932,-0.001375424,-0.000459400,-0.001186058,0.882626593,0.015079151,9.760954857
1784151134.823168,0.002550231,-0.088967934,0.034033932,-0.001013946,-0.000293153,-0.001951102,0.897036612,0.018139010,9.745744705
1784151134.825186,0.002550231,-0.088967934,0.034033932,-0.000510973,0.000414697,-0.001746603,0.880575120,0.030808795,9.757915497
1784151134.827219,0.002550231,-0.088967934,0.034033932,0.000071474,0.001100716,-0.000404916,0.872352719,0.017603809,9.739440918
1784151134.829225,0.002550488,-0.088968731,0.034033932,-0.000036034,0.000799453,0.000043678,0.862406313,0.011058572,9.732664108
1784151134.831202,0.002550488,-0.088968731,0.034033932,-0.000403965,0.000477217,0.000026458,0.855836213,-0.010588827,9.764351845
1784151134.833165,0.002549262,-0.088967673,0.034033928,-0.000760536,0.000493201,0.000376205,0.881788433,0.018801525,9.743044853
1784151134.835178,0.002549262,-0.088967673,0.034033928,-0.000897768,0.000108207,0.000520666,0.858812451,0.050282873,9.767882347
1784151134.837183,0.002549262,-0.088967673,0.034033928,-0.000327394,-0.000123384,0.000284258,0.842885196,0.031704713,9.762817383
1784151134.839212,0.002550151,-0.088965781,0.034033921,0.000291235,0.000101587,0.000132605,0.859965980,0.033751484,9.759259224
1784151134.841187,0.002550151,-0.088965781,0.034033921,0.000287727,0.000142275,0.000363703,0.866034508,0.016181434,9.761842728
1784151134.843218,0.002549493,-0.088965632,0.034033924,0.000208976,-0.000134687,0.000764901,0.862057865,0.020366572,9.747519493
1784151134.845182,0.002549493,-0.088965632,0.034033924,0.000278290,-0.000267481,0.001328531,0.878738046,0.027661078,9.762825012
1784151134.847242,0.002549493,-0.088965632,0.034033924,0.000243239,0.000069125,0.001669201,0.886106312,0.006061211,9.762694359
1784151134.849205,0.002548842,-0.088968046,0.034033928,0.000126273,0.000067652,0.001211836,0.851953149,0.038410891,9.748520851
1784151134.851192,0.002548842,-0.088968046,0.034033928,-0.000197952,-0.000326051,0.000749720,0.873935461,0.002937634,9.782836914
1784151134.853246,0.002546754,-0.088968679,0.034033928,-0.000758211,-0.000448370,0.000575941,0.898179829,0.039521538,9.761126518
1784151134.855286,0.002546754,-0.088968679,0.034033928,-0.000803445,-0.000520514,-0.000019331,0.891408741,0.035639722,9.752128601
1784151134.857309,0.002546754,-0.088968679,0.034033928,-0.000458029,-0.000755482,-0.000724172,0.862827718,0.010433162,9.756871223
1784151134.859237,0.002546683,-0.088968441,0.034033928,-0.000531611,-0.000817586,-0.000840411,0.840978086,0.022736697,9.767240524
1784151134.861221,0.002546683,-0.088968441,0.034033928,-0.001107678,-0.000554972,-0.000310443,0.837980092,-0.003553589,9.752273560
1784151134.863224,0.002545147,-0.088967055,0.034033928,-0.001793826,0.000053749,-0.000012724,0.862286448,0.004033911,9.775659561
1784151134.865205,0.002545147,-0.088967055,0.034033928,-0.002007527,0.000171121,0.000040333,0.880175412,-0.001930525,9.763084412
1784151134.867244,0.002545147,-0.088967055,0.034033928,-0.001735561,-0.000376519,-0.000158537,0.873633921,0.012211031,9.739407539
1784151134.869218,0.002544165,-0.088967100,0.034033928,-0.001547328,-0.000089400,-0.000624538,0.881670594,0.006929149,9.711585045
1784151134.871212,0.002544165,-0.088967100,0.034033928,-0.001374934,0.000169617,-0.000349919,0.859868228,0.023658233,9.729604721
1784151134.873206,0.002544431,-0.088967055,0.034033928,-0.000768290,-0.000242512,0.000118332,0.884491801,0.022096351,9.778935432
1784151134.875201,0.002544431,-0.088967055,0.034033928,-0.000285386,-0.000180878,0.000082441,0.876445293,0.024058444,9.769523621
1784151134.877206,0.002544431,-0.088967055,0.034033928,-0.000510291,-0.000037550,-0.000305109,0.862460494,0.018781647,9.780685425
1784151134.879215,0.002544045,-0.088966869,0.034033932,-0.000442980,-0.000243055,-0.000354121,0.877923012,0.034401536,9.761523247
1784151134.881206,0.002544045,-0.088966869,0.034033932,0.000149254,-0.000151501,0.000406661,0.888478220,0.017177446,9.770388603
1784151134.883206,0.002543611,-0.088967457,0.034033932,0.000298203,0.000443095,0.000494028,0.871429503,0.016195111,9.750191689
1784151134.885209,0.002543611,-0.088967457,0.034033932,0.000119331,0.000866664,-0.000309323,0.895604789,0.050611969,9.781371117
1784151134.887236,0.002543611,-0.088967457,0.034033932,0.000295029,0.001098495,-0.000659824,0.871099472,0.027269533,9.768644333
1784151134.889234,0.002544363,-0.088967346,0.034033932,0.000493996,0.001228182,-0.000518126,0.890198350,0.011295977,9.775284767
1784151134.891219,0.002544363,-0.088967346,0.034033932,0.000142395,0.000571492,-0.000329615,0.894848526,0.025900377,9.792418480
1784151134.893220,0.002544573,-0.088967629,0.034033928,-0.000477559,-0.000171194,-0.000483167,0.865251541,0.026416549,9.773116112
1784151134.895268,0.002544573,-0.088967629,0.034033928,-0.000921670,-0.000115573,-0.001042986,0.853563368,0.023150858,9.749322891
1784151134.897261,0.002544573,-0.088967629,0.034033928,-0.000917000,0.000173507,-0.001466954,0.851228535,0.016380696,9.760484695
1784151134.899225,0.002543762,-0.088966779,0.034033928,-0.000697214,0.000485334,-0.001052831,0.868873060,0.029055141,9.773584366
1784151134.901232,0.002543762,-0.088966779,0.034033928,-0.000465153,0.000693279,-0.000678931,0.862759590,0.006652332,9.784643173
1784151134.903272,0.002543370,-0.088966101,0.034033928,-0.000191196,0.000431976,-0.000787771,0.883687913,0.028925829,9.765079498
1784151134.905225,0.002543370,-0.088966101,0.034033928,0.000206797,0.000220818,-0.000758549,0.878427982,0.000897884,9.746513367
1784151134.907227,0.002543370,-0.088966101,0.034033928,0.000136162,0.000125983,-0.000918023,0.882482171,0.005023690,9.789134979
1784151134.909284,0.002542917,-0.088966370,0.034033928,-0.000369205,-0.000135647,-0.001126252,0.881258726,0.014114622,9.773053169
1784151134.911251,0.002542917,-0.088966370,0.034033928,-0.000245774,0.000009779,-0.001166980,0.870403528,0.006681782,9.766716957
1784151134.913235,0.002541590,-0.088966399,0.034033928,0.000244703,0.000398613,-0.001068075,0.862033546,0.017338954,9.732256889
1784151134.915260,0.002541590,-0.088966399,0.034033928,0.000741726,0.000335285,-0.000492282,0.889768362,0.011854610,9.760493279
1784151134.917248,0.002541590,-0.088966399,0.034033928,0.001280609,-0.000072961,-0.000038455,0.880285800,0.043014422,9.743198395
1784151134.919259,0.002542257,-0.088966586,0.034033928,0.000936998,0.000035548,-0.000031688,0.871755362,0.043488938,9.754850388
1784151134.921245,0.002542257,-0.088966586,0.034033928,-0.000395675,0.000359924,0.000027044,0.874844313,0.039391607,9.758414268
1784151134.923244,0.002543057,-0.088967055,0.034033928,-0.001133646,0.000343168,-0.000165884,0.861967981,0.013983829,9.763170242
1784151134.925237,0.002543057,-0.088967055,0.034033928,-0.000820372,0.000377223,-0.000539494,0.862787127,0.006465103,9.747878075
1784151134.927244,0.002543057,-0.088967055,0.034033928,-0.000443753,0.000760083,-0.000755278,0.852820039,-0.001052367,9.751855850
1784151134.929246,0.002542436,-0.088966385,0.034033928,-0.000493886,0.001132378,-0.000894419,0.855017960,-0.005493958,9.742415428
1784151134.931246,0.002542436,-0.088966385,0.034033928,-0.000698083,0.000990199,-0.000799780,0.849620879,-0.003903391,9.780527115
1784151134.933245,0.002540145,-0.088965528,0.034033928,-0.000816767,0.000328214,-0.000715849,0.854187489,0.002745820,9.782368660
1784151134.935262,0.002540145,-0.088965528,0.034033928,-0.000902166,-0.000098831,-0.000852967,0.874586999,0.017501939,9.749753952
1784151134.937261,0.002540145,-0.088965528,0.034033928,-0.000866056,0.000379315,-0.000677525,0.876151621,-0.000954243,9.759052277
1784151134.939259,0.002539542,-0.088965833,0.034033928,-0.000600907,0.001084826,-0.000511244,0.852137864,-0.019911859,9.758908272
1784151134.941258,0.002539542,-0.088965833,0.034033928,-0.000083445,0.001417398,-0.000733590,0.852864981,0.004570808,9.780138016
1784151134.943264,0.002539310,-0.088965036,0.034033936,0.000265582,0.000882246,-0.000286180,0.842541337,0.039427537,9.748518944
1784151134.945258,0.002539310,-0.088965036,0.034033936,-0.000209721,0.000046407,0.000667922,0.898897171,0.024714604,9.762825012
1784151134.947264,0.002539310,-0.088965036,0.034033936,-0.000841279,-0.000251771,0.001093476,0.885657966,0.044470184,9.780873299
1784151134.949260,0.002539546,-0.088966124,0.034033936,-0.000270535,-0.000549336,0.000953383,0.861267626,0.066514283,9.749158859
1784151134.951281,0.002539546,-0.088966124,0.034033936,0.000472215,-0.000713201,0.000455001,0.858619273,0.034979071,9.778095245
1784151134.953273,0.002539289,-0.088965341,0.034033936,0.000242929,-0.000193743,0.000004011,0.840917647,0.054176021,9.756682396
1784151134.955278,0.002539289,-0.088965341,0.034033936,-0.000121116,0.000436576,0.000037596,0.869027972,0.042030115,9.775910378
1784151134.957282,0.002539289,-0.088965341,0.034033936,-0.000519092,0.000373773,0.000293617,0.880323708,0.010586949,9.766751289
1784151134.959286,0.002538822,-0.088965625,0.034033932,-0.000917508,0.000206628,-0.000080330,0.881850481,0.025774943,9.770437241
1784151134.961282,0.002538822,-0.088965625,0.034033932,-0.000935082,0.000050686,-0.001128731,0.886819124,0.029619344,9.787951469
1784151134.963282,0.002538573,-0.088966340,0.034033936,-0.000626205,-0.000408481,-0.001875842,0.886341453,0.023722479,9.735906601
1784151134.965287,0.002538573,-0.088966340,0.034033936,-0.000164086,-0.000320196,-0.001334264,0.886598051,0.008015830,9.738945007
1784151134.967291,0.002538573,-0.088966340,0.034033936,0.000212985,0.000262117,-0.000359122,0.875548899,0.022862790,9.750237465
1784151134.969288,0.002538486,-0.088966772,0.034033936,0.000394336,0.000364786,0.000114646,0.870652616,0.026884545,9.760570526
1784151134.971289,0.002538486,-0.088966772,0.034033936,0.000234473,0.000138290,0.000204912,0.838771939,0.025491361,9.761876106
1784151134.973292,0.002537644,-0.088965334,0.034033932,-0.000132780,0.000244434,0.000524508,0.852110624,0.014221607,9.747470856
1784151134.975304,0.002537644,-0.088965334,0.034033932,-0.000724020,0.000644697,0.001498740,0.881315708,0.016996350,9.745723724
1784151134.977300,0.002537644,-0.088965334,0.034033932,-0.000630038,0.000826616,0.001558814,0.906866252,0.050814826,9.732514381
1784151134.979304,0.002538957,-0.088967375,0.034033939,-0.000183614,0.000688176,0.001096218,0.872710228,0.047579054,9.745013237
1784151134.981300,0.002533792,-0.088970669,0.034050781,-0.000461480,0.000297317,0.002146638,0.880298078,0.007953232,9.759114265
1784151134.983307,0.002534834,-0.088975623,0.034051988,-0.000431534,-0.000259249,0.002802401,0.901003182,0.012657675,9.753334999
1784151134.985304,0.002536499,-0.088972390,0.034044653,-0.000093655,-0.000225836,0.001604246,0.859644353,0.007706140,9.768059731
1784151134.987312,0.002538755,-0.088968307,0.034044728,0.000306111,0.000607366,0.000645895,0.847666919,0.017862780,9.747489929
1784151134.989311,0.002563765,-0.088959269,0.034082852,0.000906364,0.001439169,0.000882538,0.844687879,0.019889848,9.761845589
1784151134.991324,0.002571534,-0.088959664,0.034087535,0.001591207,0.001464598,0.001341289,0.883290827,0.032985486,9.761967659
1784151134.993315,0.002568851,-0.088964790,0.034087803,0.001558562,0.000735287,0.001279351,0.866079867,0.019781021,9.759624481
1784151134.995338,0.002566648,-0.088966392,0.034090236,0.000847007,0.000121964,0.001142421,0.862625122,-0.005350411,9.771565437
1784151134.997323,0.002565505,-0.088970423,0.034095425,0.000436731,-0.000291995,0.001367956,0.871760547,0.006750381,9.754614830
1784151134.999346,0.002567130,-0.088973016,0.034095183,0.000517450,-0.000650322,0.001315922,0.855275691,0.054798935,9.769252777
1784151135.001375,0.002568965,-0.088971451,0.034094799,0.000744016,-0.000532750,0.000883251,0.835321426,0.037578247,9.769572258
1784151135.003342,0.002569076,-0.088964954,0.034088641,0.000624608,-0.000081723,0.000190551,0.834583580,0.010579514,9.724117279
1784151135.005336,0.002572551,-0.088963613,0.034081999,0.000610786,0.000230714,-0.000747291,0.849881649,-0.021198383,9.754861832
1784151135.007341,0.002578001,-0.088966869,0.034082450,0.001011059,0.000037370,-0.001017001,0.881068230,0.035206333,9.768703461
1784151135.009392,0.002585956,-0.088969313,0.034081981,0.001588628,-0.000324988,-0.000817122,0.884402156,0.014093457,9.770365715
1784151135.011384,0.002587719,-0.088969879,0.034082118,0.001758220,-0.000406262,-0.000670893,0.875298202,0.002647303,9.758177757
1784151135.013384,0.002584192,-0.088967063,0.034081403,0.001270101,-0.000171108,-0.000527595,0.848784208,-0.003818387,9.707001686
1784151135.015366,0.002580894,-0.088960394,0.034079250,0.000558491,0.000490791,-0.000547399,0.873430192,-0.003582079,9.755447388
1784151135.017361,0.002581502,-0.088960938,0.034077402,0.000200878,0.000773805,-0.000652939,0.888880730,0.012349046,9.755563736
1784151135.019356,0.002582477,-0.088958800,0.034078319,0.000263209,0.000777399,-0.000549921,0.864636540,0.012141593,9.765401840
1784151135.021359,0.002574674,-0.088953950,0.034078408,-0.000248378,0.001144900,-0.000293208,0.842572808,0.043729100,9.773653030
1784151135.023371,0.002572810,-0.088949032,0.034085143,-0.000820934,0.001412230,0.000308677,0.873308241,0.025750630,9.789258957
1784151135.025370,0.002579255,-0.088946752,0.034089983,-0.000245992,0.001432849,0.000982423,0.868640780,0.009389361,9.767182350
1784151135.027368,0.002579011,-0.088943534,0.034086213,0.000246512,0.001415505,0.000751104,0.848522365,0.014683764,9.751953125
1784151135.029369,0.002578670,-0.088939659,0.034078229,0.000119346,0.001431201,-0.000248406,0.860608578,0.013896151,9.777962685
1784151135.031368,0.002581763,-0.088935241,0.034081977,0.000297699,0.001526721,-0.000488242,0.872971416,0.033124071,9.761061668
1784151135.033371,0.002580213,-0.088934302,0.034081593,0.000371155,0.001503710,-0.000140062,0.870342433,0.037304688,9.744946480
1784151135.035370,0.002579476,-0.088931665,0.034083117,0.000152417,0.001364662,-0.000013893,0.851702690,0.018602036,9.762292862
1784151135.037375,0.002584380,-0.088929363,0.034087289,0.000427100,0.001329023,0.000349852,0.863977551,0.031866554,9.765078545
1784151135.039431,0.002584443,-0.088936009,0.034094732,0.000727902,0.000669568,0.001008607,0.841830909,0.018725341,9.762731552
1784151135.041425,0.002587731,-0.088938445,0.034095529,0.000817490,-0.000132098,0.001269885,0.858936489,0.025019612,9.791932106
1784151135.043404,0.002593743,-0.088939123,0.034091510,0.001214424,-0.000318717,0.000650633,0.849178731,0.030906361,9.737711906
1784151135.045400,0.002601820,-0.088942438,0.034095403,0.001846075,-0.000513464,0.000380250,0.850960016,0.031181881,9.758786201
1784151135.047388,0.002600124,-0.088941671,0.034098435,0.001817994,-0.000545286,0.000706618,0.907475948,0.027458476,9.739537239
1784151135.049438,0.002596570,-0.088941909,0.034094352,0.000952252,-0.000250491,0.000475455,0.878328264,0.031215539,9.767779350
1784151135.051412,0.002601283,-0.088946678,0.034088049,0.000698747,-0.000413690,-0.000362368,0.871107221,0.026519861,9.748015404
1784151135.053404,0.002599372,-0.088950329,0.034083027,0.000637096,-0.000875447,-0.001046635,0.862127900,0.026593519,9.753835678
1784151135.055411,0.002599337,-0.088950053,0.034079533,0.000288019,-0.000867897,-0.001327062,0.855892241,0.031496648,9.768655777
1784151135.057414,0.002598594,-0.088948198,0.034078121,0.000127645,-0.000486864,-0.001294435,0.866670847,0.030624906,9.745796204
1784151135.059410,0.002595552,-0.088945366,0.034076776,-0.000169005,-0.000082348,-0.001107779,0.874952137,0.011567760,9.764512062
1784151135.061419,0.002589915,-0.088943221,0.034079198,-0.000692960,0.000231885,-0.000683353,0.877613425,0.009668287,9.774812698
1784151135.063415,0.002595377,-0.088946059,0.034084570,-0.000391716,0.000163014,0.000022402,0.880666912,0.001237613,9.757725716
1784151135.065492,0.002607645,-0.088949934,0.034086440,0.001035111,-0.000295274,0.000391768,0.884168625,0.032414734,9.777654648
1784151135.067423,0.002597871,-0.088946916,0.034084477,0.000922121,-0.000272286,0.000263864,0.884920537,0.019501399,9.765020370
1784151135.069419,0.002586714,-0.088944420,0.034084808,-0.000745995,0.000247316,0.000207074,0.852181137,0.020451725,9.753338814
1784151135.071423,0.002588742,-0.088942863,0.034082308,-0.001166424,0.000527939,0.000058109,0.857211292,0.027212825,9.738592148
1784151135.073433,0.002589116,-0.088942163,0.034084707,-0.000697414,0.000543576,0.000021976,0.873002529,0.035395674,9.756592751
1784151135.075437,0.002585330,-0.088945322,0.034086719,-0.000721666,0.000232824,0.000336262,0.833718896,0.054518837,9.784474373
1784151135.077431,0.002590720,-0.088947505,0.034085039,-0.000415311,-0.000193159,0.000257739,0.861673355,0.026148127,9.754281044
1784151135.079448,0.002592647,-0.088946454,0.034085438,0.000172723,-0.000236544,0.000058187,0.849993348,0.024162728,9.739461899
1784151135.081445,0.002592546,-0.088947788,0.034085397,0.000239751,-0.000211140,0.000056974,0.850193679,0.041143917,9.745399475
1784151135.083440,0.002591791,-0.088949271,0.034088697,0.000087237,-0.000371783,0.000271394,0.885998189,-0.003708075,9.750525475
1784151135.085444,0.002590769,-0.088948764,0.034090180,-0.000077001,-0.000362907,0.000536525,0.896771610,0.033778884,9.752121925
1784151135.087448,0.002590144,-0.088949963,0.034078345,-0.000229940,-0.000313774,-0.000299099,0.877076924,0.038060315,9.752579689
1784151135.089455,0.002587563,-0.088952832,0.034074262,-0.000541113,-0.000435608,-0.001270074,0.861935914,0.012109314,9.774814606
1784151135.091448,0.002582781,-0.088949636,0.034076229,-0.000965660,-0.000222108,-0.001019303,0.839711487,0.027433868,9.739024162
1784151135.093459,0.002578414,-0.088945858,0.034077331,-0.001363277,0.000202151,-0.000474226,0.861221611,0.026535062,9.763696671
1784151135.095505,0.002576953,-0.088948004,0.034080364,-0.001421935,0.000148414,-0.000024643,0.865458369,0.006265266,9.771194458
1784151135.097497,0.002576317,-0.088947453,0.034077607,-0.001175873,-0.000000071,0.000013895,0.854389191,0.017306326,9.750630379
1784151135.099474,0.002572861,-0.088947341,0.034074977,-0.001085130,-0.000014966,-0.000336739,0.879979312,0.017899979,9.747071266
1784151135.101525,0.002565277,-0.088949390,0.034074791,-0.001473479,-0.000202237,-0.000377256,0.911017060,0.022977386,9.733237267
1784151135.103526,0.002560983,-0.088949993,0.034080483,-0.001882381,-0.000160854,0.000171676,0.893370628,0.012313815,9.752429008
1784151135.105488,0.002555399,-0.088945173,0.034082644,-0.002030907,0.000334776,0.000718813,0.852854431,0.001244666,9.743801117
1784151135.107478,0.002554499,-0.088949159,0.034082249,-0.001907321,0.000300011,0.000682315,0.872679472,0.044093926,9.731093407
1784151135.109511,0.002558162,-0.088948533,0.034083880,-0.001204910,0.000034646,0.000565104,0.855551541,0.040054996,9.762882233
1784151135.111480,0.002557752,-0.088946983,0.034087565,-0.000635531,0.000217031,0.000752679,0.856283724,0.026175776,9.760104179
1784151135.113480,0.002552742,-0.088948928,0.034089200,-0.000802337,0.000085848,0.000941085,0.868088722,0.001284122,9.773855209
1784151135.115487,0.002551504,-0.088950790,0.034086913,-0.001015829,-0.000240280,0.000679767,0.869139433,0.012614737,9.753752708
1784151135.117495,0.002550613,-0.088951573,0.034086805,-0.000898453,-0.000353924,0.000346109,0.866767108,0.039085288,9.753023148
1784151135.119491,0.002553713,-0.088945851,0.034084633,-0.000572218,0.000082780,0.000088268,0.837913156,0.029455015,9.773110390
1784151135.121493,0.002556831,-0.088948518,0.034081407,-0.000082249,0.000273638,-0.000334549,0.846007228,0.029894879,9.759669304
1784151135.123491,0.002555337,-0.088950731,0.034079313,-0.000021100,-0.000178329,-0.000610225,0.876832247,0.019512679,9.778013229
1784151135.125499,0.002549549,-0.088951275,0.034085963,-0.000519111,-0.000362166,-0.000089032,0.860135496,0.048867702,9.775496483
1784151135.127502,0.002549540,-0.088945791,0.034091584,-0.000696091,0.000074783,0.000799578,0.870584726,0.021080127,9.757843018
1784151135.129502,0.002554235,-0.088941075,0.034092277,-0.000151056,0.000748690,0.000980626,0.867867947,0.018083829,9.743026733
1784151135.131505,0.002557921,-0.088937894,0.034086458,0.000426945,0.001080550,0.000317639,0.856811106,0.030033527,9.720676422
1784151135.133507,0.002560443,-0.088937812,0.034080196,0.000610364,0.000985652,-0.000618888,0.871623397,0.034342129,9.781243324
1784151135.135513,0.002559443,-0.088937119,0.034090228,0.000522627,0.000750162,-0.000201257,0.862244964,0.037649464,9.774081230
1784151135.137515,0.002562931,-0.088936426,0.034095068,0.000638505,0.000644130,0.000843758,0.883539975,0.016004911,9.755132675
1784151135.139520,0.002564540,-0.088937275,0.034091208,0.000833113,0.000517567,0.000648195,0.874827385,0.002478170,9.782835007
1784151135.141514,0.002557400,-0.088940434,0.034094781,0.000248829,0.000163318,0.000485064,0.863478184,0.025797993,9.737243652
1784151135.143518,0.002553957,-0.088946491,0.034105856,-0.000473086,-0.000511955,0.001410434,0.872829556,0.021467553,9.762331963
1784151135.145522,0.002553265,-0.088949114,0.034103356,-0.000599774,-0.000969423,0.001634088,0.865595698,0.016670119,9.756913185
1784151135.147522,0.002556493,-0.088945910,0.034096692,-0.000320659,-0.000669080,0.000555563,0.900362134,0.033335805,9.744948387
1784151135.149523,0.002556963,-0.088945903,0.034095176,0.000012022,-0.000182023,-0.000174276,0.886888623,0.033409711,9.758835793
1784151135.151523,0.002556427,-0.088951573,0.034105219,0.000100530,-0.000426605,0.000445776,0.885325551,0.015908780,9.765445709
1784151135.153532,0.002556453,-0.088957973,0.034114536,0.000176043,-0.001095416,0.001634886,0.857701719,0.032804813,9.770459175
1784151135.155534,0.002560679,-0.088962823,0.034119409,0.000521819,-0.001529451,0.002122810,0.846682072,0.048290510,9.754856110
1784151135.157532,0.002564513,-0.088963926,0.034117322,0.000941847,-0.001518598,0.001686067,0.870376766,0.041628499,9.766942024
1784151135.159536,0.002565781,-0.088964731,0.034117136,0.001015922,-0.001290209,0.001043832,0.876377821,0.055037107,9.760756493
1784151135.161541,0.002565685,-0.088965528,0.034117103,0.000816579,-0.001104095,0.000738144,0.867426515,0.020173579,9.765007973
1784151135.163542,0.002572418,-0.088963278,0.034119010,0.001035415,-0.000721113,0.000625721,0.877449274,-0.003379817,9.782799721
1784151135.165538,0.002579278,-0.088963330,0.034116138,0.001647967,-0.000391565,0.000310151,0.872680426,0.008537089,9.753729820
1784151135.167548,0.002582425,-0.088963099,0.034115866,0.001858112,-0.000274167,-0.000047160,0.877155006,-0.030019011,9.749004364
1784151135.169545,0.002584510,-0.088962004,0.034117363,0.001903544,-0.000045371,0.000000050,0.870949745,-0.022444008,9.766082764
1784151135.171546,0.002584974,-0.088962525,0.034114178,0.001737618,0.000070560,-0.000146674,0.875441670,0.015126617,9.767224312
1784151135.173550,0.002584740,-0.088959411,0.034114454,0.001292810,0.000284833,-0.000307508,0.886738241,0.019659640,9.739468575
1784151135.175554,0.002581566,-0.088949874,0.034117132,0.000758228,0.001124622,-0.000006008,0.875593603,0.026862642,9.754747391
1784151135.177556,0.002582164,-0.088941708,0.034119345,0.000407765,0.002023192,0.000341654,0.878810883,0.034720358,9.778113365
1784151135.179567,0.002585475,-0.088934891,0.034115605,0.000513223,0.002496786,0.000125140,0.885813713,0.056641441,9.770191193
1784151135.181558,0.002580572,-0.088931918,0.034113020,0.000189099,0.002487905,-0.000324026,0.904590249,0.048965879,9.744605064
1784151135.183566,0.002585073,-0.088934757,0.034114022,-0.000035377,0.001957340,-0.000329207,0.884871066,0.015463389,9.765892029
1784151135.185565,0.002593144,-0.088936448,0.034115255,0.000701313,0.001254028,-0.000152799,0.859111667,0.000970222,9.771153450
1784151135.187568,0.002599381,-0.088935971,0.034113396,0.001474511,0.000830447,-0.000240038,0.878278017,0.027577806,9.775378227
1784151135.189565,0.002596819,-0.088934392,0.034117702,0.001352452,0.000743592,-0.000032668,0.872025967,0.066293620,9.760824203
1784151135.191572,0.002592920,-0.088934399,0.034121323,0.000611245,0.000648697,0.000550430,0.840132713,0.025185129,9.739459038
1784151135.193574,0.002595857,-0.088932700,0.034125581,0.000431592,0.000449911,0.000938958,0.866565049,0.020468066,9.725108147
1784151135.195602,0.002599976,-0.088936441,0.034122977,0.000805338,0.000050545,0.000752032,0.869035065,0.004900826,9.767601967
1784151135.197588,0.002601010,-0.088933006,0.034122795,0.000918317,0.000015089,0.000328200,0.873230755,0.019059833,9.785180092
1784151135.199591,0.002601010,-0.088933006,0.034122795,0.000806578,0.000476223,0.000202366,0.873230755,0.019059833,9.785180092
1784151135.201604,0.002608520,-0.088924706,0.034124106,0.001158800,0.000719254,-0.000177960,0.864725888,0.019331228,9.762310982
1784151135.203593,0.002609459,-0.088929370,0.034120109,0.001174293,0.000393372,-0.000205484,0.875576794,0.025108958,9.749355316
1784151135.205598,0.002610044,-0.088929676,0.034121465,0.000730887,-0.000003555,0.000169994,0.857840896,0.006445674,9.759530067
1784151135.207592,0.002612259,-0.088926986,0.034124464,0.000846581,0.000134871,0.000392450,0.876635373,0.002153475,9.762212753
1784151135.209630,0.002611414,-0.088929988,0.034132358,0.000873591,0.000053571,0.001004696,0.891526818,0.008708607,9.758681297
1784151135.211612,0.002613120,-0.088935085,0.034133065,0.000798149,-0.000471723,0.001303549,0.872707248,0.047960237,9.754432678
1784151135.213602,0.002614807,-0.088931426,0.034134552,0.000875704,-0.000403076,0.001072690,0.889527678,0.028091894,9.745800972
1784151135.215599,0.002606333,-0.088926055,0.034136187,0.000197859,0.000320046,0.001033457,0.856061339,0.008209641,9.766714096
1784151135.217604,0.002596783,-0.088925920,0.034128468,-0.001021086,0.000552097,0.000442477,0.849119067,0.024762092,9.719738007
1784151135.219601,0.002594703,-0.088927463,0.034123711,-0.001515270,0.000251796,-0.000459383,0.860807121,0.027621152,9.737701416
1784151135.221637,0.002601021,-0.088924818,0.034127757,-0.000807951,0.000233195,-0.000409546,0.859270036,0.049537010,9.745910645
1784151135.223631,0.002606548,-0.088924952,0.034136504,0.000303027,0.000315904,0.000494729,0.862084746,0.021389682,9.729592323
1784151135.225629,0.002602216,-0.088922769,0.034133434,0.000335755,0.000369077,0.000737019,0.871434331,0.018260038,9.774862289
1784151135.227676,0.002605493,-0.088919140,0.034134295,0.000183182,0.000700912,0.000391374,0.862428427,0.016097059,9.780220032
1784151135.229651,0.002607486,-0.088916034,0.034138206,0.000541834,0.001006925,0.000573924,0.861608088,0.021579487,9.766804695
1784151135.231639,0.002607568,-0.088912822,0.034139514,0.000549088,0.001160262,0.000760274,0.862500429,0.020313142,9.754243851
1784151135.233629,0.002614999,-0.088918217,0.034138534,0.000892510,0.000694560,0.000532312,0.862262070,0.038189638,9.761084557
1784151135.235625,0.002614736,-0.088920943,0.034145955,0.001173561,-0.000043560,0.000779262,0.880622208,0.035637800,9.771843910
1784151135.237612,0.002616415,-0.088917717,0.034151979,0.001039623,-0.000022745,0.001467187,0.875922024,0.054582175,9.762547493
1784151135.239640,0.002618576,-0.088914812,0.034151103,0.001056010,0.000372716,0.001392976,0.880408406,0.018145051,9.774869919
1784151135.241636,0.002614524,-0.088920049,0.034152310,0.000665634,0.000180934,0.001046771,0.888166428,0.028394939,9.768667221
1784151135.243635,0.002613798,-0.088921130,0.034153283,0.000197184,-0.000227666,0.000937189,0.868949711,0.033712815,9.748508453
1784151135.245633,0.002620195,-0.088924050,0.034146339,0.000491151,-0.000438417,0.000245092,0.885792375,0.016856186,9.757383347
1784151135.247629,0.002618441,-0.088927045,0.034139480,0.000596721,-0.000713560,-0.000783447,0.891898811,0.038391691,9.742283821
1784151135.249648,0.002612080,-0.088929653,0.034140468,-0.000141223,-0.000890977,-0.000920131,0.866858900,0.047104079,9.759351730
1784151135.251637,0.002607762,-0.088923395,0.034144014,-0.000854905,-0.000428779,-0.000294616,0.859946787,0.032788791,9.768668175
1784151135.253638,0.002605366,-0.088918321,0.034140591,-0.001133348,0.000429294,-0.000160580,0.882702827,0.021760413,9.766377449
1784151135.255643,0.002599827,-0.088918544,0.034138728,-0.001394044,0.000643247,-0.000426354,0.878085494,0.011873727,9.778862953
1784151135.257669,0.002596803,-0.088919505,0.034139287,-0.001553325,0.000347139,-0.000351660,0.875354767,0.044735964,9.762034416
1784151135.259652,0.002602301,-0.088925146,0.034138929,-0.000914013,-0.000236922,-0.000261995,0.862137079,0.027476722,9.755634308
1784151135.261650,0.002605229,-0.088921078,0.034136843,-0.000064781,-0.000359225,-0.000410998,0.864478290,-0.000455372,9.772943497
1784151135.263649,0.002606289,-0.088919766,0.034136117,0.000251596,0.000022918,-0.000517400,0.879654944,-0.009381128,9.740620613
1784151135.265652,0.002603588,-0.088920578,0.034138251,0.000080817,0.000051650,-0.000272009,0.881966531,0.034391128,9.755698204
1784151135.267650,0.002603066,-0.088915125,0.034134954,-0.000202797,0.000363281,-0.000254343,0.875224650,0.032361567,9.738193512
1784151135.269654,0.002609535,-0.088910960,0.034133937,0.000191565,0.000927466,-0.000509418,0.857184768,0.027002968,9.768179893
1784151135.271651,0.002615323,-0.088908754,0.034132808,0.000927263,0.001026984,-0.000587949,0.887380123,0.037794545,9.771417618
1784151135.273658,0.002611417,-0.088904746,0.034134049,0.000775481,0.001087571,-0.000429696,0.893740475,0.007227870,9.773918152
1784151135.275661,0.002612292,-0.088900290,0.034135733,0.000377653,0.001367466,-0.000096931,0.865884364,0.003648060,9.760417938
1784151135.277658,0.002609402,-0.088901579,0.034136627,0.000246741,0.001209891,0.000107619,0.871858001,0.014003612,9.742554665
1784151135.279660,0.002612607,-0.088898174,0.034136113,0.000295619,0.001022543,0.000093991,0.881810427,0.021406613,9.754718781
1784151135.281665,0.002615555,-0.088899024,0.034134518,0.000639831,0.000955948,-0.000113627,0.875076771,0.059057381,9.764816284
1784151135.283664,0.002610082,-0.088902138,0.034131579,0.000289355,0.000464602,-0.000376608,0.833953023,0.035797294,9.770455360
1784151135.285667,0.002611542,-0.088899940,0.034120746,-0.000143525,0.000274332,-0.001181297,0.849146724,0.029438468,9.755187988
1784151135.287664,0.002613812,-0.088898130,0.034119539,0.000031629,0.000363981,-0.001693246,0.845051527,0.024178267,9.746183395
1784151135.289669,0.002614483,-0.088901669,0.034125421,0.000206636,0.000043822,-0.000931003,0.866399884,0.007006974,9.728158951
1784151135.291676,0.002616144,-0.088906653,0.034125868,0.000402284,-0.000550793,-0.000269312,0.846314728,0.017832337,9.754213333
1784151135.293676,0.002619624,-0.088902190,0.034128316,0.000713981,-0.000444263,-0.000036726,0.885828614,0.019979196,9.759196281
1784151135.295675,0.002622586,-0.088899009,0.034124572,0.000947787,0.000193017,-0.000152990,0.853529632,0.020453557,9.750649452
1784151135.297685,0.002623963,-0.088901199,0.034121241,0.000987010,0.000157030,-0.000619771,0.860861480,0.033724084,9.761502266
1784151135.299682,0.002619760,-0.088904902,0.034124821,0.000575309,-0.000335739,-0.000421560,0.874382794,0.001705645,9.766241074
1784151135.301695,0.002614015,-0.088905804,0.034124088,-0.000175361,-0.000529191,-0.000060338,0.875500202,0.018831134,9.750212669
1784151135.303682,0.002611863,-0.088907361,0.034120124,-0.000629002,-0.000523921,-0.000319731,0.864531040,0.039171278,9.744952202
1784151135.305691,0.002616268,-0.088906661,0.034123700,-0.000308208,-0.000438547,-0.000272534,0.850718558,0.011039529,9.756415367
1784151135.307684,0.002626339,-0.088895917,0.034128159,0.000836858,0.000402797,0.000255037,0.854344070,0.014923437,9.770789146
1784151135.309711,0.002633507,-0.088886775,0.034134701,0.001875703,0.001588368,0.000823401,0.839908004,0.044789884,9.755275726
1784151135.311690,0.002638891,-0.088887177,0.034136400,0.002190747,0.001701727,0.001088151,0.848718107,0.029603200,9.732770920
1784151135.313694,0.002639535,-0.088886403,0.034137238,0.001944778,0.001215563,0.000934110,0.888937771,0.016040845,9.740345001
1784151135.315689,0.002636158,-0.088880293,0.034138814,0.001246468,0.001352752,0.000859909,0.885811448,0.017412258,9.742142677
1784151135.317692,0.002633170,-0.088878714,0.034141816,0.000558132,0.001597626,0.000968843,0.877808511,0.022961227,9.732307434
1784151135.319692,0.002628558,-0.088882439,0.034146961,-0.000005373,0.001109164,0.001297112,0.850909710,0.027947582,9.772663116
1784151135.321697,0.002632739,-0.088882782,0.034145687,-0.000020472,0.000463066,0.001210331,0.841557503,0.032678295,9.754303932
1784151135.323693,0.002634182,-0.088879369,0.034146879,0.000354196,0.000476093,0.000843538,0.878661871,0.020169752,9.745291710
1784151135.325727,0.002634211,-0.088877268,0.034148738,0.000375996,0.000720841,0.000811919,0.883236349,0.025665853,9.720225334
1784151135.327711,0.002633841,-0.088877335,0.034148108,0.000227281,0.000703584,0.000679223,0.866699457,0.032877430,9.744016647
1784151135.329711,0.002642559,-0.088877164,0.034148339,0.000696507,0.000559788,0.000420275,0.859538734,0.036762599,9.777659416
1784151135.331706,0.002647673,-0.088877648,0.034143135,0.001381887,0.000381435,-0.000111214,0.845050454,0.024168732,9.747527122
1784151135.333709,0.002647544,-0.088876866,0.034143638,0.001284777,0.000293494,-0.000426904,0.862463713,0.018807087,9.777099609
1784151135.335711,0.002649749,-0.088871911,0.034148380,0.001108001,0.000604350,0.000031008,0.861813962,0.001015215,9.759948730
1784151135.337723,0.002653192,-0.088871382,0.034142595,0.001233028,0.000794837,-0.000086501,0.871603489,-0.005837044,9.760810852
1784151135.339717,0.002660066,-0.088869870,0.034142677,0.001611668,0.000698618,-0.000515941,0.884426177,0.052684274,9.762094498
1784151135.341714,0.002661918,-0.088869102,0.034141906,0.001670269,0.000682650,-0.000467791,0.857687652,0.032693528,9.786149979
1784151135.343711,0.002656294,-0.088874929,0.034146138,0.000893063,0.000173666,-0.000075752,0.868902445,0.030907398,9.765078545
1784151135.345720,0.002652420,-0.088879481,0.034151878,0.000068543,-0.000575198,0.000676674,0.851465166,0.036484893,9.768236160
1784151135.347724,0.002648865,-0.088877946,0.034147236,-0.000471328,-0.000649651,0.000613769,0.854112208,0.032040734,9.758346558
1784151135.349726,0.002646137,-0.088876635,0.034149915,-0.000805570,-0.000307215,0.000353625,0.855817556,0.024828104,9.761440277
1784151135.351723,0.002649314,-0.088880748,0.034149345,-0.000547305,-0.000424587,0.000397540,0.844970822,0.018272109,9.757801056
1784151135.353729,0.002652134,-0.088882081,0.034143690,-0.000034249,-0.000689934,-0.000166664,0.859290242,0.014942866,9.759139061
1784151135.355729,0.002651579,-0.088882893,0.034145750,0.000106531,-0.000647953,-0.000378170,0.884418011,0.014624084,9.758711815
1784151135.357729,0.002650912,-0.088879950,0.034147277,0.000012314,-0.000312361,-0.000025413,0.870195031,-0.009959554,9.776024818
1784151135.359731,0.002651655,-0.088874154,0.034150556,0.000038775,0.000380626,0.000306424,0.882272243,0.022719316,9.758313179
1784151135.361736,0.002656830,-0.088876285,0.034153640,0.000452113,0.000556782,0.000619167,0.874781549,0.035248674,9.774078369
1784151135.363731,0.002660913,-0.088878758,0.034157444,0.000982171,0.000124556,0.000862288,0.863966286,0.030967459,9.765522003
1784151135.365734,0.002660440,-0.088876590,0.034153115,0.000956346,0.000068992,0.000570843,0.853602767,0.026299302,9.747550011
1784151135.367750,0.002659892,-0.088873982,0.034155473,0.000633282,0.000302227,0.000287363,0.877213717,0.011682098,9.744338989
1784151135.369743,0.002666918,-0.088876665,0.034150463,0.000900862,0.000143280,-0.000010442,0.871466994,0.020544365,9.768599510
1784151135.371743,0.002670194,-0.088878997,0.034144085,0.001311686,-0.000205065,-0.000842104,0.870353341,0.039417312,9.762893677
1784151135.373743,0.002662994,-0.088881098,0.034148466,0.000705653,-0.000417498,-0.000727096,0.861759365,0.035742536,9.791105270
1784151135.375742,0.002661742,-0.088881448,0.034158211,0.000027611,-0.000468570,0.000476099,0.870166421,0.023757746,9.760101318
1784151135.377747,0.002669362,-0.088881768,0.034156960,0.000475893,-0.000423061,0.000885226,0.864413381,0.029732302,9.749374390
1784151135.379748,0.002671837,-0.088881269,0.034155298,0.000985750,-0.000333017,0.000389598,0.852800071,-0.002021422,9.762161255
1784151135.381809,0.002673602,-0.088881001,0.034156103,0.001104064,-0.000229689,0.000190814,0.875610769,0.027809449,9.747580528
1784151135.383775,0.002673708,-0.088880986,0.034153957,0.001027193,-0.000188544,0.000027500,0.877138138,0.044217303,9.768758774
1784151135.385785,0.002673898,-0.088882297,0.034150738,0.000735991,-0.000226483,-0.000344950,0.896534026,0.050851662,9.745955467
1784151135.387771,0.002675595,-0.088888168,0.034153908,0.000555831,-0.000562666,-0.000256908,0.897169888,0.030538844,9.765998840
1784151135.389761,0.002679532,-0.088893257,0.034153141,0.000692699,-0.001063338,-0.000049354,0.880929947,0.022361735,9.747998238
1784151135.391760,0.002683350,-0.088899747,0.034147862,0.001027895,-0.001516954,-0.000493985,0.867787063,0.010960962,9.736704826
1784151135.393758,0.002682108,-0.088906601,0.034142073,0.000891790,-0.001967422,-0.001126047,0.865537226,0.012155535,9.761816978
1784151135.395760,0.002677360,-0.088907130,0.034146156,0.000234428,-0.001933786,-0.000899400,0.885153413,0.039576977,9.776806831
1784151135.397774,0.002673850,-0.088903934,0.034153733,-0.000401388,-0.001175268,0.000190192,0.857821167,0.004263099,9.751446724
1784151135.399817,0.002669889,-0.088900737,0.034155499,-0.000825295,-0.000370135,0.000822952,0.847905457,0.037982881,9.752999306
1784151135.401795,0.002667366,-0.088900119,0.034154404,-0.001063475,-0.000068699,0.000686725,0.869349539,0.028052084,9.724711418
1784151135.403816,0.002666779,-0.088904105,0.034156434,-0.001007219,-0.000337562,0.000585129,0.862964571,0.020834835,9.743040085
1784151135.405817,0.002664068,-0.088903800,0.034152962,-0.000965456,-0.000496440,0.000348858,0.869053602,0.041826990,9.741387367
1784151135.407780,0.002667670,-0.088898204,0.034147087,-0.000745679,0.000055179,-0.000378850,0.866266787,0.034630515,9.750304222
1784151135.409803,0.002672859,-0.088891886,0.034145698,-0.000038928,0.000864561,-0.000815579,0.873307049,0.022904251,9.748443604
1784151135.411786,0.002672686,-0.088896908,0.034145970,0.000359006,0.000768822,-0.000704493,0.874463260,0.006798558,9.742961884
1784151135.413818,0.002670345,-0.088900149,0.034152657,0.000188463,0.000052418,-0.000032192,0.871515810,0.023765936,9.756516457
1784151135.415793,0.002679016,-0.088904284,0.034158740,0.000642132,-0.000459810,0.000801528,0.881003797,-0.008566047,9.749592781
1784151135.417787,0.002682386,-0.088914067,0.034163110,0.001439266,-0.001196762,0.001209029,0.866041243,0.016638935,9.760499954
1784151135.419822,0.002677714,-0.088918835,0.034165837,0.001097686,-0.001776791,0.001359769,0.862117231,0.026104217,9.759661674
1784151135.421795,0.002669071,-0.088921234,0.034161601,-0.000067887,-0.001808369,0.000964853,0.868438363,-0.008014346,9.757655144
1784151135.423787,0.002668086,-0.088919379,0.034159899,-0.000694388,-0.001381801,0.000355086,0.875630021,0.030392274,9.762391090
1784151135.425799,0.002674367,-0.088916846,0.034163654,-0.000135337,-0.000706784,0.000365816,0.873799145,0.026888821,9.754296303
1784151135.427797,0.002681227,-0.088912964,0.034164283,0.000815604,-0.000077573,0.000483573,0.868031323,0.033152338,9.765987396
1784151135.429801,0.002684381,-0.088909820,0.034161352,0.001256677,0.000422168,0.000135945,0.867539644,0.028360886,9.747575760
1784151135.431796,0.002686510,-0.088916808,0.034159407,0.001281273,0.000070341,-0.000266173,0.863153517,-0.001079677,9.737071037
1784151135.433790,0.002685649,-0.088914692,0.034159314,0.001044780,-0.000256543,-0.000343287,0.849934340,-0.016324857,9.762514114
1784151135.435809,0.002687899,-0.088910237,0.034160580,0.000862085,0.000260077,-0.000178654,0.849545181,0.024578281,9.744844437
1784151135.437796,0.002689681,-0.088908762,0.034159739,0.000963222,0.000544350,-0.000131068,0.827774227,0.006802254,9.763538361
1784151135.439847,0.002687857,-0.088906638,0.034158494,0.000746224,0.000593466,-0.000242159,0.894174695,0.041860782,9.754412651
1784151135.441801,0.002686787,-0.088910848,0.034159113,0.000313920,0.000379440,-0.000198553,0.870677054,0.028698653,9.757444382
1784151135.443841,0.002683658,-0.088913485,0.034159858,-0.000077183,-0.000100526,-0.000024298,0.875899851,0.014790560,9.750635147
1784151135.445822,0.002687910,-0.088911392,0.034156498,0.000003932,-0.000110257,-0.000201760,0.886876047,0.031284373,9.742681503
1784151135.447809,0.002690789,-0.088910624,0.034156419,0.000410647,0.000239442,-0.000418759,0.859928608,0.031429011,9.770901680
1784151135.449809,0.002693670,-0.088912569,0.034161717,0.000666419,0.000220991,0.000017283,0.848457277,0.009711678,9.758196831
1784151135.451812,0.002692967,-0.088915065,0.034156941,0.000740329,-0.000221338,0.000025487,0.898997724,-0.003976553,9.764883995
1784151135.453810,0.002694567,-0.088919856,0.034155440,0.000666557,-0.000737417,-0.000421116,0.867124498,0.031874016,9.758357048
1784151135.455815,0.002696149,-0.088921532,0.034160353,0.000721288,-0.000974536,-0.000095649,0.850219846,0.044997498,9.770531654
1784151135.457818,0.002697582,-0.088926792,0.034159251,0.000670676,-0.001146520,0.000177413,0.856510162,0.009420591,9.784655571
1784151135.459817,0.002701091,-0.088931337,0.034157392,0.000723186,-0.001467886,-0.000093961,0.865645051,0.019491432,9.738101959
1784151135.461818,0.002700489,-0.088931076,0.034158636,0.000710320,-0.001378458,-0.000127466,0.890315235,0.018298382,9.735427856
1784151135.463817,0.002692590,-0.088926226,0.034156844,-0.000069815,-0.000675469,-0.000077339,0.881034791,0.032915659,9.775862694
1784151135.465817,0.002692882,-0.088926978,0.034152567,-0.000601649,-0.000215417,-0.000420141,0.875198245,0.031748269,9.761504173
1784151135.467833,0.002694221,-0.088932708,0.034148317,-0.000417432,-0.000569079,-0.000889420,0.868312776,0.019262979,9.765451431
1784151135.469824,0.002698809,-0.088935189,0.034152430,0.000057802,-0.000941711,-0.000689830,0.875937641,0.018736361,9.762764931
1784151135.471820,0.002697518,-0.088938199,0.034152601,0.000333095,-0.001016295,-0.000236565,0.863078654,-0.006534694,9.748244286
1784151135.473826,0.002694556,-0.088938713,0.034151766,-0.000006679,-0.000937038,-0.000195310,0.862495899,0.021898301,9.783395767
1784151135.475822,0.002696004,-0.088937156,0.034152687,-0.000106728,-0.000611124,-0.000127424,0.871355116,0.010339828,9.754637718
1784151135.477833,0.002693892,-0.088933691,0.034147453,-0.000121713,-0.000102453,-0.000383247,0.859222531,0.007924937,9.738021851
1784151135.479826,0.002687990,-0.088936515,0.034143399,-0.000659549,-0.000030426,-0.000860941,0.855413735,0.027620187,9.747559547
1784151135.481829,0.002687100,-0.088943154,0.034146182,-0.000951982,-0.000702315,-0.000671259,0.873309553,0.023329955,9.751585007
1784151135.483843,0.002690659,-0.088940099,0.034153439,-0.000457131,-0.000789746,0.000174307,0.901104450,0.022372922,9.773123741
1784151135.485831,0.002686583,-0.088938728,0.034150384,-0.000342599,-0.000272489,0.000414051,0.872989357,0.035697371,9.777217865
1784151135.487831,0.002678223,-0.088943772,0.034148768,-0.001130780,-0.000351044,0.000061278,0.837971449,0.036399823,9.804536819
1784151135.489836,0.002679717,-0.088942476,0.034149159,-0.001307694,-0.000413772,0.000003456,0.848275363,0.032896932,9.774486542
1784151135.491833,0.002684117,-0.088945210,0.034146570,-0.000568419,-0.000467943,-0.000181748,0.880986452,0.027670497,9.757448196
1784151135.493837,0.002681982,-0.088949710,0.034147929,-0.000269402,-0.000901359,-0.000228984,0.873173118,0.012931460,9.764966965
1784151135.495837,0.002677684,-0.088951245,0.034144036,-0.000646543,-0.001066468,-0.000299605,0.875703812,-0.000535510,9.763986588
1784151135.497843,0.002673249,-0.088951558,0.034142081,-0.001043812,-0.000860114,-0.000566048,0.879853129,0.009204299,9.773018837
1784151135.499846,0.002671069,-0.088951014,0.034141589,-0.001169466,-0.000568887,-0.000542482,0.863393188,0.020670095,9.765456200
1784151135.501849,0.002674978,-0.088947073,0.034139588,-0.000716154,-0.000146283,-0.000577431,0.870887995,0.009389235,9.763149261
1784151135.503849,0.002677153,-0.088935964,0.034139555,-0.000088854,0.000878344,-0.000598426,0.848330081,0.036166206,9.755677223
1784151135.505852,0.002672477,-0.088936463,0.034139905,-0.000231936,0.001359928,-0.000399528,0.875756860,0.039904393,9.747656822
1784151135.507845,0.002666060,-0.088936858,0.034137670,-0.000941148,0.000925869,-0.000350226,0.875775456,0.042077411,9.757086754
1784151135.509888,0.002666761,-0.088939808,0.034140363,-0.001080193,0.000442823,-0.000188277,0.879356623,0.041964658,9.766504288
1784151135.511860,0.002665064,-0.088939987,0.034142513,-0.000892089,0.000158144,0.000201312,0.866730452,0.037579250,9.775878906
1784151135.513862,0.002655710,-0.088933550,0.034142211,-0.001452979,0.000589141,0.000343158,0.855985403,0.037904825,9.749419212
1784151135.515859,0.002651310,-0.088933237,0.034139652,-0.002005674,0.000888554,0.000139299,0.885858953,0.020624291,9.731404305
1784151135.517854,0.002650508,-0.088938378,0.034132563,-0.001890782,0.000366224,-0.000517963,0.885094166,-0.002533939,9.776086807
1784151135.519857,0.002645219,-0.088935412,0.034131277,-0.001859590,0.000165718,-0.000905593,0.896361768,-0.001066696,9.738448143
1784151135.521860,0.002640882,-0.088933043,0.034133121,-0.001922892,0.000556790,-0.000571360,0.868397951,0.025204126,9.748901367
1784151135.523862,0.002643342,-0.088929109,0.034134947,-0.001426239,0.000906830,-0.000164183,0.889559329,0.029963225,9.734605789
1784151135.525861,0.002642555,-0.088924371,0.034137271,-0.000900787,0.001249952,0.000151244,0.875540316,0.021579321,9.741711617
1784151135.527859,0.002645341,-0.088925473,0.034130782,-0.000574402,0.001179965,-0.000180449,0.861110985,0.017556755,9.766330719
1784151135.529862,0.002642388,-0.088932298,0.034126174,-0.000524918,0.000341814,-0.000878064,0.875140429,0.026833409,9.759678841
1784151135.531866,0.002640676,-0.088932656,0.034125507,-0.000688742,-0.000269161,-0.000971398,0.864637256,0.012958026,9.776617050
1784151135.533873,0.002639949,-0.088933975,0.034126475,-0.000624067,-0.000340465,-0.000675979,0.859227479,0.009989857,9.762692451
1784151135.535881,0.002639970,-0.088934869,0.034133922,-0.000451700,-0.000397080,0.000080958,0.858984947,0.026617860,9.756073952
1784151135.537869,0.002640775,-0.088935532,0.034135621,-0.000181194,-0.000404109,0.000668903,0.870502591,0.051537689,9.759384155
1784151135.539878,0.002632927,-0.088932976,0.034127153,-0.000612096,-0.000180159,0.000068540,0.869170010,0.013666457,9.731792450
1784151135.541875,0.002631750,-0.088932924,0.034123290,-0.001123228,0.000059323,-0.000729742,0.849824786,0.012699784,9.776599884
1784151135.543881,0.002633343,-0.088936128,0.034122061,-0.000813704,-0.000154209,-0.000879117,0.831530690,0.018609930,9.734477043
1784151135.545892,0.002634592,-0.088939890,0.034124531,-0.000393270,-0.000584400,-0.000573964,0.899890542,-0.004429654,9.763983727
1784151135.547880,0.002642122,-0.088940561,0.034127720,0.000439043,-0.000689022,-0.000096939,0.894088507,-0.002083312,9.759510040
1784151135.549879,0.002649415,-0.088940650,0.034125961,0.001428552,-0.000515388,-0.000072363,0.898371339,0.016005959,9.728247643
1784151135.551884,0.002651496,-0.088946834,0.034126911,0.001675892,-0.000725113,-0.000165396,0.873169124,0.012899664,9.769450188
1784151135.553880,0.002653268,-0.088946804,0.034121174,0.001458896,-0.000872175,-0.000468442,0.836237609,0.037309565,9.742671013
1784151135.555883,0.002654839,-0.088940203,0.034124263,0.001272888,-0.000187927,-0.000540429,0.877933979,0.035704087,9.767358780
1784151135.557878,0.002656917,-0.088941388,0.034128457,0.001243278,0.000215307,0.000074684,0.869302094,0.063646704,9.759909630
1784151135.559880,0.002660305,-0.088939019,0.034125820,0.001309940,0.000222556,0.000124192,0.895597994,0.046911009,9.734720230
1784151135.561885,0.002661966,-0.088934533,0.034125853,0.001183430,0.000699363,-0.000108171,0.879296362,0.038247421,9.785310745
1784151135.563888,0.002660723,-0.088932097,0.034121197,0.000766101,0.001050882,-0.000386249,0.882125020,0.010614826,9.759581566
1784151135.565966,0.002664502,-0.088933975,0.034116704,0.000674357,0.000802685,-0.000916230,0.871843040,0.014696039,9.771252632
1784151135.567899,0.002668338,-0.088937163,0.034115199,0.001018428,0.000202358,-0.001123483,0.875809371,0.007998005,9.760903358
1784151135.569898,0.002667273,-0.088938475,0.034114007,0.000961514,-0.000197208,-0.001022017,0.862825394,0.009604007,9.747451782
1784151135.571895,0.002659373,-0.088939719,0.034116223,0.000125341,-0.000337718,-0.000623592,0.891349733,0.030715324,9.751648903
1784151135.573900,0.002658095,-0.088938385,0.034114752,-0.000499890,-0.000259802,-0.000350416,0.869231164,0.019823443,9.747971535
1784151135.575895,0.002661257,-0.088939197,0.034111284,-0.000266679,-0.000153702,-0.000601336,0.855747998,0.019821044,9.772616386
1784151135.577898,0.002659982,-0.088944271,0.034110054,-0.000083820,-0.000544638,-0.000768665,0.864441037,0.033598609,9.772713661
1784151135.579900,0.002652078,-0.088949010,0.034113027,-0.000659843,-0.001094871,-0.000387718,0.893602788,0.030762892,9.740891457
1784151135.581902,0.002643763,-0.088950194,0.034113314,-0.001564060,-0.001131386,0.000035473,0.875400007,0.011555653,9.765409470
1784151135.583901,0.002647506,-0.088952921,0.034114946,-0.001443411,-0.001021402,0.000183296,0.877027452,0.033212233,9.741338730
1784151135.585905,0.002655223,-0.088956200,0.034116931,-0.000254868,-0.001151249,0.000309614,0.859512746,0.034125704,9.770469666
1784151135.587903,0.002657513,-0.088957034,0.034118168,0.000503515,-0.001154575,0.000383921,0.863656819,0.043014098,9.773221016
1784151135.589904,0.002658993,-0.088957049,0.034118548,0.000624598,-0.000935914,0.000366392,0.879284799,0.034508303,9.744040489
1784151135.591907,0.002655776,-0.088957973,0.034116894,0.000333726,-0.000753539,0.000190683,0.855593324,0.006442628,9.764012337
1784151135.593910,0.002656795,-0.088955864,0.034116708,0.000087316,-0.000476093,0.000027327,0.855848610,0.027099714,9.756971359
1784151135.595922,0.002654464,-0.088956095,0.034114867,-0.000037325,-0.000220460,-0.000109342,0.864375770,0.027409818,9.761014938
1784151135.597914,0.002650695,-0.088959053,0.034111857,-0.000439176,-0.000407867,-0.000373946,0.878727853,0.026364895,9.756092072
1784151135.599913,0.002652371,-0.088956669,0.034107454,-0.000476383,-0.000365937,-0.000763877,0.889470220,0.023586845,9.749359131
1784151135.601935,0.002655633,-0.088953681,0.034109008,-0.000083636,0.000090402,-0.000774121,0.859647930,0.045324724,9.770542145
1784151135.603925,0.002657076,-0.088950023,0.034113131,0.000238221,0.000508910,-0.000203390,0.891780734,0.029759597,9.759264946
1784151135.605917,0.002650318,-0.088951319,0.034115691,-0.000145430,0.000531690,0.000336191,0.898951709,0.029197393,9.762407303
1784151135.607918,0.002647277,-0.088956989,0.034116935,-0.000773880,0.000013068,0.000563267,0.883969247,0.015439908,9.770821571
1784151135.609933,0.002649879,-0.088957883,0.034122482,-0.000580801,-0.000336649,0.000874295,0.880028903,0.022344617,9.752033234
1784151135.611927,0.002655210,-0.088956326,0.034117546,0.000071494,-0.000198070,0.000634533,0.869054139,0.043046858,9.758879662
1784151135.613923,0.002657819,-0.088954754,0.034114558,0.000495590,0.000068968,-0.000116945,0.889200151,0.040402081,9.779505730
1784151135.615922,0.002655095,-0.088952944,0.034120172,0.000369009,0.000281550,0.000093195,0.879022598,0.050980501,9.759387970
1784151135.617927,0.002655177,-0.088948138,0.034115929,-0.000082516,0.000638611,0.000192681,0.880123138,0.030789098,9.761502266
1784151135.619936,0.002656877,-0.088947922,0.034116857,-0.000140601,0.000789914,-0.000078005,0.873469412,-0.000030180,9.759951591
1784151135.621934,0.002656969,-0.088951558,0.034115333,0.000100114,0.000356112,-0.000115313,0.860049665,0.003710081,9.762205124
1784151135.623934,0.002653490,-0.088950731,0.034114465,-0.000085508,0.000080536,-0.000233098,0.856852233,0.036031529,9.759271622
1784151135.625935,0.002653397,-0.088951506,0.034111489,-0.000327040,0.000061473,-0.000408318,0.873836040,0.032448400,9.791543961
1784151135.627933,0.002654844,-0.088960879,0.034109093,-0.000219854,-0.000548666,-0.000665200,0.868817687,0.024159363,9.769069672
1784151135.629936,0.002662079,-0.088964358,0.034104630,0.000344770,-0.001177499,-0.000997004,0.868414402,0.026954621,9.754741669
1784151135.631938,0.002662138,-0.088957533,0.034105685,0.000693933,-0.000646410,-0.000998633,0.856845379,0.035977479,9.766892433
1784151135.633938,0.002663176,-0.088958360,0.034104951,0.000551804,-0.000077021,-0.000710605,0.888519108,0.018715287,9.743049622
1784151135.635939,0.002663053,-0.088961616,0.034110773,0.000494507,-0.000330688,-0.000179497,0.869304240,-0.010300625,9.762573242
1784151135.637935,0.002662268,-0.088961482,0.034108929,0.000416977,-0.000496653,0.000135250,0.847829223,-0.007098422,9.728948593
1784151135.639943,0.002658568,-0.088963307,0.034110159,0.000090976,-0.000522884,0.000075810,0.873977184,0.004078382,9.748322487
1784151135.641945,0.002654036,-0.088963062,0.034106616,-0.000434589,-0.000448338,-0.000057686,0.876790702,0.013511486,9.739868164
1784151135.643941,0.002657039,-0.088957846,0.034111429,-0.000342611,0.000085608,0.000047060,0.892215014,0.028019240,9.751184464
1784151135.645938,0.002656857,-0.088959537,0.034120988,0.000027905,0.000304005,0.000989385,0.859427989,0.027377663,9.774461746
1784151135.647951,0.002655287,-0.088961266,0.034119911,-0.000122787,-0.000052123,0.001311284,0.820907116,0.031243127,9.741271973
1784151135.649946,0.002658388,-0.088963605,0.034111075,-0.000121634,-0.000359004,0.000282069,0.855897725,0.031134540,9.756548882
1784151135.651947,0.002660061,-0.088964067,0.034101833,0.000116602,-0.000491586,-0.001044477,0.885020435,0.028800471,9.780323029
1784151135.653944,0.002656942,-0.088961124,0.034100212,-0.000086873,-0.000227330,-0.001485938,0.872993290,0.034512471,9.754794121
1784151135.655955,0.002658096,-0.088960096,0.034101363,-0.000199076,0.000104466,-0.001102684,0.860275328,0.022108285,9.757839203
1784151135.657953,0.002661776,-0.088960633,0.034101613,0.000149947,0.000070990,-0.000734077,0.902437568,0.018607017,9.733201027
1784151135.659958,0.002656934,-0.088963717,0.034094729,-0.000049679,-0.000233391,-0.000973282,0.878445148,0.039028022,9.740032196
1784151135.661955,0.002662794,-0.088965528,0.034095455,-0.000032824,-0.000492988,-0.001129442,0.859073520,0.034611210,9.765989304
1784151135.663953,0.002668588,-0.088961124,0.034098905,0.000760999,-0.000172426,-0.000607309,0.839279056,0.030810267,9.769083977
1784151135.665954,0.002674753,-0.088958278,0.034098126,0.001379024,0.000367322,-0.000333481,0.854936898,0.027403370,9.778940201
1784151135.667962,0.002679595,-0.088957317,0.034091081,0.001719348,0.000478038,-0.000839770,0.842847168,0.027352290,9.744854927
1784151135.669961,0.002680336,-0.088956311,0.034093808,0.001621746,0.000434764,-0.000939058,0.870270371,-0.004501346,9.764404297
1784151135.671962,0.002678649,-0.088964641,0.034099646,0.001307983,-0.000103656,-0.000112008,0.879388690,0.006249202,9.748342514
1784151135.673960,0.002679438,-0.088966481,0.034095682,0.001042192,-0.000690713,0.000038050,0.858120322,-0.009486350,9.731183052
1784151135.675972,0.002678536,-0.088963822,0.034093186,0.000712490,-0.000447508,-0.000408719,0.850367904,0.018708307,9.749739647
1784151135.677968,0.002678011,-0.088963866,0.034091193,0.000363678,-0.000252050,-0.000589842,0.890457094,0.030764984,9.746268272
1784151135.679972,0.002677553,-0.088962302,0.034092467,0.000162422,-0.000183778,-0.000469392,0.872010350,0.027769571,9.759681702
1784151135.681967,0.002674441,-0.088959418,0.034095626,-0.000108886,0.000117078,-0.000019408,0.852100134,0.051728893,9.765644073
1784151135.683978,0.002669028,-0.088961244,0.034098029,-0.000634753,0.000105135,0.000414902,0.843643129,0.056835663,9.755805969
1784151135.685968,0.002666779,-0.088960662,0.034092475,-0.000999499,-0.000008106,0.000135030,0.850088656,0.033020195,9.753865242
1784151135.687979,0.002673713,-0.088953182,0.034094404,-0.000463418,0.000459393,-0.000172827,0.874261379,0.027394617,9.745333672
1784151135.689974,0.002681823,-0.088951178,0.034095664,0.000668578,0.000897527,0.000001764,0.870983660,0.016223116,9.747053146
1784151135.691980,0.002684718,-0.088954575,0.034096710,0.001269537,0.000589364,0.000088997,0.882918417,0.002082527,9.760871887
1784151135.693980,0.002686749,-0.088950120,0.034100369,0.001310861,0.000529920,0.000351406,0.879356265,0.003561436,9.748324394
1784151135.696080,0.002686586,-0.088948250,0.034098469,0.001091797,0.000814395,0.000363479,0.881448328,0.028579744,9.754764557
1784151135.698037,0.002686698,-0.088952973,0.034096073,0.000800373,0.000449514,-0.000028262,0.876047671,0.028114920,9.766860008
1784151135.700026,0.002689007,-0.088956513,0.034101572,0.000799955,-0.000181555,0.000172060,0.870671093,0.028650953,9.764167786
1784151135.702020,0.002695351,-0.088957891,0.034102041,0.001144326,-0.000502001,0.000481781,0.870163023,0.023325684,9.757857323
1784151135.704073,0.002698371,-0.088953674,0.034100704,0.001401980,-0.000210661,0.000240998,0.900229931,0.022565652,9.747570038
1784151135.706003,0.002701365,-0.088954471,0.034096140,0.001392366,0.000077693,-0.000259232,0.894748688,0.015791224,9.765006065
1784151135.708001,0.002702953,-0.088957362,0.034095820,0.001363015,-0.000090429,-0.000553580,0.892982960,0.018069919,9.762777328
1784151135.710059,0.002711894,-0.088958398,0.034108091,0.001845206,-0.000225087,0.000333883,0.864754975,0.021586932,9.760081291
1784151135.712005,0.002718127,-0.088956922,0.034107022,0.002433437,-0.000163302,0.000909451,0.850830257,0.021647513,9.776659012
1784151135.714005,0.002721977,-0.088954233,0.034099352,0.002397598,0.000128784,0.000011603,0.846898437,-0.008160910,9.754047394
1784151135.716005,0.002720209,-0.088953428,0.034100238,0.001846560,0.000328120,-0.000462861,0.854758859,0.012623827,9.778397560
1784151135.718005,0.002714192,-0.088951357,0.034108531,0.000916343,0.000310071,0.000327012,0.867469192,0.022537392,9.747538567
1784151135.720003,0.002707642,-0.088948913,0.034109265,-0.000085611,0.000408304,0.000920582,0.892101824,0.019425308,9.762784958
1784151135.722003,0.002705031,-0.088950373,0.034106616,-0.000686950,0.000501127,0.000595139,0.871200740,0.071737893,9.752789497
1784151135.724001,0.002703887,-0.088945106,0.034109991,-0.000743557,0.000761738,0.000504153,0.856360435,0.067613348,9.729435921
1784151135.726006,0.002699514,-0.088939339,0.034119483,-0.000837131,0.001307049,0.001270151,0.853281319,0.035820343,9.732366562
1784151135.728003,0.002702061,-0.088937454,0.034122024,-0.000709760,0.001378651,0.001754462,0.854341805,0.047227271,9.701505661
1784151135.730006,0.002707823,-0.088940740,0.034124915,0.000028471,0.000814979,0.001599421,0.868330657,0.019809518,9.751555443
1784151135.732008,0.002706994,-0.088940129,0.034128610,0.000439882,0.000441158,0.001576738,0.869090378,0.045359809,9.748582840
1784151135.734007,0.002699571,-0.088940568,0.034126844,-0.000179941,0.000360179,0.001325146,0.892205358,0.027132854,9.749833107
1784151135.736012,0.002694058,-0.088938355,0.034122061,-0.001045218,0.000380965,0.000600096,0.874580860,0.018264309,9.768589973
1784151135.738008,0.002694788,-0.088933513,0.034125861,-0.001093713,0.000765824,0.000399822,0.840586126,0.026837695,9.758299828
1784151135.740019,0.002697108,-0.088929310,0.034126330,-0.000567760,0.001182250,0.000562455,0.843857825,0.038771562,9.775416374
1784151135.742016,0.002704572,-0.088927343,0.034123495,0.000211580,0.001232340,0.000192751,0.858360112,0.048233245,9.741866112
1784151135.744014,0.002708724,-0.088927932,0.034123842,0.000902410,0.000943628,-0.000096242,0.895895183,0.035982497,9.758860588
1784151135.746012,0.002701323,-0.088923886,0.034122363,0.000430905,0.000922700,-0.000126747,0.885403812,0.023416013,9.780737877
1784151135.748019,0.002699421,-0.088920392,0.034122963,-0.000343302,0.001217752,-0.000093769,0.881203592,0.008005329,9.750147820
1784151135.750017,0.002703659,-0.088924423,0.034121960,-0.000117574,0.000884425,-0.000107648,0.837704420,0.011596985,9.764475822
1784151135.752023,0.002705038,-0.088930659,0.034119174,0.000346244,-0.000152043,-0.000374431,0.862895966,0.016240753,9.759149551
1784151135.754019,0.002708675,-0.088934399,0.034118932,0.000648037,-0.000889042,-0.000514580,0.863668919,0.007546297,9.783304214
1784151135.756024,0.002710784,-0.088931821,0.034121517,0.000874624,-0.000726256,-0.000251733,0.857887745,0.011678124,9.779739380
1784151135.758046,0.002709550,-0.088929720,0.034117717,0.000737151,-0.000207095,-0.000275121,0.871088147,0.025153724,9.751145363
1784151135.760036,0.002707317,-0.088929683,0.034114819,0.000310451,-0.000003260,-0.000636635,0.851637721,0.012009805,9.744317055
1784151135.762028,0.002709644,-0.088927023,0.034114562,0.000270468,0.000158983,-0.000682864,0.860075712,0.042316802,9.751693726
1784151135.764030,0.002709801,-0.088921830,0.034124207,0.000478273,0.000629512,0.000116180,0.858847082,0.054203235,9.783599854
1784151135.766030,0.002715835,-0.088917434,0.034127951,0.000847560,0.001112383,0.000952128,0.849098206,0.026623523,9.773101807
1784151135.768032,0.002716654,-0.088923208,0.034127921,0.001073410,0.000676635,0.000906786,0.886036754,0.001054149,9.773870468
1784151135.770051,0.002716534,-0.088926628,0.034124926,0.000781106,-0.000173307,0.000454871,0.886012077,-0.002383276,9.753225327
1784151135.772057,0.002720039,-0.088927194,0.034113582,0.000791901,-0.000340044,-0.000665749,0.881236613,0.009482757,9.731328964
1784151135.774048,0.002719698,-0.088928513,0.034113254,0.000800890,-0.000318636,-0.001300792,0.888769925,0.003774192,9.764474869
1784151135.776044,0.002718459,-0.088927992,0.034114186,0.000480122,-0.000286825,-0.000897357,0.868243396,0.013042398,9.758237839
1784151135.778046,0.002722499,-0.088927768,0.034112927,0.000537101,-0.000158236,-0.000692669,0.842111111,0.004016362,9.751430511
1784151135.780046,0.002719791,-0.088933647,0.034120366,0.000518608,-0.000498661,-0.000094775,0.850340843,0.017278582,9.761834145
1784151135.782042,0.002715677,-0.088940218,0.034127705,0.000028290,-0.001231368,0.000969140,0.874539077,0.014286712,9.760942459
1784151135.784048,0.002712692,-0.088940464,0.034127146,-0.000395823,-0.001383112,0.001204659,0.859169483,0.006695146,9.785088539
1784151135.786044,0.002709391,-0.088938840,0.034124423,-0.000733054,-0.000913170,0.000693452,0.861326158,0.034655593,9.755681038
1784151135.788046,0.002710867,-0.088938981,0.034129806,-0.000690561,-0.000594253,0.000700459,0.872952998,-0.005422229,9.763055801
1784151135.790062,0.002711430,-0.088943757,0.034127943,-0.000393181,-0.000797000,0.000739666,0.861029327,0.007590697,9.718743324
1784151135.792071,0.002712384,-0.088941045,0.034124076,-0.000172879,-0.000742874,0.000137545,0.881428659,0.025993729,9.740400314
1784151135.794055,0.002715431,-0.088936128,0.034131292,0.000210340,-0.000043527,0.000298647,0.866646647,0.030434128,9.772695541
1784151135.796041,0.002719224,-0.088938840,0.034132391,0.000665820,0.000120062,0.000739293,0.857574940,0.021672562,9.760972977
1784151135.798056,0.002716908,-0.088936351,0.034132663,0.000562820,0.000066588,0.000625403,0.881220520,0.010165643,9.761370659
1784151135.800056,0.002714857,-0.088925473,0.034134913,0.000099723,0.000949111,0.000655264,0.877501070,0.037050538,9.767815590
1784151135.802102,0.002714948,-0.088923074,0.034131628,-0.000128555,0.001592394,0.000424467,0.875923634,0.016194858,9.742125511
1784151135.804080,0.002706374,-0.088927083,0.034142021,-0.000686867,0.001053638,0.000845808,0.890332401,0.021675391,9.764592171
1784151135.806067,0.002702319,-0.088927925,0.034150165,-0.001242476,0.000441905,0.001945572,0.867910504,0.058441050,9.738353729
1784151135.808068,0.002711643,-0.088928856,0.034146301,-0.000629887,0.000207815,0.001684477,0.854325294,0.050743815,9.774158478
1784151135.810090,0.002716539,-0.088929914,0.034141377,0.000342741,0.000019363,0.000556314,0.861046195,0.048151050,9.748593330
1784151135.812074,0.002712675,-0.088927731,0.034136157,0.000222219,0.000125118,-0.000283555,0.859817386,0.022040902,9.768151283
1784151135.814071,0.002710579,-0.088926353,0.034131952,-0.000334105,0.000368650,-0.000804949,0.861403763,0.006593267,9.795401573
1784151135.816077,0.002710381,-0.088927895,0.034127094,-0.000453230,0.000254988,-0.001185947,0.886149168,0.046825062,9.763851166
1784151135.818075,0.002707954,-0.088928871,0.034122251,-0.000613802,0.000029210,-0.001500517,0.882535934,0.045469943,9.771909714
1784151135.820076,0.002706047,-0.088925399,0.034119133,-0.000835853,0.000207076,-0.001601574,0.862853765,0.013070054,9.764061928
1784151135.822075,0.002712310,-0.088925764,0.034114379,-0.000328549,0.000329767,-0.001728325,0.864878178,-0.006519538,9.742865562
1784151135.824073,0.002722128,-0.088926636,0.034111235,0.000833561,0.000123057,-0.001893259,0.858119905,-0.006652694,9.773793221
1784151135.826092,0.002725874,-0.088926263,0.034121968,0.001570083,0.000057123,-0.000948058,0.863882601,0.023822341,9.762337685
1784151135.828085,0.002724553,-0.088921830,0.034134388,0.001438903,0.000369412,0.000860670,0.851554096,0.006081382,9.759074211
1784151135.830089,0.002725206,-0.088917889,0.034135517,0.001076204,0.000837655,0.001547413,0.892481387,0.012795538,9.749292374
1784151135.832122,0.002722993,-0.088915795,0.034131374,0.000705808,0.001150773,0.000928161,0.898853898,0.018294079,9.720641136
1784151135.834088,0.002718440,-0.088916063,0.034133334,0.000089134,0.001094075,0.000565164,0.858107209,0.028405307,9.758326530
1784151135.836108,0.002716054,-0.088916384,0.034140836,-0.000347056,0.000759773,0.001093392,0.886942029,0.039099660,9.777700424
1784151135.838093,0.002721586,-0.088915370,0.034143917,-0.000030523,0.000653281,0.001498024,0.898815632,0.017992005,9.763231277
1784151135.840123,0.002721249,-0.088918552,0.034143310,0.000289666,0.000380176,0.001232240,0.849645138,0.033877358,9.760146141
1784151135.842092,0.002718669,-0.088921525,0.034136910,-0.000004235,-0.000205423,0.000439919,0.849422514,0.013477826,9.730874062
1784151135.844090,0.002715578,-0.088915668,0.034138240,-0.000392853,-0.000019057,0.000010273,0.880394161,0.016817072,9.772619247
1784151135.846100,0.002712838,-0.088908732,0.034135871,-0.000686695,0.000853132,-0.000027856,0.889795840,0.013287528,9.747948647
1784151135.848098,0.002707973,-0.088904239,0.034131236,-0.001008471,0.001474108,-0.000453024,0.889628232,0.000617431,9.765800476
1784151135.850094,0.002707588,-0.088905036,0.034131438,-0.001068133,0.001401626,-0.000602935,0.879647970,0.028558221,9.761037827
1784151135.852092,0.002711927,-0.088907421,0.034134183,-0.000503053,0.000871516,-0.000262540,0.871036768,0.023126591,9.784308434
1784151135.854100,0.002716603,-0.088905968,0.034140732,0.000289067,0.000640790,0.000384044,0.857080698,0.018482169,9.769470215
1784151135.856114,0.002722759,-0.088901550,0.034143157,0.000997049,0.000867502,0.000821378,0.850436270,0.024515910,9.752017975
1784151135.858101,0.002722135,-0.088896498,0.034143146,0.001153778,0.001183070,0.000725047,0.875586152,0.026398787,9.756984711
1784151135.860137,0.002718788,-0.088896982,0.034140676,0.000595965,0.001079879,0.000381170,0.911027908,0.026710145,9.775403976
1784151135.862107,0.002720133,-0.088902287,0.034141593,0.000310961,0.000535086,0.000182391,0.862553179,0.024376575,9.749786377
1784151135.864101,0.002727112,-0.088904761,0.034142982,0.000824670,0.000003218,0.000236547,0.865239263,0.025914531,9.780733109
1784151135.866111,0.002729491,-0.088908769,0.034141820,0.001234821,-0.000437741,0.000131343,0.876356125,0.015655294,9.754228592
1784151135.868128,0.002727077,-0.088905267,0.034143280,0.000959232,-0.000357131,0.000110185,0.888251126,0.035142969,9.764675140
1784151135.870106,0.002724329,-0.088898897,0.034143839,0.000422217,0.000406301,0.000242578,0.854033589,0.025747029,9.761445045
1784151135.872102,0.002721721,-0.088900797,0.034141675,-0.000081388,0.000551123,0.000101882,0.893105507,0.028763758,9.770915031
1784151135.874108,0.002724762,-0.088903792,0.034145113,-0.000039649,0.000021250,0.000158961,0.868661404,0.010768229,9.762259483
1784151135.876106,0.002733770,-0.088903181,0.034153920,0.000859493,-0.000144229,0.000871069,0.857794225,0.001213230,9.739321709
1784151135.878108,0.002734449,-0.088897020,0.034158900,0.001447973,0.000293250,0.001501146,0.875578940,0.025531471,9.752944946
1784151135.880115,0.002729046,-0.088898018,0.034155443,0.000828490,0.000501795,0.001217747,0.879176259,0.025545891,9.744431496
1784151135.882113,0.002730651,-0.088899761,0.034155328,0.000355269,0.000224076,0.000665881,0.888664722,0.029996986,9.731466293
1784151135.884112,0.002729238,-0.088897385,0.034155454,0.000301815,0.000251281,0.000482216,0.875591159,0.062406752,9.733903885
1784151135.886112,0.002726835,-0.088895217,0.034151744,-0.000059692,0.000491896,0.000132514,0.879298329,0.036236547,9.753017426
1784151135.888117,0.002723973,-0.088895701,0.034150831,-0.000505074,0.000543481,-0.000177375,0.898985147,0.031488072,9.755247116
1784151135.890125,0.002726673,-0.088894404,0.034149725,-0.000468875,0.000522289,-0.000258465,0.892055869,0.015415913,9.759621620
1784151135.892120,0.002722706,-0.088891953,0.034150224,-0.000386340,0.000703682,-0.000226094,0.882785797,0.028899170,9.770459175
1784151135.894126,0.002717803,-0.088893734,0.034147073,-0.000852637,0.000626064,-0.000294775,0.869300067,0.027660988,9.779853821
1784151135.896126,0.002713385,-0.088895038,0.034147441,-0.001268156,0.000246352,-0.000346730,0.860784233,0.025819771,9.739035606
1784151135.898180,0.002714476,-0.088893183,0.034152329,-0.001117360,0.000213735,0.000122952,0.887724400,0.027238045,9.743104935
1784151135.900138,0.002718806,-0.088895127,0.034156427,-0.000393678,0.000146140,0.000664411,0.856621444,0.017188547,9.763185501
1784151135.902164,0.002723825,-0.088893533,0.034159504,0.000368506,0.000059251,0.000914608,0.873070419,0.041200094,9.759320259
1784151135.904141,0.002721419,-0.088893801,0.034161400,0.000455117,0.000109666,0.000988451,0.847514391,0.044117004,9.773212433
1784151135.906130,0.002717532,-0.088892929,0.034156218,-0.000113738,0.000120308,0.000535646,0.860865057,0.033752706,9.757467270
1784151135.908130,0.002717835,-0.088895455,0.034148429,-0.000420595,-0.000102993,-0.000463252,0.884282351,0.004231950,9.771198273
1784151135.910203,0.002721351,-0.088896610,0.034152709,-0.000086475,-0.000401325,-0.000595099,0.879604161,0.023754664,9.743522644
1784151135.912151,0.002724368,-0.088894904,0.034154605,0.000431666,-0.000157515,-0.000056328,0.901823342,0.004741863,9.730868340
1784151135.914152,0.002724345,-0.088888556,0.034157552,0.000561648,0.000527186,0.000266385,0.866658747,0.030529520,9.759245872
1784151135.916152,0.002720505,-0.088894628,0.034156885,0.000161678,0.000402121,0.000370854,0.857172489,0.024880812,9.751578331
1784151135.918144,0.002712813,-0.088899240,0.034153443,-0.000698016,-0.000490499,0.000062502,0.884014666,0.019446123,9.774435043
1784151135.920142,0.002715144,-0.088891797,0.034148339,-0.000933861,-0.000224911,-0.000499391,0.871850193,0.013536573,9.745242119
1784151135.922148,0.002720030,-0.088885620,0.034139749,-0.000246129,0.000771919,-0.001336126,0.853680968,0.033806536,9.762840271
1784151135.924147,0.002714248,-0.088886298,0.034131721,-0.000311279,0.000947114,-0.002094062,0.856629908,0.018472023,9.771711349
1784151135.926156,0.002709607,-0.088890508,0.034131248,-0.000982711,0.000357739,-0.002037435,0.864100099,0.004160355,9.754590988
1784151135.928150,0.002708658,-0.088888802,0.034128312,-0.001036923,0.000083807,-0.001687746,0.890840232,0.026594033,9.765070915
1784151135.930159,0.002707278,-0.088885590,0.034125242,-0.000871607,0.000387237,-0.001628443,0.873960316,0.003944842,9.767151833
1784151135.932155,0.002708631,-0.088888176,0.034123059,-0.000573199,0.000354153,-0.001550270,0.858795881,-0.026244117,9.755287170
1784151135.934158,0.002717706,-0.088888511,0.034119312,0.000347007,0.000089148,-0.001601859,0.865596116,0.017483372,9.768575668
1784151135.936157,0.002717451,-0.088888496,0.034118202,0.000819837,0.000041664,-0.001548684,0.883826733,0.040963545,9.773226738
1784151135.938170,0.002711501,-0.088893227,0.034120101,0.000238775,-0.000201817,-0.001043234,0.854612947,0.036498703,9.760617256
1784151135.940161,0.002710549,-0.088895112,0.034123447,-0.000204706,-0.000506848,-0.000368882,0.840460837,0.052901488,9.747707367
1784151135.942168,0.002714122,-0.088888682,0.034129269,0.000002047,-0.000178126,0.000342910,0.846006632,0.030295147,9.766397476
1784151135.944188,0.002719754,-0.088881336,0.034128986,0.000576007,0.000688524,0.000576780,0.868499279,0.034109283,9.756579399
1784151135.946171,0.002716495,-0.088885210,0.034119293,0.000520066,0.000737206,-0.000267748,0.865995169,0.011412846,9.739395142
1784151135.948171,0.002708012,-0.088887975,0.034114111,-0.000378385,-0.000008496,-0.001141419,0.888484359,0.017225133,9.763664246
1784151135.950175,0.002708763,-0.088888533,0.034113616,-0.000706368,-0.000324916,-0.001180386,0.855194628,0.047269460,9.757101059
1784151135.952169,0.002710555,-0.088890493,0.034111753,-0.000438733,-0.000489996,-0.001027086,0.869721889,0.024201924,9.761449814
1784151135.954173,0.002715369,-0.088892400,0.034110554,0.000026625,-0.000702723,-0.000987701,0.863092721,0.031166561,9.739071846
1784151135.956181,0.002716364,-0.088890292,0.034110628,0.000405387,-0.000498912,-0.000830585,0.870108187,0.018029643,9.746615410
1784151135.958177,0.002711258,-0.088887520,0.034112953,0.000124056,0.000013783,-0.000426155,0.859725654,0.013212046,9.749711990
1784151135.960179,0.002713857,-0.088889122,0.034109682,0.000007340,0.000135775,-0.000367466,0.868969440,-0.002101215,9.744242668
1784151135.962180,0.002719801,-0.088892415,0.034102015,0.000606040,-0.000246169,-0.001066373,0.877605140,0.007171303,9.747897148
1784151135.964179,0.002720264,-0.088892721,0.034104701,0.000933686,-0.000435791,-0.001160007,0.894460917,0.028009569,9.748496056
1784151135.966188,0.002716972,-0.088892221,0.034110531,0.000540176,-0.000303101,-0.000252915,0.893231988,0.037462622,9.744520187
1784151135.968189,0.002706201,-0.088896260,0.034115426,-0.000471161,-0.000289950,0.000622896,0.869508982,0.044305507,9.770095825
1784151135.970190,0.002697389,-0.088897802,0.034119938,-0.001589005,-0.000419922,0.001205377,0.845787406,0.010327674,9.739369392
1784151135.972189,0.002696041,-0.088902444,0.034120861,-0.001773488,-0.000861388,0.001303845,0.840504289,0.022138674,9.789203644
1784151135.974196,0.002699590,-0.088900618,0.034119312,-0.001108686,-0.000954630,0.000890721,0.870684445,0.029972574,9.767315865
1784151135.976193,0.002702705,-0.088901199,0.034119293,-0.000366572,-0.000610800,0.000502208,0.860098898,0.044931430,9.762021065
1784151135.978198,0.002703317,-0.088903584,0.034122154,-0.000065272,-0.000683721,0.000541932,0.849748135,0.007232043,9.789566994
1784151135.980196,0.002701896,-0.088906519,0.034124650,-0.000137279,-0.000896910,0.000768085,0.862687826,0.035975873,9.756586075
1784151135.982201,0.002705844,-0.088903897,0.034116630,-0.000021884,-0.000743391,0.000176647,0.865741313,0.030382035,9.781659126
1784151135.984200,0.002704137,-0.088904396,0.034113780,0.000010566,-0.000466790,-0.000614410,0.886615932,0.011399200,9.767211914
1784151135.986202,0.002699028,-0.088902287,0.034119178,-0.000437769,-0.000230068,-0.000234495,0.872842014,0.023186261,9.772654533
1784151135.988206,0.002695103,-0.088899426,0.034121286,-0.000834790,0.000193026,0.000386539,0.871205688,0.035402779,9.758831978
1784151135.990207,0.002692296,-0.088898659,0.034124751,-0.000980008,0.000410582,0.000694264,0.872307062,0.052401081,9.760736465
1784151135.992209,0.002693191,-0.088899627,0.034129255,-0.000854427,0.000259704,0.001061497,0.863694429,0.008963311,9.773002625
1784151135.994208,0.002695540,-0.088901795,0.034131564,-0.000421320,-0.000051220,0.001220135,0.867795825,0.012651060,9.751062393
1784151135.996206,0.002693188,-0.088899367,0.034127340,-0.000318639,-0.000019900,0.000759141,0.857130349,0.020900035,9.744379997
1784151135.998210,0.002690406,-0.088893324,0.034129020,-0.000545489,0.000528257,0.000407708,0.876437604,0.023998033,9.778042793
1784151136.000214,0.002690247,-0.088888563,0.034130346,-0.000529068,0.001085404,0.000513897,0.885537803,0.032578729,9.752102852
1784151136.002215,0.002689806,-0.088890016,0.034123540,-0.000503094,0.000990693,0.000010829,0.853670120,0.031693920,9.744894028
1784151136.004252,0.002691453,-0.088892668,0.034121774,-0.000380634,0.000417932,-0.000574914,0.866336167,0.039230946,9.733297348
1784151136.006224,0.002695594,-0.088896483,0.034124777,0.000121517,-0.000133640,-0.000369901,0.861652255,0.024766080,9.759653091
1784151136.008220,0.002703794,-0.088895261,0.034129228,0.000959209,-0.000290878,0.000160650,0.862203300,0.033268418,9.760154724
1784151136.010240,0.002704595,-0.088892981,0.034137305,0.001374201,0.000008450,0.000910182,0.872989416,0.034887303,9.765107155
1784151136.012227,0.002711410,-0.088886745,0.034136035,0.001536695,0.000590322,0.001078925,0.879128575,0.023954002,9.779389381
1784151136.014231,0.002716490,-0.088881716,0.034129832,0.001858281,0.001198099,0.000210351,0.883430600,0.007036149,9.756420135
1784151136.016231,0.002713217,-0.088875055,0.034127418,0.001423855,0.001666178,-0.000441370,0.880122006,-0.006810403,9.756329536
1784151136.018234,0.002712383,-0.088870265,0.034130163,0.000870828,0.002005845,-0.000284711,0.884686887,0.000636152,9.772072792
1784151136.020234,0.002711091,-0.088874817,0.034133997,0.000639561,0.001492927,0.000240641,0.871134043,0.029163113,9.754309654
1784151136.022243,0.002710511,-0.088878319,0.034134109,0.000320409,0.000527918,0.000457354,0.869586408,0.015026485,9.791875839
1784151136.024236,0.002712031,-0.088876747,0.034134232,0.000255760,0.000238752,0.000347022,0.868118882,0.001522592,9.740230560
1784151136.026245,0.002716741,-0.088874459,0.034137581,0.000628536,0.000436445,0.000450107,0.872701406,0.010729201,9.760468483
1784151136.028239,0.002712807,-0.088876948,0.034135140,0.000589980,0.000296704,0.000378715,0.868517280,0.035872515,9.760625839
1784151136.030244,0.002715310,-0.088875934,0.034136150,0.000398550,0.000107555,0.000181547,0.854540825,0.030255860,9.756541252
1784151136.032241,0.002720852,-0.088873662,0.034138199,0.000822066,0.000250130,0.000293093,0.854330122,0.013192006,9.762260437
1784151136.034247,0.002727678,-0.088876709,0.034144115,0.001452359,0.000078656,0.000680211,0.841095567,0.029742278,9.726936340
1784151136.036245,0.002731278,-0.088874653,0.034144957,0.001803608,-0.000008657,0.000890054,0.892895520,0.011706266,9.775738716
1784151136.038249,0.002733823,-0.088872634,0.034143325,0.001739133,0.000294163,0.000557055,0.865967870,0.011196626,9.769881248
1784151136.040251,0.002737695,-0.088872202,0.034146857,0.001726718,0.000405289,0.000494433,0.851315081,0.059921347,9.749107361
1784151136.042256,0.002740578,-0.088878147,0.034155469,0.001691469,-0.000111764,0.001149460,0.877092481,0.039804481,9.759314537
1784151136.044254,0.002741959,-0.088876285,0.034151316,0.001451029,-0.000393020,0.001121380,0.891033351,0.042707913,9.766968727
1784151136.046261,0.002739897,-0.088869065,0.034147412,0.000962383,0.000328518,0.000275204,0.877426982,0.033628643,9.808143616
1784151136.048263,0.002739935,-0.088865988,0.034144986,0.000516684,0.000944340,-0.000214503,0.842807770,0.026230609,9.776679993
1784151136.050265,0.002738690,-0.088865995,0.034145918,0.000276348,0.000904079,-0.000248907,0.875387490,0.009430313,9.749255180
1784151136.052267,0.002739730,-0.088868797,0.034144107,0.000187677,0.000513613,-0.000239741,0.875817657,0.009278301,9.769879341
1784151136.054274,0.002737728,-0.088869832,0.034141496,0.000050548,0.000159386,-0.000468242,0.875339091,0.004185147,9.730839729
1784151136.056279,0.002738622,-0.088868268,0.034142632,-0.000047097,0.000152082,-0.000434731,0.850252688,0.010098482,9.763582230
1784151136.058273,0.002740689,-0.088865988,0.034144726,0.000226726,0.000339263,-0.000119870,0.851237774,0.017263902,9.762285233
1784151136.060280,0.002738319,-0.088860631,0.034141038,0.000176560,0.000732184,-0.000196344,0.876714051,0.045633718,9.759350777
1784151136.062277,0.002741755,-0.088860370,0.034134019,0.000068394,0.000950961,-0.000866306,0.890132189,0.005100833,9.764485359
1784151136.064297,0.002745338,-0.088867046,0.034134023,0.000414207,0.000294467,-0.001141616,0.862053096,0.018708272,9.728678703
1784151136.066348,0.002749181,-0.088869482,0.034134597,0.000807207,-0.000404392,-0.000837731,0.849386632,0.013194836,9.770774841
1784151136.068321,0.002745495,-0.088863529,0.034137532,0.000667613,-0.000118385,-0.000377926,0.881508231,0.033510488,9.754347801
1784151136.070295,0.002746405,-0.088862725,0.034135465,0.000351698,0.000309265,-0.000204548,0.880113244,0.029899543,9.760599136
1784151136.072318,0.002754246,-0.088865653,0.034133967,0.000803787,0.000093683,-0.000441134,0.847370803,0.031231049,9.758334160
1784151136.074308,0.002760053,-0.088869229,0.034139249,0.001508547,-0.000358278,-0.000145183,0.871318519,0.006403564,9.741161346
1784151136.076296,0.002759646,-0.088869780,0.034139723,0.001498783,-0.000539000,0.000250928,0.873986185,0.043765072,9.775028229
1784151136.078300,0.002758442,-0.088868499,0.034135778,0.000899755,-0.000354742,-0.000037347,0.874332726,0.034847792,9.768246651
1784151136.080301,0.002751532,-0.088863611,0.034131952,-0.000002186,0.000146040,-0.000498776,0.873920202,-0.001640177,9.733490944
1784151136.082309,0.002750369,-0.088859931,0.034135431,-0.000459396,0.000703703,-0.000346131,0.874394238,0.001391229,9.747410774
1784151136.084309,0.002754865,-0.088864312,0.034143273,0.000048894,0.000484482,0.000484994,0.854436636,0.022138514,9.764110565
1784151136.086310,0.002760773,-0.088867582,0.034144565,0.000794015,-0.000164130,0.000907813,0.855181515,0.009981185,9.771207809
1784151136.088321,0.002760508,-0.088866748,0.034142666,0.000979294,-0.000394918,0.000584798,0.872572541,0.000391119,9.765335083
1784151136.090315,0.002756330,-0.088863522,0.034140937,0.000414201,-0.000122630,0.000206412,0.872519612,0.031484250,9.740427017
1784151136.092324,0.002760876,-0.088859692,0.034143988,0.000312850,0.000412486,0.000240011,0.881870210,0.026740823,9.760580063
1784151136.094318,0.002765263,-0.088855848,0.034151066,0.000871077,0.000846174,0.000807291,0.870940328,0.012639434,9.747028351
1784151136.096321,0.002761827,-0.088855542,0.034149658,0.000733043,0.000899546,0.000965495,0.875577033,0.024705507,9.743076324
1784151136.098323,0.002756526,-0.088854745,0.034148313,-0.000110084,0.000715543,0.000572872,0.856277585,0.024101317,9.736777306
1784151136.100324,0.002754554,-0.088855028,0.034151312,-0.000598822,0.000542377,0.000575661,0.849391401,0.049606267,9.753970146
1784151136.102327,0.002757353,-0.088858984,0.034147263,-0.000379269,0.000087475,0.000342102,0.842565298,0.041238472,9.745840073
1784151136.104331,0.002755289,-0.088863917,0.034139011,-0.000293330,-0.000562456,-0.000588111,0.843861997,0.037183218,9.746712685
1784151136.106334,0.002757409,-0.088867605,0.034131940,-0.000302174,-0.000997937,-0.001464234,0.853867233,0.013896538,9.790060997
1784151136.108335,0.002755809,-0.088860795,0.034126218,-0.000246582,-0.000560879,-0.001935713,0.863321126,0.014427267,9.761380196
1784151136.110357,0.002751927,-0.088859186,0.034126915,-0.000565117,0.000117938,-0.001718136,0.857356608,0.002928149,9.750989914
1784151136.112348,0.002750164,-0.088867106,0.034135852,-0.000665643,-0.000385013,-0.000572133,0.884877026,0.015511084,9.759165764
1784151136.114349,0.002748701,-0.088869512,0.034138899,-0.000561353,-0.001024195,0.000405896,0.875451386,0.015202937,9.756464958
1784151136.116347,0.002745116,-0.088869706,0.034133196,-0.000766260,-0.000922851,0.000146294,0.872055292,0.033392757,9.787961960
1784151136.118408,0.002743024,-0.088873297,0.034143589,-0.000953882,-0.000941705,0.000462050,0.869073749,0.045632884,9.773242950
1784151136.120357,0.002740626,-0.088877328,0.034150805,-0.000932662,-0.001214444,0.001557369,0.864098132,0.041734423,9.763350487
1784151136.122355,0.002747014,-0.088876806,0.034144055,-0.000477271,-0.001122472,0.001148146,0.857321918,0.039027967,9.778120995
1784151136.124357,0.002750410,-0.088880777,0.034137636,0.000164127,-0.001052944,-0.000106210,0.860035539,0.003598795,9.777895927
1784151136.126362,0.002755086,-0.088884272,0.034137748,0.000627326,-0.001275115,-0.000552174,0.865705431,0.026452133,9.767287254
1784151136.128360,0.002756895,-0.088882886,0.034135241,0.000895301,-0.001113890,-0.000604587,0.856552541,0.011781222,9.767633438
1784151136.130365,0.002752678,-0.088881016,0.034136713,0.000497452,-0.000630946,-0.000497261,0.853622377,0.030912088,9.791963577
1784151136.132365,0.002753523,-0.088880129,0.034138601,0.000134373,-0.000298218,-0.000112417,0.894708514,0.048606247,9.749973297
1784151136.134374,0.002759591,-0.088879682,0.034138601,0.000556305,-0.000152229,0.000006025,0.856646359,0.018195763,9.747500420
1784151136.136374,0.002761267,-0.088884376,0.034130424,0.000879507,-0.000401827,-0.000595618,0.879342139,0.002640076,9.751905441
1784151136.138376,0.002756967,-0.088888884,0.034123674,0.000443663,-0.000879970,-0.001433766,0.868848979,0.024000747,9.728270531
1784151136.140376,0.002756498,-0.088890761,0.034124658,0.000036382,-0.001033207,-0.001411590,0.884770691,0.006971204,9.763147354
1784151136.142445,0.002754133,-0.088894516,0.034122374,-0.000097518,-0.001076368,-0.001105967,0.858240187,0.039991878,9.766919136
1784151136.144427,0.002753192,-0.088897720,0.034125447,-0.000214466,-0.001198483,-0.000739444,0.870546699,0.016727703,9.739883423
1784151136.146402,0.002757856,-0.088888258,0.034127235,0.000124761,-0.000447497,-0.000232409,0.879329443,0.002944950,9.772082329
1784151136.148390,0.002755483,-0.088882655,0.034132205,0.000360714,0.000764905,0.000267013,0.863117754,-0.002982806,9.752750397
1784151136.150410,0.002753428,-0.088883974,0.034133047,0.000072670,0.000915230,0.000607970,0.878000200,0.002689121,9.747421265
1784151136.152426,0.002750578,-0.088883415,0.034129974,-0.000194391,0.000632695,0.000312525,0.841731489,0.045399267,9.729278564
1784151136.154416,0.002750752,-0.088886313,0.034126747,-0.000262863,0.000319287,-0.000191932,0.860413253,-0.001830182,9.784586906
1784151136.156402,0.002751473,-0.088892154,0.034125958,-0.000155250,-0.000361590,-0.000417280,0.883985102,0.015970545,9.759168625
1784151136.158403,0.002749242,-0.088890456,0.034128651,-0.000218980,-0.000534630,-0.000164679,0.869686127,0.020272017,9.747076988
1784151136.160410,0.002752439,-0.088890001,0.034130786,-0.000080369,-0.000231809,0.000202540,0.866383851,0.006879789,9.746091843
1784151136.162409,0.002750961,-0.088889934,0.034136549,0.000145126,-0.000157761,0.000668007,0.874740541,0.029250666,9.735483170
1784151136.164410,0.002748598,-0.088890709,0.034134977,-0.000088803,-0.000188192,0.000789370,0.880286396,0.005834255,9.742063522
1784151136.166433,0.002751746,-0.088885911,0.034129389,-0.000054731,0.000134289,0.000085747,0.891605079,0.016215837,9.773972511
1784151136.168432,0.002748355,-0.088882595,0.034131866,0.000009106,0.000691118,-0.000154203,0.898870826,0.022074528,9.756083488
1784151136.170450,0.002748252,-0.088886149,0.034140360,-0.000079333,0.000534265,0.000642446,0.880283892,0.007435325,9.768974304
1784151136.172446,0.002751550,-0.088888749,0.034144215,0.000321688,0.000000666,0.001275355,0.891201317,0.019007921,9.760091782
1784151136.174452,0.002749308,-0.088887148,0.034144524,0.000419961,-0.000040659,0.001196496,0.897878587,0.014448433,9.759173393
1784151136.176436,0.002745187,-0.088887677,0.034147590,-0.000103896,0.000043651,0.001138740,0.873748064,0.022838095,9.756961823
1784151136.178437,0.002745841,-0.088893905,0.034149766,-0.000256208,-0.000402044,0.001202514,0.860056460,0.041354105,9.761100769
1784151136.180493,0.002747455,-0.088899747,0.034147989,-0.000008610,-0.001088365,0.000886492,0.878122091,0.052183256,9.780914307
1784151136.182456,0.002749380,-0.088905327,0.034148276,0.000153988,-0.001587376,0.000529888,0.873987734,0.042561095,9.755294800
1784151136.184447,0.002750995,-0.088908590,0.034152649,0.000309549,-0.001773853,0.000686342,0.880149305,0.031805858,9.744470596
1784151136.186444,0.002749108,-0.088905394,0.034152202,0.000230715,-0.001295435,0.000767331,0.868582606,0.041251227,9.760213852
1784151136.188448,0.002743632,-0.088903807,0.034155630,-0.000365346,-0.000599008,0.000809361,0.864432931,0.032318313,9.763738632
1784151136.190451,0.002741352,-0.088910684,0.034155365,-0.000825101,-0.000775474,0.000854181,0.866411686,0.011152722,9.775260925
1784151136.192456,0.002740933,-0.088917024,0.034154251,-0.000749421,-0.001464327,0.000541379,0.876967132,0.029088378,9.754314423
1784151136.194456,0.002743864,-0.088923700,0.034155522,-0.000332682,-0.001952492,0.000386363,0.869419754,0.036305800,9.761077881
1784151136.196457,0.002743303,-0.088922642,0.034157854,-0.000060357,-0.001805240,0.000510861,0.886433959,0.032557692,9.753449440
1784151136.198460,0.002739321,-0.088924341,0.034163550,-0.000346453,-0.001280866,0.000946095,0.864012182,0.034166779,9.756575584
1784151136.200465,0.002734580,-0.088926464,0.034167349,-0.000828705,-0.001112677,0.001387895,0.874766588,0.033914335,9.772725105
1784151136.202466,0.002736454,-0.088926606,0.034167267,-0.000744294,-0.000920199,0.001277580,0.851786971,0.024130192,9.740808487
1784151136.204461,0.002744173,-0.088925093,0.034166880,0.000134365,-0.000534590,0.000838847,0.865001261,0.039337233,9.720743179
1784151136.206467,0.002749779,-0.088929906,0.034162533,0.000970171,-0.000613890,0.000210657,0.860956967,0.042178113,9.769626617
1784151136.208472,0.002750981,-0.088935710,0.034160696,0.001120956,-0.001242361,-0.000305036,0.875797868,0.043875623,9.756201744
1784151136.210501,0.002753137,-0.088933155,0.034165684,0.001053903,-0.001198296,-0.000028332,0.876048028,0.027308043,9.754301071
1784151136.212484,0.002748086,-0.088929594,0.034164440,0.000597830,-0.000352283,0.000249339,0.900103927,0.011439760,9.737187386
1784151136.214482,0.002743109,-0.088931620,0.034159154,-0.000278740,-0.000050104,-0.000200861,0.906885803,0.016620949,9.752470016
1784151136.216495,0.002742625,-0.088930517,0.034154821,-0.000630403,-0.000101613,-0.000764558,0.877839506,0.026042903,9.739948273
1784151136.218494,0.002736659,-0.088928953,0.034148682,-0.000937379,0.000167729,-0.001227732,0.872861147,0.022122188,9.733195305
1784151136.220492,0.002731855,-0.088930257,0.034150358,-0.001416915,0.000202052,-0.001133214,0.855752885,0.019049129,9.755126953
1784151136.222490,0.002733293,-0.088938609,0.034152340,-0.001197118,-0.000538146,-0.000562268,0.854522347,0.028489457,9.752943993
1784151136.224496,0.002737755,-0.088939480,0.034152173,-0.000421476,-0.001046904,-0.000325709,0.879373193,0.041284949,9.736014366
1784151136.226496,0.002736428,-0.088935748,0.034151513,-0.000099987,-0.000567945,-0.000311499,0.883980930,0.015532122,9.757820129
1784151136.228493,0.002733758,-0.088939004,0.034147501,-0.000372656,-0.000320230,-0.000519137,0.873145223,0.009468600,9.747908592
1784151136.230497,0.002732808,-0.088948004,0.034144141,-0.000562135,-0.001002725,-0.000855711,0.863374949,0.018500248,9.755578995
1784151136.232505,0.002734380,-0.088947736,0.034144361,-0.000301863,-0.001397765,-0.000846975,0.863082826,0.030683622,9.743999481
1784151136.234502,0.002731995,-0.088938959,0.034144167,-0.000190114,-0.000480089,-0.000617396,0.870736659,0.034032848,9.763307571
1784151136.236515,0.002728634,-0.088936031,0.034145191,-0.000522019,0.000444319,-0.000359122,0.882331848,0.026026741,9.734125137
1784151136.238520,0.002731121,-0.088939585,0.034144510,-0.000482985,0.000323081,-0.000229109,0.885755897,0.013326555,9.749739647
1784151136.240513,0.002731190,-0.088940904,0.034142617,-0.000240196,-0.000054211,-0.000352287,0.882086813,0.045472510,9.772356987
1784151136.242515,0.002726351,-0.088942222,0.034145009,-0.000550516,-0.000181367,-0.000189247,0.887644053,0.058114953,9.748682022
1784151136.244513,0.002724164,-0.088940091,0.034144796,-0.000918986,-0.000039248,0.000056970,0.858039558,0.022197444,9.749320984
1784151136.246516,0.002721773,-0.088939004,0.034143753,-0.000986567,0.000189663,-0.000015370,0.830000699,0.005423267,9.764430046
1784151136.248527,0.002720199,-0.088935569,0.034148235,-0.000892293,0.000316995,0.000238819,0.827010989,0.015573028,9.728625298
1784151136.250525,0.002723929,-0.088937417,0.034144260,-0.000427450,0.000208932,0.000188831,0.866600811,0.023587892,9.727369308
1784151136.252524,0.002722960,-0.088940419,0.034137011,-0.000126185,-0.000152506,-0.000643500,0.886327326,0.023611186,9.751598358
1784151136.254559,0.002720968,-0.088938251,0.034131758,-0.000301407,-0.000141234,-0.001303096,0.858749747,0.007739905,9.764920235
1784151136.256548,0.002721806,-0.088935077,0.034130760,-0.000335368,0.000259404,-0.001366079,0.865634322,0.019812211,9.756037712
1784151136.258532,0.002717579,-0.088932194,0.034128673,-0.000558764,0.000623965,-0.001177198,0.863811374,-0.020814179,9.738738060
1784151136.260536,0.002714814,-0.088934764,0.034122512,-0.000996204,0.000498515,-0.001367147,0.850352168,0.018584304,9.767223358
1784151136.262541,0.002720465,-0.088940136,0.034122985,-0.000544936,-0.000267810,-0.001399750,0.855249047,0.014972354,9.762272835
1784151136.264543,0.002721294,-0.088947102,0.034126736,0.000086474,-0.001121304,-0.000774800,0.873834074,-0.005157464,9.787267685
1784151136.266549,0.002718651,-0.088944487,0.034131557,-0.000008012,-0.001109218,0.000026105,0.876408935,0.020935442,9.767710686
1784151136.268542,0.002722324,-0.088936388,0.034126617,0.000098458,-0.000072586,0.000001799,0.887703478,0.027882772,9.778527260
1784151136.270549,0.002722994,-0.088940099,0.034126632,0.000371039,0.000250608,-0.000360988,0.887172759,0.057536013,9.767956734
1784151136.272552,0.002724183,-0.088947125,0.034136988,0.000375925,-0.000472347,0.000434134,0.870262861,0.031408064,9.755218506
1784151136.274550,0.002723063,-0.088948764,0.034142192,0.000289779,-0.000856266,0.001375061,0.878068268,0.010926933,9.786029816
1784151136.276548,0.002718113,-0.088945769,0.034137197,-0.000198016,-0.000531193,0.001052309,0.862590432,0.027102506,9.744423866
1784151136.278552,0.002716607,-0.088948786,0.034129485,-0.000696895,-0.000377516,-0.000049990,0.845483243,0.023632346,9.759181023
1784151136.280559,0.002713021,-0.088951617,0.034123518,-0.000974041,-0.000662033,-0.000927283,0.865440726,0.043715324,9.797437668
1784151136.282559,0.002718874,-0.088948637,0.034119196,-0.000648174,-0.000516115,-0.001383057,0.860302746,0.025161341,9.769516945
1784151136.284565,0.002726913,-0.088948727,0.034120973,0.000421925,-0.000223569,-0.001261428,0.851117134,0.008206111,9.776124001
1784151136.286564,0.002729230,-0.088954099,0.034123268,0.001031985,-0.000533479,-0.000706658,0.872501552,0.030531082,9.748490334
1784151136.288564,0.002732005,-0.088959627,0.034121335,0.001111053,-0.001149960,-0.000521894,0.888306737,0.002855404,9.768504143
1784151136.290568,0.002732638,-0.088960126,0.034116291,0.001010620,-0.001270382,-0.000873113,0.851529419,0.003860655,9.756369591
1784151136.292571,0.002730139,-0.088960290,0.034120709,0.000704847,-0.001034381,-0.000676244,0.854760528,0.011826477,9.764494896
1784151136.294571,0.002730657,-0.088964134,0.034131132,0.000567634,-0.001085789,0.000513070,0.868353665,0.021207450,9.743944168
1784151136.296575,0.002732750,-0.088963114,0.034133695,0.000668454,-0.000980525,0.001236173,0.871883035,0.016227521,9.744812012
1784151136.298578,0.002731645,-0.088961571,0.034132909,0.000657225,-0.000538296,0.001006671,0.873856664,0.031800497,9.756569862
1784151136.300583,0.002722756,-0.088961482,0.034132615,-0.000110762,-0.000279165,0.000711561,0.873294890,0.060398836,9.768409729
1784151136.302590,0.002718978,-0.088961869,0.034139313,-0.000998717,-0.000252163,0.001036707,0.856316924,0.065243185,9.747800827
1784151136.304617,0.002722187,-0.088960320,0.034138523,-0.000830582,-0.000132620,0.001167113,0.857113063,0.019143166,9.739436150
1784151136.306589,0.002721251,-0.088962965,0.034138665,-0.000455224,-0.000171378,0.000792467,0.863132358,-0.001651645,9.754552841
1784151136.308596,0.002716110,-0.088967822,0.034139398,-0.000602630,-0.000627941,0.000660900,0.862695098,-0.000340165,9.759941101
1784151136.310618,0.002718398,-0.088969149,0.034136634,-0.000509646,-0.000871379,0.000349248,0.857393026,0.006457781,9.758633614
1784151136.312611,0.002725073,-0.088972248,0.034137726,0.000227503,-0.001019718,0.000087335,0.872945070,0.030484008,9.754319191
1784151136.314603,0.002730128,-0.088971548,0.034140039,0.000982239,-0.000988128,0.000222590,0.865890622,0.040072203,9.741821289
1784151136.316605,0.002733010,-0.088973708,0.034139469,0.001262643,-0.000817663,0.000231257,0.867294133,0.008186736,9.749688148
1784151136.318603,0.002732298,-0.088977613,0.034141500,0.001083891,-0.000995448,0.000253331,0.866667747,-0.005773803,9.760805130
1784151136.320611,0.002726477,-0.088984169,0.034139041,0.000353913,-0.001424039,0.000194585,0.876392126,0.018371677,9.750210762
1784151136.322610,0.002726683,-0.088986643,0.034134235,-0.000157100,-0.001589616,-0.000316707,0.867233872,0.038816001,9.727018356
1784151136.324607,0.002732184,-0.088985093,0.034131788,0.000236181,-0.001160074,-0.000757104,0.856435359,0.039125320,9.766016006
1784151136.326613,0.002736854,-0.088979371,0.034138896,0.000887861,-0.000351877,-0.000298361,0.879445195,0.048337854,9.752198219
1784151136.328618,0.002742785,-0.088974334,0.034145735,0.001364007,0.000502985,0.000669126,0.890943408,0.034298405,9.752567291
1784151136.330619,0.002744781,-0.088973559,0.034143489,0.001473616,0.000790079,0.000757922,0.867776871,0.049281511,9.766540527
1784151136.332621,0.002748814,-0.088973232,0.034141552,0.001351499,0.000590963,0.000242356,0.867346108,0.015080666,9.788289070
1784151136.334620,0.002751379,-0.088973068,0.034147639,0.001351199,0.000405524,0.000426293,0.878702164,0.025351327,9.772673607
1784151136.336634,0.002744585,-0.088973038,0.034150738,0.000753797,0.000310435,0.000956703,0.883837640,0.003459428,9.754604340
1784151136.338638,0.002737435,-0.088973783,0.034152880,-0.000259422,0.000248724,0.001125603,0.851077020,0.005457932,9.784625053
1784151136.340629,0.002732771,-0.088973217,0.034153242,-0.000870119,0.000239611,0.001050477,0.832273781,0.006843331,9.749645233
1784151136.342631,0.002730609,-0.088970795,0.034161028,-0.001044684,0.000227844,0.001357186,0.840087712,0.020372026,9.723288536
1784151136.344633,0.002728667,-0.088970520,0.034160830,-0.000991124,0.000199657,0.001526643,0.905602098,0.021994652,9.755192757
1784151136.346632,0.002723870,-0.088968880,0.034159843,-0.001184773,0.000275169,0.001072598,0.911110222,0.031412333,9.744049072
1784151136.348637,0.002719543,-0.088968843,0.034159705,-0.001487432,0.000439805,0.000760236,0.899498880,0.038074560,9.773222923
1784151136.350639,0.002722352,-0.088971004,0.034159921,-0.001186432,0.000301907,0.000568180,0.875866473,0.049279775,9.752201080
1784151136.352637,0.002731450,-0.088973112,0.034156922,-0.000119700,-0.000076015,0.000157293,0.852483869,0.009567725,9.771202087
1784151136.354641,0.002738125,-0.088972352,0.034153242,0.000895273,-0.000154130,-0.000429387,0.874157429,0.020900588,9.776676178
1784151136.356637,0.002735062,-0.088971004,0.034150813,0.000859533,0.000030647,-0.000748351,0.853849471,0.010919794,9.767625809
1784151136.358647,0.002735173,-0.088970162,0.034150615,0.000470869,0.000131508,-0.000710700,0.833565056,0.004366882,9.780565262
1784151136.360651,0.002742247,-0.088965513,0.034154732,0.000912526,0.000428833,-0.000301785,0.874222875,0.024659159,9.752042770
1784151136.362648,0.002743975,-0.088964872,0.034158591,0.001288635,0.000715182,0.000267358,0.886373460,0.027217137,9.748482704
1784151136.364687,0.002739952,-0.088962764,0.034163814,0.000819078,0.000750924,0.000824242,0.862705350,0.037735920,9.761081696
1784151136.366663,0.002735629,-0.088964075,0.034166049,0.000077489,0.000601719,0.001156108,0.881747484,0.014830289,9.734500885
1784151136.368662,0.002731963,-0.088968091,0.034166839,-0.000393595,0.000134177,0.001089099,0.891528487,0.007911254,9.744777679
1784151136.370660,0.002732292,-0.088965170,0.034165520,-0.000443734,0.000080065,0.000771568,0.866891861,0.013421752,9.770344734
1784151136.372658,0.002730784,-0.088959403,0.034170803,-0.000329693,0.000649224,0.000832709,0.860225081,0.055653878,9.766125679
1784151136.374668,0.002731512,-0.088954948,0.034174077,-0.000191946,0.001169374,0.001184805,0.839233279,0.063580774,9.760328293
1784151136.376665,0.002731149,-0.088958405,0.034173731,-0.000097510,0.000920714,0.001058709,0.847513318,0.043704018,9.768278122
1784151136.378670,0.002728569,-0.088957526,0.034176651,-0.000267059,0.000436152,0.000964781,0.847665608,0.056253288,9.767462730
1784151136.380670,0.002728528,-0.088959947,0.034178738,-0.000354027,0.000153760,0.001059273,0.887356818,0.033963215,9.743145943
1784151136.382667,0.002728428,-0.088961944,0.034175996,-0.000290845,-0.000140885,0.000730675,0.877172410,0.009734450,9.766294479
1784151136.384665,0.002723795,-0.088965371,0.034178469,-0.000553077,-0.000424536,0.000544576,0.867429733,0.020199014,9.761422157
1784151136.386677,0.002718124,-0.088966653,0.034177929,-0.001088051,-0.000628571,0.000588991,0.864956081,0.038574476,9.765123367
1784151136.388670,0.002720170,-0.088961124,0.034172203,-0.001108517,-0.000201563,0.000029431,0.865981221,0.013328329,9.785136223
1784151136.390673,0.002721970,-0.088958450,0.034166485,-0.000649483,0.000376821,-0.000773101,0.887152612,0.018976996,9.771744728
1784151136.392673,0.002719832,-0.088963456,0.034160987,-0.000502591,0.000187995,-0.001325330,0.877655983,0.011625475,9.751513481
1784151136.394678,0.002720559,-0.088963993,0.034160759,-0.000434992,-0.000167454,-0.001349812,0.848505318,0.014143588,9.764950752
1784151136.396674,0.002722301,-0.088966675,0.034160879,-0.000150609,-0.000341147,-0.001005762,0.869060338,0.005911216,9.751468658
1784151136.398675,0.002724688,-0.088967972,0.034160644,0.000255281,-0.000487713,-0.000772972,0.876528859,0.029176794,9.742657661
1784151136.400679,0.002725882,-0.088965341,0.034161545,0.000518577,-0.000234483,-0.000547278,0.879169226,0.025085216,9.746221542
1784151136.402696,0.002723635,-0.088971741,0.034168478,0.000344032,-0.000373253,0.000138257,0.883426726,0.007410973,9.766735077
1784151136.404687,0.002718247,-0.088973336,0.034173563,-0.000202848,-0.000759799,0.000960338,0.879544497,0.019637162,9.755600929
1784151136.406695,0.002722856,-0.088976070,0.034177411,-0.000146510,-0.000846758,0.001308297,0.904524803,0.007617343,9.762721062
1784151136.408697,0.002727437,-0.088981606,0.034178451,0.000635439,-0.001023989,0.001219339,0.877174616,0.009346903,9.757774353
1784151136.410737,0.002732832,-0.088983245,0.034176774,0.001224852,-0.001078991,0.000775891,0.868635833,0.008944585,9.766729355
1784151136.412710,0.002731428,-0.088985726,0.034175605,0.001202705,-0.001095528,0.000343947,0.887858570,0.002054266,9.755945206
1784151136.414703,0.002725782,-0.088982232,0.034175351,0.000448632,-0.000758629,0.000192518,0.884154260,0.029463433,9.751633644
1784151136.416709,0.002725094,-0.088979371,0.034182224,-0.000061558,-0.000120962,0.000626005,0.872901440,0.026087061,9.742634773
1784151136.418708,0.002732620,-0.088976867,0.034186885,0.000469353,0.000260293,0.001195491,0.869506121,0.043066554,9.755292892
1784151136.420710,0.002735055,-0.088975579,0.034185756,0.001019006,0.000431714,0.001050416,0.873018265,0.037546456,9.769159317
1784151136.422753,0.002728004,-0.088978998,0.034192473,0.000402322,0.000188136,0.001175736,0.878841937,-0.000598009,9.767127037
1784151136.424721,0.002720066,-0.088984795,0.034195695,-0.000721992,-0.000470220,0.001624314,0.893877268,0.018439615,9.772195816
1784151136.426715,0.002721322,-0.088982984,0.034198727,-0.000939983,-0.000612441,0.001647052,0.868717313,0.016477251,9.778435707
1784151136.428715,0.002724877,-0.088981174,0.034191344,-0.000349971,-0.000197274,0.000873417,0.872445464,0.026845653,9.762813568
1784151136.430723,0.002720640,-0.088981390,0.034189872,-0.000318807,-0.000032865,0.000037652,0.877055883,0.036678277,9.757949829
1784151136.432718,0.002717983,-0.088981405,0.034190323,-0.000768531,-0.000001538,0.000005221,0.864249587,0.017497435,9.769022942
1784151136.434719,0.002715019,-0.088977411,0.034190048,-0.001002808,0.000307820,0.000055547,0.864605188,0.008246671,9.746099472
1784151136.436760,0.002715110,-0.088976122,0.034194045,-0.000902223,0.000582930,0.000309539,0.891060829,0.007360929,9.760016441
1784151136.438749,0.002715028,-0.088976130,0.034202963,-0.000471914,0.000487855,0.001089200,0.896146357,0.019017816,9.749784470
1784151136.440731,0.002712752,-0.088979892,0.034208857,-0.000307124,0.000077327,0.001799452,0.891065240,0.008612609,9.773026466
1784151136.442735,0.002717364,-0.088982120,0.034206908,0.000012645,-0.000309240,0.001558517,0.868673265,0.012077136,9.767199516
1784151136.444741,0.002717111,-0.088986389,0.034208171,0.000354460,-0.000626030,0.001058043,0.853994727,0.022198314,9.756489754
1784151136.446724,0.002710532,-0.088984475,0.034206230,-0.000207741,-0.000614513,0.000765721,0.840164423,-0.007696658,9.763905525
1784151136.448750,0.002704005,-0.088977657,0.034203682,-0.000918235,-0.000061462,0.000320651,0.882557631,0.008861747,9.753293037
1784151136.450738,0.002706350,-0.088980347,0.034203053,-0.000824526,0.000028631,0.000031754,0.875462115,0.016908929,9.768581390
1784151136.452783,0.002711868,-0.088981576,0.034205180,-0.000019125,-0.000239221,0.000073334,0.887370110,0.037715048,9.782625198
1784151136.454759,0.002709360,-0.088977836,0.034202807,0.000228989,0.000001837,0.000015258,0.866090715,0.022703715,9.789681435
1784151136.456750,0.002707277,-0.088979207,0.034209799,-0.000115669,0.000162787,0.000351121,0.865250051,0.028837223,9.810791969
1784151136.458781,0.002712287,-0.088983923,0.034214184,0.000168004,-0.000340246,0.001008380,0.871282578,0.042493843,9.769639015
1784151136.460773,0.002721414,-0.088983983,0.034209918,0.001064643,-0.000619053,0.000658387,0.877282500,0.018709572,9.764110565
1784151136.462759,0.002721238,-0.088978723,0.034211848,0.001419022,-0.000062088,0.000262767,0.842278302,0.018303428,9.758245468
1784151136.464762,0.002719909,-0.088970281,0.034214687,0.001013183,0.000923469,0.000518291,0.864284635,0.018990770,9.747960091
1784151136.466769,0.002714784,-0.088969998,0.034217142,0.000333600,0.001267151,0.000773950,0.882576168,0.011844853,9.774831772
1784151136.468770,0.002709873,-0.088969767,0.034214079,-0.000383748,0.000946266,0.000577570,0.905840397,0.042111564,9.761150360
1784151136.470771,0.002708438,-0.088972330,0.034205094,-0.000725769,0.000517437,-0.000360569,0.859666646,0.043040786,9.713589668
1784151136.472765,0.002701370,-0.088974677,0.034205697,-0.001194480,0.000025754,-0.000774565,0.866720378,0.033852845,9.732814789
1784151136.474769,0.002697879,-0.088977084,0.034210406,-0.001592232,-0.000319580,-0.000137480,0.859011173,0.028851302,9.756984711
1784151136.476767,0.002697132,-0.088975728,0.034206055,-0.001444250,-0.000303560,-0.000050272,0.870959103,0.016029164,9.774399757
1784151136.478775,0.002695305,-0.088970184,0.034204610,-0.001221276,0.000231501,-0.000416886,0.873993933,0.006642148,9.765823364
1784151136.480772,0.002689990,-0.088974386,0.034202740,-0.001352682,0.000245256,-0.000487953,0.856583297,0.012429493,9.739393234
1784151136.482805,0.002692659,-0.088978842,0.034205373,-0.001130998,-0.000433666,-0.000290333,0.848086655,0.016007960,9.755548477
1784151136.484777,0.002700608,-0.088977940,0.034211148,-0.000026522,-0.000581093,0.000290307,0.877193332,0.009899795,9.742982864
1784151136.486780,0.002707440,-0.088978045,0.034214403,0.001034653,-0.000367384,0.000733546,0.888400733,0.010486641,9.766311646
1784151136.488779,0.002706761,-0.088974126,0.034216780,0.001232333,0.000047600,0.000876453,0.860206664,0.016297510,9.756009102
1784151136.490781,0.002701664,-0.088970922,0.034219250,0.000565066,0.000574539,0.000998574,0.841629088,0.038511325,9.752996445
1784151136.492776,0.002701501,-0.088971712,0.034219418,0.000038480,0.000527750,0.000940659,0.862872362,0.052833050,9.780008316
1784151136.494789,0.002703340,-0.088972226,0.034215819,0.000087128,0.000239782,0.000446446,0.879334271,0.042193219,9.797440529
1784151136.496791,0.002702282,-0.088970393,0.034217853,0.000106719,0.000263387,0.000214054,0.868639231,0.046156552,9.763381958
1784151136.498789,0.002700380,-0.088965811,0.034220565,-0.000129502,0.000622501,0.000497562,0.870288074,0.033228528,9.751196861
1784151136.500793,0.002700908,-0.088964522,0.034222730,-0.000193500,0.000846948,0.000704059,0.884066284,0.021879885,9.747100830
1784151136.502793,0.002704150,-0.088960901,0.034227010,0.000139371,0.001005920,0.000927275,0.857427239,0.009564888,9.762689590
1784151136.504795,0.002706627,-0.088957764,0.034228560,0.000509914,0.001246675,0.001036629,0.870049953,0.012301538,9.733128548
1784151136.506798,0.002706816,-0.088963628,0.034230657,0.000573679,0.000723092,0.000985708,0.888396025,0.046418313,9.753987312
1784151136.508792,0.002708667,-0.088967107,0.034232378,0.000561756,-0.000035798,0.000964469,0.865417540,0.038263854,9.744947433
1784151136.510832,0.002704803,-0.088963881,0.034230147,0.000253001,0.000028227,0.000681179,0.876171708,0.000014811,9.748746872
1784151136.512811,0.002700427,-0.088963114,0.034228489,-0.000330498,0.000313941,0.000276998,0.879947364,0.016432093,9.764548302
1784151136.514812,0.002704968,-0.088965818,0.034227256,-0.000181366,0.000119797,-0.000000721,0.872929513,0.030766629,9.777633667
1784151136.516807,0.002708364,-0.088964351,0.034236100,0.000450359,0.000004628,0.000465859,0.874223113,0.025472412,9.763702393
1784151136.518806,0.002712672,-0.088967681,0.034241561,0.000963717,-0.000082613,0.001257118,0.859452724,0.027978258,9.752944946
1784151136.520816,0.002710812,-0.088971354,0.034237076,0.000901974,-0.000496139,0.000964413,0.880285084,0.007444866,9.767628670
1784151136.522813,0.002707967,-0.088974155,0.034229584,0.000280453,-0.000786081,-0.000080056,0.838731110,0.023953518,9.789214134
1784151136.524807,0.002709124,-0.088972412,0.034236621,0.000101142,-0.000626915,-0.000080267,0.875630081,0.029582206,9.750281334
1784151136.526818,0.002707255,-0.088967174,0.034244999,0.000118437,0.000020887,0.000987835,0.869453132,0.039406553,9.766029358
1784151136.528825,0.002707165,-0.088957794,0.034251098,-0.000007814,0.001016609,0.001714478,0.875215650,0.031884994,9.742226601
1784151136.530828,0.002707805,-0.088952966,0.034243677,-0.000025254,0.001711822,0.001160671,0.906796515,0.007811173,9.731341362
1784151136.532876,0.002709913,-0.088957250,0.034236647,0.000099489,0.001358367,-0.000149934,0.847741008,0.061711486,9.755841255
1784151136.534844,0.002707610,-0.088958926,0.034246013,0.000092509,0.000662869,0.000048024,0.863386333,0.056179248,9.749543190
1784151136.536836,0.002701313,-0.088953018,0.034244377,-0.000467405,0.000771615,0.000609973,0.878866434,0.038806062,9.770518303
1784151136.538839,0.002697456,-0.088941105,0.034232486,-0.001187157,0.001798900,-0.000401959,0.873721242,0.019384770,9.738555908
1784151136.540832,0.002695415,-0.088936791,0.034225088,-0.001458549,0.002439090,-0.001554534,0.858714163,0.038969755,9.720735550
1784151136.542828,0.002698035,-0.088940531,0.034229718,-0.001110098,0.001812980,-0.001316283,0.849553108,0.062635280,9.748674393
1784151136.544828,0.002697506,-0.088943504,0.034234170,-0.000682635,0.000864144,-0.000350909,0.874877751,0.002875630,9.726795197
1784151136.546835,0.002697584,-0.088941388,0.034235496,-0.000492978,0.000571551,0.000137761,0.881439805,0.027296284,9.746236801
1784151136.548832,0.002699856,-0.088937819,0.034236498,-0.000186619,0.000808116,0.000243800,0.900552511,0.012647531,9.755575180
1784151136.550833,0.002702530,-0.088938937,0.034238305,0.000214970,0.000762426,0.000338169,0.877740562,-0.017596316,9.765223503
1784151136.552836,0.002698847,-0.088940218,0.034242123,0.000250187,0.000388603,0.000621231,0.860345721,-0.012495025,9.709197044
1784151136.554843,0.002704129,-0.088936143,0.034251146,0.000495564,0.000471014,0.001299112,0.878910959,0.003999248,9.750568390
1784151136.556843,0.002709016,-0.088939942,0.034254752,0.001124677,0.000364534,0.001738573,0.849265575,0.039697058,9.761528969
