time_sec,roll_rad,pitch_rad,yaw_rad,gyro_x,gyro_y,gyro_z,acc_x,acc_y,acc_z
1784244332.348082,-0.006892339,0.002201287,-0.154692233,-0.000460360,0.001346555,-0.000066299,-0.021403475,-0.073118739,9.804354668
1784244332.350001,-0.006892339,0.002201287,-0.154692233,0.000451582,0.000592999,-0.000418518,-0.053619817,-0.066318870,9.788227081
1784244332.351985,-0.006892339,0.002201287,-0.154692233,0.001152037,0.000113547,-0.000331676,-0.047699627,-0.058006357,9.805770874
1784244332.353959,-0.006892143,0.002202043,-0.154692233,0.001210780,-0.000107191,0.000110674,-0.029548528,-0.042449575,9.790645599
1784244332.355991,-0.006892143,0.002202043,-0.154692233,0.001057216,-0.000119449,0.000036297,-0.014726385,-0.040494882,9.804121971
1784244332.357984,-0.006891009,0.002201808,-0.154692233,0.000689617,-0.000429838,-0.000308801,0.000398522,-0.052261040,9.793301582
1784244332.359968,-0.006891009,0.002201808,-0.154692233,0.000546280,-0.000890178,-0.000741826,-0.013182469,-0.063166760,9.776181221
1784244332.361957,-0.006891009,0.002201808,-0.154692233,0.000626749,-0.000884543,-0.001217554,-0.015940852,-0.067707263,9.789598465
1784244332.363947,-0.006891438,0.002201369,-0.154692233,0.000669803,-0.000663837,-0.001635141,-0.016902184,-0.072658323,9.794498444
1784244332.365980,-0.006891438,0.002201369,-0.154692233,0.000664228,-0.000539652,-0.001777145,-0.038793128,-0.063112505,9.814715385
1784244332.367966,-0.006891101,0.002202468,-0.154692233,0.000713125,-0.000505523,-0.001591995,-0.051723044,-0.057836965,9.789180756
1784244332.369968,-0.006891101,0.002202468,-0.154692233,0.000985792,-0.000285557,-0.001401496,0.015212891,-0.051583458,9.797353745
1784244332.371978,-0.006891101,0.002202468,-0.154692233,0.001384121,0.000014644,-0.000954741,-0.020133829,-0.042633899,9.799619675
1784244332.373966,-0.006889826,0.002201553,-0.154692233,0.001777597,-0.000148527,-0.000179953,-0.029805966,-0.063529193,9.794095993
1784244332.375979,-0.006889826,0.002201553,-0.154692233,0.001627132,-0.000620895,0.000092979,-0.014318606,-0.080845140,9.807002068
1784244332.377971,-0.006890479,0.002201393,-0.154692233,0.001086867,-0.000742052,-0.000086723,-0.002866691,-0.064144045,9.769011497
1784244332.379962,-0.006890479,0.002201393,-0.154692233,0.000528623,-0.000903524,0.000269095,0.010127553,-0.064453855,9.789196968
1784244332.381948,-0.006890479,0.002201393,-0.154692233,0.000354662,-0.001257099,0.000437101,-0.018101553,-0.058919620,9.817899704
1784244332.384008,-0.006890642,0.002200956,-0.154692233,0.000847508,-0.001211385,-0.000087699,-0.021783471,-0.067302212,9.806185722
1784244332.385973,-0.006890642,0.002200956,-0.154692233,0.001374908,-0.000657922,-0.000466845,-0.055587802,-0.041420519,9.818872452
1784244332.387963,-0.006889853,0.002202763,-0.154692233,0.001743957,0.000085427,-0.000416246,-0.039838877,-0.076835170,9.793105125
1784244332.389952,-0.006889853,0.002202763,-0.154692233,0.001755621,0.000304298,-0.000146917,-0.024012648,-0.064728782,9.826375008
1784244332.391948,-0.006889853,0.002202763,-0.154692233,0.001398590,0.000107590,0.000064773,-0.023348404,-0.049659286,9.785225868
1784244332.393946,-0.006889205,0.002202820,-0.154692233,0.001392777,0.000069544,0.000219977,-0.012678699,-0.058279917,9.781145096
1784244332.395951,-0.006889205,0.002202820,-0.154692233,0.001552537,0.000060825,-0.000117887,-0.024217326,-0.047801897,9.777614594
1784244332.397955,-0.006888085,0.002202649,-0.154692233,0.001231921,-0.000281249,-0.000619308,-0.010410784,-0.055684488,9.790130615
1784244332.399947,-0.006888085,0.002202649,-0.154692233,0.000556650,-0.001070641,-0.000175967,-0.047896743,-0.036562067,9.814875603
1784244332.401947,-0.006888085,0.002202649,-0.154692233,0.000245038,-0.001648866,0.000345840,-0.058354255,-0.048861459,9.799094200
1784244332.403954,-0.006887129,0.002204000,-0.154692233,0.000823448,-0.001353389,-0.000153294,-0.041106720,-0.069310695,9.808395386
1784244332.405974,-0.006887129,0.002204000,-0.154692233,0.001088492,-0.000647596,-0.000983771,-0.013995517,-0.056410410,9.772637367
1784244332.407965,-0.006886735,0.002203770,-0.154692233,0.000535814,-0.000451923,-0.001176532,-0.009559413,-0.060112003,9.781136513
1784244332.409985,-0.006886735,0.002203770,-0.154692233,0.000745700,-0.000409077,-0.000811088,-0.003395951,-0.070447899,9.774351120
1784244332.411975,-0.006886735,0.002203770,-0.154692233,0.001498272,-0.000114010,-0.000596599,0.003566872,-0.087648265,9.786352158
1784244332.413969,-0.006887188,0.002202620,-0.154692233,0.001395618,-0.000032159,-0.001073935,-0.011313772,-0.056527581,9.784296036
1784244332.416011,-0.006887188,0.002202620,-0.154692233,0.000631805,-0.000127759,-0.001315318,-0.043398868,-0.074123681,9.796257019
1784244332.417998,-0.006887587,0.002203197,-0.154692233,-0.000049534,-0.000016838,-0.001363992,-0.020547314,-0.039108057,9.808608055
1784244332.419994,-0.006887587,0.002203197,-0.154692233,-0.000218589,0.000100199,-0.002012491,-0.024921380,-0.029243119,9.815392494
1784244332.421974,-0.006887587,0.002203197,-0.154692233,-0.000018093,0.000072425,-0.002232306,-0.024876174,-0.065260269,9.776604652
1784244332.424015,-0.006887955,0.002202251,-0.154692233,-0.000002146,-0.000095491,-0.001563085,-0.030566761,-0.051902492,9.798653603
1784244332.425994,-0.006887955,0.002202251,-0.154692233,-0.000066314,-0.000470869,-0.000770214,-0.021881117,-0.074152000,9.824523926
1784244332.427984,-0.006887578,0.002202354,-0.154692233,-0.000147505,-0.000652079,-0.000499037,-0.040585920,-0.063073613,9.812470436
1784244332.429971,-0.006887578,0.002202354,-0.154692233,-0.000276565,-0.000549677,-0.000246137,-0.035244592,-0.066319667,9.818284035
1784244332.431978,-0.006887578,0.002202354,-0.154692233,-0.000622807,-0.000347582,0.000136977,-0.016583057,-0.046228606,9.794668198
1784244332.433981,-0.006886533,0.002201362,-0.154692233,-0.000729777,-0.000182819,0.000235882,-0.030221289,-0.059612609,9.811158180
1784244332.435985,-0.006886533,0.002201362,-0.154692233,-0.000555503,-0.000102836,0.000524733,-0.032082163,-0.065784760,9.800356865
1784244332.437976,-0.006886173,0.002201944,-0.154692233,-0.000610727,-0.000151154,0.000824533,-0.027318995,-0.044209752,9.782116890
1784244332.439998,-0.006886173,0.002201944,-0.154692233,-0.000179570,-0.000170559,0.000574425,-0.008633060,-0.056247652,9.803129196
1784244332.442070,-0.006886173,0.002201944,-0.154692233,0.000483381,0.000262741,0.000196700,-0.021996779,-0.085601851,9.796652794
1784244332.444002,-0.006886419,0.002201936,-0.154692233,0.000335440,0.000852530,0.000355301,-0.003497219,-0.077326313,9.796724319
1784244332.445989,-0.006886419,0.002201936,-0.154692233,-0.000337189,0.000839513,0.000268905,-0.006611021,-0.038266357,9.791142464
1784244332.447989,-0.006884799,0.002200963,-0.154692233,-0.000862590,0.000814847,-0.000191313,-0.008578047,-0.050544988,9.820203781
1784244332.450037,-0.006884799,0.002200963,-0.154692233,-0.000753646,0.001185678,-0.000216749,-0.006552965,-0.067698002,9.834443092
1784244332.451999,-0.006884799,0.002200963,-0.154692233,0.000024099,0.000801097,-0.000364180,-0.032959882,-0.064807385,9.790497780
1784244332.453991,-0.006884740,0.002201645,-0.154692233,0.000694911,0.000018932,-0.000979664,-0.057523370,-0.054261211,9.800854683
1784244332.455994,-0.006884740,0.002201645,-0.154692233,0.000914066,-0.000316185,-0.001066122,-0.030497493,-0.083271883,9.799348831
1784244332.457992,-0.006885709,0.002202303,-0.154692233,0.000636734,-0.000633465,-0.000173462,-0.026236095,-0.101320952,9.809548378
1784244332.459993,-0.006885709,0.002202303,-0.154692233,0.000289392,-0.000882250,0.000675073,-0.037604857,-0.076533608,9.809698105
1784244332.461999,-0.006885709,0.002202303,-0.154692233,0.000222137,-0.000772744,0.000518908,0.002588401,-0.057576284,9.780714989
1784244332.463995,-0.006885090,0.002201846,-0.154692233,0.000103404,-0.000493120,0.000225629,-0.000602980,-0.061987039,9.776648521
1784244332.466003,-0.006885090,0.002201846,-0.154692233,0.000160718,-0.000293071,0.000355170,0.013099651,-0.041610532,9.784863472
1784244332.468004,-0.006883775,0.002200770,-0.154692233,0.000378713,-0.000475880,0.000881233,-0.014812757,-0.047255635,9.809906960
1784244332.470011,-0.006883775,0.002200770,-0.154692233,0.000557158,-0.000430270,0.001427957,-0.044279277,-0.034361895,9.813996315
1784244332.472011,-0.006883775,0.002200770,-0.154692233,0.000893829,0.000180687,0.001179923,-0.038635582,-0.051331967,9.795958519
1784244332.474010,-0.006882062,0.002202376,-0.154692233,0.000973602,0.000445452,0.001340949,-0.043299135,-0.065231226,9.805728912
1784244332.476011,-0.006882062,0.002202376,-0.154692233,0.000265972,0.000070171,0.001526080,-0.021370336,-0.071641311,9.785533905
1784244332.478009,-0.006882051,0.002202410,-0.154692233,-0.000880633,-0.000209652,0.000883679,-0.004405429,-0.040620763,9.803235054
1784244332.480014,-0.006882051,0.002202410,-0.154692233,-0.001241183,0.000048363,0.000581491,-0.014274746,-0.039261676,9.818924904
1784244332.482014,-0.006882051,0.002202410,-0.154692233,-0.000453159,0.000440322,0.000472467,-0.006369296,-0.054900721,9.798657417
1784244332.484012,-0.006881208,0.002201703,-0.154692233,0.000534677,0.000453624,0.000031148,-0.036865279,-0.052359000,9.811197281
1784244332.486011,-0.006881208,0.002201703,-0.154692233,0.000709649,0.000305866,-0.000075468,-0.038211457,-0.054368518,9.781145096
1784244332.488014,-0.006880585,0.002201930,-0.154692233,0.000371732,0.000635225,-0.000151442,-0.024663549,-0.045750294,9.804975510
1784244332.490016,-0.006880585,0.002201930,-0.154692233,0.000131610,0.001258058,-0.001016977,-0.046032205,-0.068761334,9.803014755
1784244332.492022,-0.006880585,0.002201930,-0.154692233,-0.000337156,0.001300751,-0.001614163,-0.017795907,-0.073428273,9.778353691
1784244332.494019,-0.006881032,0.002201970,-0.154692233,-0.000455467,0.000336612,-0.001585050,-0.009126379,-0.098641798,9.779993057
1784244332.496029,-0.006881032,0.002201970,-0.154692233,-0.000038251,-0.000588389,-0.001365713,-0.013760061,-0.072689027,9.793156624
1784244332.498025,-0.006881073,0.002201720,-0.154692233,0.000414346,-0.000728519,-0.000444542,-0.031609647,-0.101166114,9.797439575
1784244332.500026,-0.006881073,0.002201720,-0.154692233,0.000640911,-0.000360846,0.000120664,-0.031862941,-0.086244106,9.778706551
1784244332.502028,-0.006881073,0.002201720,-0.154692233,0.000267699,0.000203337,0.000118015,-0.016507745,-0.077550307,9.788639069
1784244332.504027,-0.006881659,0.002202696,-0.154692233,-0.000457078,0.000616898,0.000494468,-0.011372630,-0.059018578,9.819699287
1784244332.506040,-0.006881659,0.002202696,-0.154692233,-0.000682423,0.000535376,0.001019783,-0.000253479,-0.069665357,9.784670830
1784244332.508037,-0.006882183,0.002201190,-0.154692233,-0.000689610,-0.000082905,0.001273243,-0.013052935,-0.051202178,9.794639587
1784244332.510085,-0.006882183,0.002201190,-0.154692233,-0.000642859,-0.000784648,0.001257998,-0.036336828,-0.046061493,9.806756020
1784244332.512044,-0.006882183,0.002201190,-0.154692233,-0.000316476,-0.001098698,0.000869367,-0.014214802,-0.072730966,9.799880981
1784244332.514042,-0.006881093,0.002200668,-0.154692233,-0.000199129,-0.000942996,-0.000260231,-0.012008685,-0.073865496,9.829465866
1784244332.516045,-0.006881093,0.002200668,-0.154692233,-0.000041260,-0.000882687,-0.001354089,-0.000773193,-0.111862734,9.796953201
1784244332.518041,-0.006883096,0.002199861,-0.154692233,-0.000325195,-0.000784991,-0.001411163,0.004303926,-0.061872587,9.814763069
1784244332.520045,-0.006883096,0.002199861,-0.154692233,-0.000546396,-0.000284121,-0.001053230,-0.027994636,-0.060584981,9.817879677
1784244332.522047,-0.006883096,0.002199861,-0.154692233,-0.000144433,0.000186445,-0.001404758,-0.033561308,-0.076544017,9.803873062
1784244332.524047,-0.006884047,0.002200785,-0.154692233,0.000310869,0.000439381,-0.001967965,-0.024087407,-0.073424093,9.789106369
1784244332.526045,-0.006884047,0.002200785,-0.154692233,0.000561588,0.000024897,-0.001461078,-0.024781283,-0.056405969,9.791456223
1784244332.528057,-0.006883410,0.002201126,-0.154692233,0.000232875,-0.000617173,-0.000498814,-0.025046375,-0.077546000,9.803426743
1784244332.530067,-0.006883410,0.002201126,-0.154692233,-0.000005091,-0.001028609,-0.000176587,-0.031693362,-0.070721269,9.800774574
1784244332.532063,-0.006883410,0.002201126,-0.154692233,0.000241453,-0.001077443,-0.000499388,-0.006528345,-0.068314113,9.794984818
1784244332.534062,-0.006883893,0.002200573,-0.154692233,0.000044922,-0.000802424,-0.000823672,-0.009781925,-0.076458000,9.811966896
1784244332.536066,-0.006883893,0.002200573,-0.154692233,-0.000608393,-0.000834105,-0.000484355,-0.047194771,-0.091916636,9.784930229
1784244332.538059,-0.006885073,0.002201890,-0.154692233,-0.000327748,-0.001064883,0.000015604,-0.033347473,-0.057024512,9.830898285
1784244332.540083,-0.006885073,0.002201890,-0.154692233,0.000547196,-0.001166243,0.000056324,-0.012514296,-0.043608483,9.796931267
1784244332.542074,-0.006885073,0.002201890,-0.154692233,0.000754732,-0.000927579,-0.000219835,0.004131941,-0.039824534,9.801902771
1784244332.544114,-0.006883522,0.002201236,-0.154692233,0.000708473,-0.000467916,0.000284286,0.000900735,-0.048196983,9.787948608
1784244332.546089,-0.006883522,0.002201236,-0.154692233,0.000962614,-0.000244819,0.000759677,-0.025914710,-0.037688829,9.807717323
1784244332.548079,-0.006881914,0.002201200,-0.154692233,0.001254394,-0.000525678,-0.000159932,0.003188673,-0.078575552,9.834382057
1784244332.550071,-0.006881914,0.002201200,-0.154692233,0.001571446,-0.001126614,-0.000958263,-0.006814161,-0.092859767,9.781825066
1784244332.552068,-0.006881914,0.002201200,-0.154692233,0.001747110,-0.001479000,-0.000691015,-0.043399435,-0.074533485,9.790874481
1784244332.554096,-0.006882687,0.002201460,-0.154692233,0.001338504,-0.001190058,-0.000476089,-0.040627357,-0.067048028,9.804375648
1784244332.556082,-0.006882687,0.002201460,-0.154692233,0.001062169,-0.000761483,-0.000697356,-0.012393352,-0.070517339,9.800344467
1784244332.558082,-0.006882059,0.002201008,-0.154692233,0.000714644,-0.000504237,-0.000443894,-0.030703830,-0.062710799,9.806654930
1784244332.560073,-0.006882059,0.002201008,-0.154692233,0.000010229,-0.000205082,-0.000078826,-0.008662120,-0.058503356,9.805356979
1784244332.562080,-0.006882059,0.002201008,-0.154692233,-0.000029227,0.000262054,-0.000189825,-0.001558556,-0.065676883,9.793213844
1784244332.564075,-0.006882295,0.002199971,-0.154692233,0.000192800,0.000418666,-0.000108845,-0.007080851,-0.076422550,9.802104950
1784244332.566080,-0.006882295,0.002199971,-0.154692233,-0.000138515,0.000122983,0.000127600,-0.041372396,-0.056107402,9.779337883
1784244332.568088,-0.006881619,0.002200873,-0.154692233,-0.000415103,0.000032850,0.000481008,-0.031442586,-0.049289081,9.810772896
1784244332.570100,-0.006881619,0.002200873,-0.154692233,-0.000093705,-0.000059548,0.001244594,-0.051677179,-0.053827569,9.792345047
1784244332.572101,-0.006881619,0.002200873,-0.154692233,0.000031002,-0.000198117,0.001872495,-0.021821680,-0.071251199,9.794502258
1784244332.574129,-0.006881289,0.002201993,-0.154692233,0.000233185,-0.000082946,0.002114673,-0.026050122,-0.086884446,9.795295715
1784244332.576162,-0.006881289,0.002201993,-0.154692233,0.000948369,0.000451343,0.001229453,-0.021996500,-0.086815365,9.778263092
1784244332.578130,-0.006882195,0.002202161,-0.154692233,0.001401930,0.001221269,0.000261660,-0.009633643,-0.064750589,9.803523064
1784244332.580142,-0.006882195,0.002202161,-0.154692233,0.001128573,0.001350373,0.000582221,-0.015924960,-0.064339787,9.820109367
1784244332.582134,-0.006882195,0.002202161,-0.154692233,0.000253480,0.000838744,0.000973765,-0.043064956,-0.083546139,9.797543526
1784244332.584182,-0.006883099,0.002204174,-0.154692233,-0.000454922,0.000487891,0.000753558,-0.050042454,-0.066866882,9.795848846
1784244332.586108,-0.006883099,0.002204174,-0.154692233,-0.000534457,0.000321794,-0.000091636,-0.010121653,-0.070323512,9.768964767
1784244332.588136,-0.006883185,0.002203318,-0.154692233,-0.000521076,0.000092471,-0.000780049,-0.010103858,-0.065319993,9.821452141
1784244332.590108,-0.006883185,0.002203318,-0.154692233,-0.000601187,0.000120277,-0.000612690,-0.018863691,-0.086109132,9.799343109
1784244332.592110,-0.006883185,0.002203318,-0.154692233,-0.000386887,0.000386373,0.000034534,-0.037894700,-0.066357933,9.765378952
1784244332.594102,-0.006883300,0.002204277,-0.154692233,-0.000395176,0.000437668,0.000559130,-0.030730989,-0.066167302,9.788699150
1784244332.596103,-0.006883300,0.002204277,-0.154692233,-0.000509991,0.000370427,0.000579501,-0.023502806,-0.101031132,9.763825417
1784244332.598103,-0.006884788,0.002204364,-0.154692233,-0.000104299,0.000371714,0.000342673,0.000642902,-0.066442929,9.834008217
1784244332.600109,-0.006884788,0.002204364,-0.154692233,0.000330764,-0.000026938,0.000511126,-0.042633571,-0.048935492,9.781176567
1784244332.602110,-0.006884788,0.002204364,-0.154692233,-0.000133541,-0.000721249,0.000359574,-0.027517624,-0.059151452,9.804438591
1784244332.604161,-0.006884459,0.002205178,-0.154692233,-0.001066925,-0.001146862,-0.000040159,-0.014291843,-0.042638693,9.789763451
1784244332.606209,-0.006884459,0.002205178,-0.154692233,-0.001417018,-0.001011601,-0.000147836,-0.026426831,-0.044262588,9.787946701
1784244332.608166,-0.006883522,0.002205710,-0.154692233,-0.001107742,-0.000594278,-0.000368019,-0.019703945,-0.044409242,9.796469688
1784244332.610190,-0.006883522,0.002205710,-0.154692233,-0.000357467,-0.000136697,-0.000075436,-0.014443014,-0.056395121,9.771291733
1784244332.612277,-0.006883522,0.002205710,-0.154692233,-0.000047429,0.000142875,0.000516121,-0.030554295,-0.089393891,9.778238297
1784244332.614197,-0.006884526,0.002206348,-0.154692203,-0.000511941,0.000047887,0.000962354,0.005964840,-0.071868367,9.831290245
1784244332.616194,-0.006884526,0.002206348,-0.154692203,-0.000938996,0.000124081,0.001215893,-0.004538425,-0.089797311,9.788125038
1784244332.618218,-0.006885358,0.002205716,-0.154692203,-0.000761244,0.000158642,0.001022165,-0.033992052,-0.073964968,9.820028305
1784244332.620214,-0.006885358,0.002205716,-0.154692203,-0.000383449,-0.000321176,0.000607840,-0.038812984,-0.029731877,9.783096313
1784244332.622195,-0.006885358,0.002205716,-0.154692203,-0.000036454,-0.000690376,0.000450428,-0.040770806,-0.043964148,9.771795273
1784244332.624235,-0.006883508,0.002206788,-0.154692203,0.000075221,-0.000511264,0.000897633,-0.035475791,-0.050412703,9.787001610
1784244332.626177,-0.006883508,0.002206788,-0.154692203,-0.000452014,0.000201422,0.001279850,-0.041992627,-0.069613613,9.789562225
1784244332.628245,-0.006883661,0.002207456,-0.154692203,-0.001016089,0.000742096,0.001305399,-0.025739448,-0.060521509,9.804879189
1784244332.630179,-0.006883661,0.002207456,-0.154692203,-0.001107735,0.000521773,0.001122526,-0.028193908,-0.077963255,9.804765701
1784244332.632254,-0.006883661,0.002207456,-0.154692203,-0.000906189,0.000088501,0.000970160,-0.022132006,-0.096800871,9.796581268
1784244332.634153,-0.006884566,0.002208166,-0.154692203,-0.000850175,-0.000174703,0.001274503,-0.029468898,-0.072116144,9.803905487
1784244332.636143,-0.006884566,0.002208166,-0.154692203,-0.001025348,-0.000239116,0.001659046,-0.024550026,-0.073123008,9.810627937
1784244332.638148,-0.006884943,0.002208588,-0.154692203,-0.001237440,0.000132504,0.001345669,-0.023162890,-0.069169022,9.819173813
1784244332.640188,-0.006884943,0.002208588,-0.154692203,-0.001047787,0.000366173,0.000684475,-0.008963060,-0.048010085,9.779420853
1784244332.642164,-0.006884943,0.002208588,-0.154692203,-0.000339517,-0.000138819,0.000705396,0.005063356,-0.036325470,9.812237740
1784244332.644186,-0.006882288,0.002207653,-0.154692203,-0.000112407,-0.000415029,0.000955362,-0.022765571,-0.037258852,9.804583549
1784244332.646159,-0.006882288,0.002207653,-0.154692203,-0.000323420,-0.000323977,0.001102386,-0.019954544,-0.065434791,9.792300224
1784244332.648152,-0.006882320,0.002207861,-0.154692203,-0.000311285,-0.000023896,0.000958333,-0.019315736,-0.087345518,9.784987450
1784244332.650308,-0.006882320,0.002207861,-0.154692203,-0.000404740,0.000509104,-0.000336439,-0.028668568,-0.081404462,9.785465240
1784244332.652204,-0.006882320,0.002207861,-0.154692203,-0.000801021,0.000578824,-0.001588844,-0.003817258,-0.067389093,9.786026001
1784244332.654240,-0.006882224,0.002206966,-0.154692233,-0.000771998,0.000256464,-0.000914223,-0.015710289,-0.086050808,9.785447121
1784244332.656235,-0.006882224,0.002206966,-0.154692233,-0.000426993,0.000084156,0.000552892,-0.029645147,-0.087286413,9.795289993
1784244332.658237,-0.006882966,0.002207775,-0.154692203,-0.000644179,-0.000119893,0.000573483,-0.023516418,-0.061522491,9.815635681
1784244332.660262,-0.006882966,0.002207775,-0.154692203,-0.001000747,-0.000370080,-0.000116418,-0.028690878,-0.044396006,9.810809135
1784244332.662198,-0.006882966,0.002207775,-0.154692203,-0.000788838,-0.000343315,-0.000310209,-0.015684498,-0.045420498,9.805434227
1784244332.664239,-0.006880998,0.002206993,-0.154692233,-0.000309710,-0.000276532,0.000072898,-0.025994822,-0.082395293,9.793979645
1784244332.666211,-0.006880998,0.002206993,-0.154692233,-0.000198867,-0.000408404,0.000856054,-0.031099366,-0.059448492,9.789637566
1784244332.668232,-0.006880400,0.002207709,-0.154692233,-0.000390821,-0.000785422,0.000756660,-0.035758551,-0.072502695,9.806586266
1784244332.670270,-0.006880400,0.002207709,-0.154692233,-0.000507633,-0.000872695,-0.000560242,-0.008689167,-0.060743164,9.805343628
1784244332.672327,-0.006880400,0.002207709,-0.154692233,-0.000426115,-0.000613088,-0.001679993,-0.005476830,-0.053330228,9.828258514
1784244332.674280,-0.006879745,0.002206758,-0.154692233,-0.000078740,-0.000482841,-0.002206761,-0.010355717,-0.050791893,9.795093536
1784244332.676298,-0.006879745,0.002206758,-0.154692233,-0.000168908,-0.000296031,-0.002301710,-0.017268077,-0.029140536,9.787156105
1784244332.678272,-0.006877666,0.002206627,-0.154692233,-0.000709078,-0.000446134,-0.001831673,-0.029146194,-0.044847757,9.812150002
1784244332.680223,-0.006877666,0.002206627,-0.154692233,-0.000580517,-0.000759324,-0.001453459,-0.020230506,-0.051907543,9.780730247
1784244332.682241,-0.006877666,0.002206627,-0.154692233,-0.000211098,-0.000681257,-0.001699293,-0.030271528,-0.064467050,9.800815582
1784244332.684213,-0.006877102,0.002207019,-0.154692233,0.000146837,-0.000786893,-0.001951351,-0.041106094,-0.069710977,9.801669121
1784244332.686210,-0.006877102,0.002207019,-0.154692233,0.000511122,-0.001192603,-0.001540930,-0.044234585,-0.068762079,9.799877167
1784244332.688205,-0.006876818,0.002207629,-0.154692203,-0.000051792,-0.001173129,-0.001259556,-0.002660290,-0.082678355,9.791757584
1784244332.690214,-0.006876818,0.002207629,-0.154692203,-0.001375399,-0.000444800,-0.001431138,0.003812867,-0.067064308,9.789623260
1784244332.692254,-0.006876818,0.002207629,-0.154692203,-0.001687804,0.000203751,-0.001391975,-0.022621203,-0.061956521,9.812046051
1784244332.694207,-0.006876947,0.002208035,-0.154692203,-0.001124662,0.000235485,-0.001328541,-0.008872144,-0.039997663,9.786646843
1784244332.696207,-0.006876947,0.002208035,-0.154692203,-0.000805943,0.000151705,-0.001301122,-0.024683293,-0.048742943,9.784781456
1784244332.698249,-0.006876039,0.002207857,-0.154692203,-0.000407754,0.000482319,-0.000863510,-0.025838876,-0.067790635,9.819179535
1784244332.700216,-0.006876039,0.002207857,-0.154692203,0.000100528,0.000934038,-0.000091898,-0.016129700,-0.081355959,9.819101334
1784244332.702221,-0.006876039,0.002207857,-0.154692203,0.000231269,0.000834156,0.000395236,-0.030096374,-0.085679591,9.822199821
1784244332.704216,-0.006876930,0.002208282,-0.154692203,-0.000059023,0.000208018,0.000674204,-0.024820864,-0.057934277,9.817449570
1784244332.706246,-0.006876930,0.002208282,-0.154692203,-0.000216302,-0.000283815,0.000732903,-0.002994482,-0.072042361,9.808862686
1784244332.708248,-0.006877497,0.002207060,-0.154692233,0.000145600,-0.000210840,0.000056752,-0.004446055,-0.044588819,9.794242859
1784244332.710217,-0.006877497,0.002207060,-0.154692233,0.000737919,0.000092094,-0.000650525,-0.023444211,-0.056899793,9.795489311
1784244332.712211,-0.006877497,0.002207060,-0.154692233,0.000299571,0.000281954,-0.000481354,-0.013769656,-0.035985433,9.798323631
1784244332.714220,-0.006875769,0.002206868,-0.154692203,-0.000276815,0.000132945,-0.000017139,0.004386148,-0.056360330,9.795520782
1784244332.716252,-0.006875769,0.002206868,-0.154692203,0.000131370,-0.000361189,0.000103582,-0.021760279,-0.064687580,9.816514015
1784244332.718236,-0.006875712,0.002207086,-0.154692203,0.000683615,-0.000579362,0.000102462,-0.037457608,-0.064429119,9.808429718
1784244332.720223,-0.006875712,0.002207086,-0.154692203,0.000869317,-0.000770080,-0.000205756,-0.040695954,-0.074478947,9.778325081
1784244332.722254,-0.006875712,0.002207086,-0.154692203,0.000574507,-0.000544616,-0.000392839,-0.012077512,-0.080892973,9.809693336
1784244332.724228,-0.006876022,0.002206849,-0.154692203,0.000256764,0.000194835,-0.000219205,-0.011940395,-0.070894733,9.789584160
1784244332.726225,-0.006876022,0.002206849,-0.154692203,0.000111680,0.000424828,0.000194532,-0.009168322,-0.100999251,9.796566010
1784244332.728223,-0.006877834,0.002206539,-0.154692233,0.000272107,0.000191532,0.000819057,-0.003054153,-0.077376567,9.802999496
1784244332.730228,-0.006877834,0.002206539,-0.154692233,0.000085290,0.000261720,0.000805525,-0.009176590,-0.028316302,9.782686234
1784244332.732229,-0.006877834,0.002206539,-0.154692233,-0.000320174,0.000495415,0.000850412,-0.042637881,-0.047753770,9.804049492
1784244332.734225,-0.006876664,0.002206555,-0.154692203,0.000172569,0.000218319,0.002001084,-0.039131988,-0.054944884,9.800868034
1784244332.736239,-0.006876664,0.002206555,-0.154692203,0.000800552,-0.000201991,0.002766339,-0.024394443,-0.062168445,9.782006264
1784244332.738228,-0.006876174,0.002206711,-0.154692203,0.000612792,-0.000224375,0.002205163,-0.022549048,-0.056523751,9.804012299
1784244332.740249,-0.006876174,0.002206711,-0.154692203,0.000188346,-0.000163480,0.001453342,0.006404899,-0.075184368,9.792712212
1784244332.742330,-0.006876174,0.002206711,-0.154692203,0.000110402,-0.000411260,0.001175164,0.010596805,-0.061460599,9.808494568
1784244332.744247,-0.006875650,0.002204163,-0.154692233,0.000089628,-0.000575041,0.001117080,-0.015014160,-0.065866508,9.781094551
1784244332.746268,-0.006875650,0.002204163,-0.154692233,0.000094738,-0.000444022,0.001310866,-0.013067202,-0.051720094,9.804500580
1784244332.748286,-0.006873951,0.002203611,-0.154692233,0.000368870,-0.000388486,0.001614711,-0.029861886,-0.030028105,9.808658600
1784244332.750258,-0.006873951,0.002203611,-0.154692233,0.000659645,-0.000399799,0.001312413,-0.015478166,-0.065981582,9.798129082
1784244332.752240,-0.006873951,0.002203611,-0.154692233,0.000167702,-0.000414577,0.000459224,-0.042571880,-0.043585401,9.784796715
1784244332.754250,-0.006872754,0.002204388,-0.154692233,-0.000659916,-0.000208167,0.000469962,-0.045428202,-0.056599014,9.792780876
1784244332.756274,-0.006872754,0.002204388,-0.154692233,-0.000843083,0.000385221,0.000878060,-0.003812310,-0.066134252,9.798588753
1784244332.758254,-0.006873101,0.002202666,-0.154692233,-0.000780698,0.000440058,0.000740320,-0.013433117,-0.083382249,9.784121513
1784244332.760255,-0.006873101,0.002202666,-0.154692233,-0.000939908,-0.000040096,0.000690910,-0.025585247,-0.084736235,9.807415009
1784244332.762253,-0.006873101,0.002202666,-0.154692233,-0.001148237,-0.000533877,0.000816433,-0.041475728,-0.062191632,9.816061974
1784244332.764248,-0.006872985,0.002203497,-0.154692233,-0.001245678,-0.000893955,0.000871856,-0.031055760,-0.057888396,9.759161949
1784244332.766260,-0.006872985,0.002203497,-0.154692233,-0.001110425,-0.000509636,0.000771746,-0.004696533,-0.064397678,9.808013916
1784244332.768261,-0.006873162,0.002202919,-0.154692233,-0.000468063,-0.000109311,0.000664249,-0.022244936,-0.031428389,9.802828789
1784244332.770267,-0.006873162,0.002202919,-0.154692233,0.000228726,-0.000361008,0.000727689,-0.013868802,-0.044468082,9.794233322
1784244332.772285,-0.006873162,0.002202919,-0.154692233,-0.000186387,-0.000623639,0.000645634,-0.006118658,-0.072275206,9.784199715
1784244332.774262,-0.006873603,0.002202127,-0.154692248,-0.001228312,-0.000662553,0.000513325,-0.012633290,-0.053463623,9.796867371
1784244332.776265,-0.006873603,0.002202127,-0.154692248,-0.001535796,-0.000626873,0.000923464,-0.030852063,-0.075228266,9.802986145
1784244332.778267,-0.006874246,0.002203091,-0.154692233,-0.001111388,-0.000771635,0.001511153,-0.023140101,-0.031804435,9.794306755
1784244332.780263,-0.006874246,0.002203091,-0.154692233,-0.000366874,-0.000913136,0.001181594,-0.052783508,-0.033680689,9.796507835
1784244332.782266,-0.006874246,0.002203091,-0.154692233,0.000360234,-0.000728119,0.000600428,-0.045200732,-0.036161318,9.816673279
1784244332.784264,-0.006872626,0.002204173,-0.154692233,0.000205248,-0.000264956,0.000665195,-0.038279802,-0.021776078,9.797493935
1784244332.786275,-0.006872626,0.002204173,-0.154692233,-0.000594544,0.000150196,0.000982496,0.011239653,-0.045749556,9.803216934
1784244332.788279,-0.006872518,0.002201228,-0.154692262,-0.000578527,0.000486378,0.000528817,-0.004386210,-0.038847990,9.805934906
1784244332.790332,-0.006872518,0.002201228,-0.154692262,-0.000097223,0.000480096,-0.000759083,-0.027846247,-0.085250847,9.820859909
1784244332.792324,-0.006872518,0.002201228,-0.154692262,-0.000094050,0.000154173,-0.001519128,-0.017914787,-0.082066715,9.796231270
1784244332.794301,-0.006873326,0.002201408,-0.154692262,0.000070239,-0.000121888,-0.001928357,-0.005003699,-0.091948688,9.776453972
1784244332.796305,-0.006873326,0.002201408,-0.154692262,0.000677349,-0.000417584,-0.002334540,-0.008344669,-0.068866260,9.812912941
1784244332.798319,-0.006873370,0.002201009,-0.154692262,0.000669978,-0.000377154,-0.002467262,-0.032719474,-0.079831153,9.823578835
1784244332.800293,-0.006873370,0.002201009,-0.154692262,-0.000074089,-0.000088190,-0.002491469,0.000790598,-0.092735305,9.813665390
1784244332.802290,-0.006873370,0.002201009,-0.154692262,-0.000510390,-0.000025806,-0.002022362,-0.013954824,-0.050415587,9.811681747
1784244332.804301,-0.006873150,0.002200777,-0.154692262,-0.000394720,0.000083975,-0.001192177,-0.023884000,-0.057634167,9.773516655
1784244332.806300,-0.006873150,0.002200777,-0.154692262,-0.000108395,0.000327415,-0.001181873,-0.016950971,-0.040316693,9.783048630
1784244332.808286,-0.006872071,0.002200752,-0.154692262,-0.000157315,0.000023771,-0.001538492,-0.001701376,-0.042993262,9.753905296
1784244332.810291,-0.006872071,0.002200752,-0.154692262,-0.000235461,-0.000650715,-0.001187117,0.000492432,-0.043819726,9.803219795
1784244332.812289,-0.006872071,0.002200752,-0.154692262,0.000038215,-0.000659879,-0.000891828,-0.054879542,-0.056704026,9.824604034
1784244332.814291,-0.006871321,0.002201046,-0.154692262,0.000605108,-0.000165323,-0.000871907,-0.036152072,-0.069224492,9.787328720
1784244332.816297,-0.006871321,0.002201046,-0.154692262,0.001488580,0.000190990,-0.001037187,-0.018161800,-0.064663611,9.806652069
1784244332.818291,-0.006871570,0.002201406,-0.154692262,0.001860105,0.000258712,-0.001682596,-0.032974329,-0.065731928,9.794527054
1784244332.820300,-0.006871570,0.002201406,-0.154692262,0.001944527,-0.000211367,-0.002246218,-0.028316827,-0.089470334,9.784964561
1784244332.822312,-0.006871570,0.002201406,-0.154692262,0.001805509,-0.000660866,-0.002459156,-0.029481430,-0.071404651,9.829914093
1784244332.824303,-0.006871735,0.002202147,-0.154692262,0.000733429,-0.000386315,-0.002215328,-0.015541338,-0.070127711,9.814244270
1784244332.826325,-0.006871735,0.002202147,-0.154692262,-0.000443713,-0.000002929,-0.001892895,-0.014823628,-0.047341488,9.822010994
1784244332.828330,-0.006871035,0.002202351,-0.154692262,-0.001056085,-0.000534141,-0.002005116,-0.010737857,-0.083797932,9.774705887
1784244332.830317,-0.006871035,0.002202351,-0.154692262,-0.001414003,-0.001172734,-0.002304752,-0.032826450,-0.088780835,9.822176933
1784244332.832310,-0.006871035,0.002202351,-0.154692262,-0.001294253,-0.001604941,-0.002702763,-0.026050525,-0.086887628,9.795743942
1784244332.834318,-0.006871862,0.002202137,-0.154692262,-0.000974195,-0.002102965,-0.002885049,-0.020691009,-0.087963820,9.811433792
1784244332.836342,-0.006871862,0.002202137,-0.154692262,-0.000951777,-0.001695067,-0.002111294,-0.029508881,-0.073647633,9.830346107
1784244332.838323,-0.006872007,0.002202715,-0.154692262,-0.000892988,-0.000664724,-0.000839448,-0.014555324,-0.063765988,9.799938202
1784244332.840335,-0.006872007,0.002202715,-0.154692262,-0.000997371,-0.000216648,-0.000221721,-0.025471080,-0.074919261,9.812857628
1784244332.842318,-0.006872007,0.002202715,-0.154692262,-0.000935317,-0.000608476,-0.000298999,-0.031594966,-0.063055046,9.793648720
1784244332.844370,-0.006872131,0.002202584,-0.154692262,-0.000293904,-0.000953902,-0.000426889,-0.054571576,-0.031983502,9.813105583
1784244332.846339,-0.006872131,0.002202584,-0.154692262,-0.000559969,-0.000372328,-0.000083335,-0.046412554,-0.063758068,9.793183327
1784244332.848327,-0.006872118,0.002203318,-0.154692248,-0.001095506,0.000287136,0.000474592,-0.034627244,-0.054862477,9.781145096
1784244332.850339,-0.006872118,0.002203318,-0.154692248,-0.000735359,-0.000173732,0.000425688,-0.056386024,-0.071326420,9.804331779
1784244332.852331,-0.006872118,0.002203318,-0.154692248,-0.000727838,-0.000686161,0.000298414,-0.013221821,-0.065098517,9.795895576
1784244332.854326,-0.006872389,0.002203508,-0.154692248,-0.000681178,-0.000522031,0.000551740,0.020990133,-0.094147116,9.786774635
1784244332.856346,-0.006872389,0.002203508,-0.154692248,0.000164652,-0.000590656,0.000646268,-0.030274345,-0.064489312,9.803954124
1784244332.858325,-0.006871647,0.002204130,-0.154692248,0.001018247,-0.000567116,0.000048001,-0.034814194,-0.069711961,9.790465355
1784244332.860332,-0.006871647,0.002204130,-0.154692248,0.001139711,-0.000039599,-0.000548249,-0.035411187,-0.081413612,9.798908234
1784244332.862327,-0.006871647,0.002204130,-0.154692248,0.000882560,0.000342996,-0.000098630,-0.020087518,-0.074184537,9.825868607
1784244332.864331,-0.006873187,0.002204264,-0.154692248,0.000533315,0.000713011,0.000301371,-0.004221363,-0.062573425,9.802645683
1784244332.866341,-0.006873187,0.002204264,-0.154692248,-0.000280112,0.001044802,0.000231190,-0.024843022,-0.060945995,9.799946785
1784244332.868343,-0.006873327,0.002204251,-0.154692248,-0.001055966,0.000949599,-0.000327555,-0.004671219,-0.063387282,9.791879654
1784244332.870347,-0.006873327,0.002204251,-0.154692248,-0.001011928,0.000299693,-0.001061794,0.002308878,-0.042050879,9.803231239
1784244332.872339,-0.006873327,0.002204251,-0.154692248,-0.000436519,0.000102838,-0.000691685,-0.009429091,-0.085731030,9.792179108
1784244332.874340,-0.006874213,0.002203309,-0.154692248,0.000258569,0.000528556,0.000213359,-0.020837061,-0.102895625,9.769195557
1784244332.876344,-0.006874213,0.002203309,-0.154692248,0.000760837,0.000565754,0.001358545,-0.024224818,-0.085045651,9.785446167
1784244332.878340,-0.006875481,0.002203416,-0.154692248,0.000818888,0.000472392,0.001830605,-0.035626892,-0.062142357,9.798583031
1784244332.880341,-0.006875481,0.002203416,-0.154692248,0.000973081,0.000516923,0.001236606,-0.039504506,-0.049474571,9.788349152
1784244332.882342,-0.006875481,0.002203416,-0.154692248,0.000920028,0.000421831,0.001344465,-0.021306971,-0.029498601,9.781769753
1784244332.884343,-0.006873251,0.002203146,-0.154692248,0.000370543,0.000048759,0.001962089,0.007485860,-0.060778435,9.781148911
1784244332.886355,-0.006873251,0.002203146,-0.154692248,0.000189326,-0.000114952,0.002015833,0.012842676,-0.060660195,9.817916870
1784244332.888349,-0.006872294,0.002201769,-0.154692262,0.000317853,0.000394498,0.001806175,-0.004418837,-0.041942392,9.800087929
1784244332.890347,-0.006872294,0.002201769,-0.154692262,0.000285166,0.000820100,0.001797960,-0.035085373,-0.052499648,9.827787399
1784244332.892353,-0.006872294,0.002201769,-0.154692262,0.000721170,0.000206456,0.001913921,-0.022278262,-0.070902415,9.809300423
1784244332.894351,-0.006872289,0.002201755,-0.154692262,0.001251111,-0.000674738,0.001978265,-0.051643182,-0.087906986,9.796161652
1784244332.896357,-0.006872289,0.002201755,-0.154692262,0.000667689,-0.000798816,0.001466878,-0.064390674,-0.063359946,9.832621574
1784244332.898360,-0.006871875,0.002203341,-0.154692248,-0.000042222,-0.000489929,0.001060005,-0.059628438,-0.043007992,9.797336578
1784244332.900359,-0.006871875,0.002203341,-0.154692248,-0.000145772,-0.000345017,0.001359524,-0.007308026,-0.095236912,9.801985741
1784244332.902361,-0.006871875,0.002203341,-0.154692248,-0.000091142,0.000048131,0.001417062,0.005308922,-0.056171518,9.767277718
1784244332.904361,-0.006871411,0.002202013,-0.154692262,-0.000062947,0.000893741,0.001281558,-0.004121075,-0.056108009,9.775338173
1784244332.906386,-0.006871411,0.002202013,-0.154692262,-0.000085215,0.000880692,0.001107064,-0.050029915,-0.067578383,9.769841194
1784244332.908396,-0.006871396,0.002202990,-0.154692262,-0.000310381,-0.000044852,0.001028667,-0.050182104,-0.078100882,9.800708771
1784244332.910370,-0.006871396,0.002202990,-0.154692262,-0.000541878,-0.000285950,0.000901654,-0.051574297,-0.081689581,9.803822517
1784244332.912370,-0.006871396,0.002202990,-0.154692262,-0.000381151,-0.000105044,0.000793585,-0.014714319,-0.077989459,9.784155846
1784244332.914366,-0.006872276,0.002203027,-0.154692248,0.000185381,-0.000037081,0.001527547,-0.033639848,-0.048084605,9.771327972
1784244332.916374,-0.006872276,0.002203027,-0.154692248,0.000439777,0.000392895,0.001937737,-0.008421712,-0.038773999,9.802794456
1784244332.918368,-0.006870870,0.002201907,-0.154692262,0.000045181,0.000463823,0.001674678,0.001906156,-0.036819045,9.824336052
1784244332.920386,-0.006870870,0.002201907,-0.154692262,-0.000718296,-0.000037128,0.001443104,-0.015432919,-0.023981960,9.814539909
1784244332.922380,-0.006870870,0.002201907,-0.154692262,-0.000982069,-0.000204682,0.000860777,-0.023861263,-0.054212641,9.796402931
1784244332.924377,-0.006869840,0.002201919,-0.154692262,-0.000229527,0.000042271,0.000241545,-0.011429428,-0.065140583,9.798587799
1784244332.926380,-0.006869840,0.002201919,-0.154692262,0.000087298,0.000583989,-0.000099600,-0.004389955,-0.074846432,9.827672958
1784244332.928381,-0.006870228,0.002201495,-0.154692262,-0.000275657,0.001272350,-0.000239116,-0.010616436,-0.071086869,9.814241409
1784244332.930379,-0.006870228,0.002201495,-0.154692262,-0.000652355,0.001415261,-0.000379032,-0.000967775,-0.051592700,9.827824593
1784244332.932388,-0.006870228,0.002201495,-0.154692262,-0.000482892,0.000758839,-0.000520595,0.005354218,-0.049735080,9.807220459
1784244332.934388,-0.006869950,0.002201140,-0.154692262,0.000490416,0.000341816,-0.000351254,0.008568618,-0.043116327,9.815784454
1784244332.936402,-0.006869950,0.002201140,-0.154692262,0.001313632,0.000628880,0.000082463,-0.008036654,-0.044955809,9.789305687
1784244332.938396,-0.006869183,0.002200962,-0.154692262,0.001402932,0.000570308,0.000919622,0.000796182,-0.057127584,9.783856392
1784244332.940396,-0.006869183,0.002200962,-0.154692262,0.000559603,0.000071115,0.001254719,-0.013407094,-0.043155383,9.797828674
1784244332.942395,-0.006869183,0.002200962,-0.154692262,-0.000072243,-0.000413367,0.000685802,-0.000082688,-0.054132979,9.805393219
1784244332.944397,-0.006869095,0.002199848,-0.154692277,0.000445221,-0.000668081,0.000147089,-0.042008046,-0.070951134,9.788656235
1784244332.946397,-0.006869095,0.002199848,-0.154692277,0.000988949,-0.000337553,0.000425700,-0.033831455,-0.062565625,9.791856766
1784244332.948398,-0.006868548,0.002200335,-0.154692262,0.000556389,0.000164820,0.000520495,-0.014502737,-0.060919248,9.777539253
1784244332.950442,-0.006868548,0.002200335,-0.154692262,-0.000514522,0.000670473,-0.000313461,0.028999690,-0.062458694,9.789676666
1784244332.952404,-0.006868548,0.002200335,-0.154692262,-0.001079625,0.000926639,-0.000614391,-0.028420331,-0.061208058,9.780214310
1784244332.954427,-0.006868383,0.002200327,-0.154692277,-0.000971609,0.000658335,-0.000943636,-0.065761119,-0.066776939,9.811526299
1784244332.956409,-0.006868383,0.002200327,-0.154692277,-0.000714680,0.000104403,-0.001744807,-0.054077204,-0.065976448,9.803919792
1784244332.958403,-0.006869033,0.002201179,-0.154692262,-0.000316150,-0.000665710,-0.001626138,-0.024963455,-0.070407234,9.807506561
1784244332.960407,-0.006869033,0.002201179,-0.154692262,0.000156309,-0.001050250,-0.001285691,-0.042598233,-0.044198699,9.808106422
1784244332.962410,-0.006869033,0.002201179,-0.154692262,0.000309047,-0.000661795,-0.001124517,-0.031790603,-0.077567875,9.818662643
1784244332.964406,-0.006869497,0.002201647,-0.154692262,-0.000062845,0.000129160,-0.000806471,-0.004015716,-0.081924170,9.814178467
1784244332.966410,-0.006869497,0.002201647,-0.154692262,-0.000041830,0.000866531,-0.000952504,-0.005624323,-0.067868121,9.793643951
1784244332.968414,-0.006869647,0.002201234,-0.154692262,0.000241399,0.001094934,-0.001078234,-0.034428321,-0.038297448,9.782597542
1784244332.970443,-0.006869647,0.002201234,-0.154692262,0.000097504,0.000722910,-0.000812347,-0.025837388,-0.068994619,9.799446106
1784244332.972418,-0.006869647,0.002201234,-0.154692262,0.000225913,0.000252273,-0.000763808,-0.008826870,-0.073988035,9.777908325
1784244332.974419,-0.006870664,0.002200081,-0.154692262,0.000160622,0.000183554,-0.001124312,-0.024841880,-0.062963240,9.768550873
1784244332.976425,-0.006870664,0.002200081,-0.154692262,-0.000319394,0.000229370,-0.001585658,-0.039051436,-0.086225234,9.789011002
1784244332.978425,-0.006871911,0.002200979,-0.154692262,-0.000166952,-0.000155653,-0.002085743,-0.044773974,-0.077172205,9.786373138
1784244332.980424,-0.006871911,0.002200979,-0.154692262,0.000502672,-0.000499479,-0.001907962,-0.037255298,-0.050268877,9.769965172
1784244332.982423,-0.006871911,0.002200979,-0.154692262,0.000811724,-0.000392801,-0.001000516,0.016798360,-0.069064222,9.795451164
1784244332.984428,-0.006872403,0.002199262,-0.154692262,0.000819849,-0.000365418,-0.000556698,-0.003013339,-0.035411920,9.824340820
1784244332.986446,-0.006872403,0.002199262,-0.154692262,0.000861692,-0.000503975,-0.000866021,-0.000155529,-0.023602286,9.796623230
1784244332.988429,-0.006870628,0.002198471,-0.154692277,0.001020766,-0.000426086,-0.001126262,0.007731612,-0.077381007,9.784180641
1784244332.990433,-0.006870628,0.002198471,-0.154692277,0.000661625,-0.000709418,-0.000794992,-0.025689732,-0.056886949,9.797730446
1784244332.992480,-0.006870628,0.002198471,-0.154692277,-0.000072168,-0.001143614,-0.000736203,-0.023622237,-0.069652565,9.824998856
1784244332.994447,-0.006870824,0.002198384,-0.154692277,-0.000078006,-0.001174314,-0.001232498,-0.041144524,-0.070419654,9.838425636
1784244332.996447,-0.006870824,0.002198384,-0.154692277,0.000169745,-0.001254722,-0.001377346,-0.035458308,-0.084622465,9.809198380
1784244332.998437,-0.006871786,0.002198782,-0.154692262,0.000496272,-0.001188768,-0.001499992,-0.037505660,-0.068861037,9.801676750
1784244333.000442,-0.006871786,0.002198782,-0.154692262,0.000829479,-0.000709104,-0.001695092,-0.020918572,-0.069191404,9.818278313
1784244333.002479,-0.006871786,0.002198782,-0.154692262,0.000747998,-0.000143065,-0.001367183,-0.016392024,-0.066910528,9.804399490
1784244333.004456,-0.006872070,0.002198811,-0.154692262,0.000522764,0.000017981,-0.000949449,-0.048072431,-0.088912494,9.805124283
1784244333.006459,-0.006872070,0.002198811,-0.154692262,0.000210716,-0.000326655,-0.001370016,-0.016402211,-0.068206705,9.797667503
1784244333.008450,-0.006872180,0.002198582,-0.154692262,-0.000123392,-0.000467244,-0.001892571,-0.026104949,-0.054590527,9.790570259
1784244333.010447,-0.006872180,0.002198582,-0.154692262,-0.000437811,-0.000215553,-0.001188278,-0.026114678,-0.056693599,9.771278381
1784244333.012452,-0.006872180,0.002198582,-0.154692262,-0.000411414,0.000286044,-0.000185630,-0.011956216,-0.072235443,9.789126396
1784244333.014452,-0.006872181,0.002198180,-0.154692277,0.000029860,0.001100312,-0.000011646,-0.029813856,-0.100776128,9.802375793
1784244333.016456,-0.006872181,0.002198180,-0.154692277,0.000602419,0.001493132,0.000060227,-0.034079235,-0.083568923,9.784548759
1784244333.018456,-0.006872431,0.002199102,-0.154692262,0.001105348,0.001399171,0.000309174,-0.042608831,-0.083088040,9.795304298
1784244333.020454,-0.006872431,0.002199102,-0.154692262,0.001581742,0.001420970,0.000256533,-0.013434894,-0.080964752,9.822246552
1784244333.022454,-0.006872431,0.002199102,-0.154692262,0.001748429,0.001509906,0.000362720,0.018609745,-0.066930078,9.807122231
1784244333.024461,-0.006872109,0.002197420,-0.154692277,0.001452278,0.001487209,0.000763857,0.010939178,-0.067979462,9.842528343
1784244333.026504,-0.006872109,0.002197420,-0.154692277,0.001271523,0.001397304,0.001218195,-0.013869839,-0.044070996,9.801409721
1784244333.028491,-0.006871307,0.002198005,-0.154692277,0.000960008,0.001301182,0.000989113,-0.015250409,-0.046757411,9.803633690
1784244333.030487,-0.006871307,0.002198005,-0.154692277,0.000637848,0.000712310,0.000476202,0.009657911,-0.064613454,9.812507629
1784244333.032492,-0.006871307,0.002198005,-0.154692277,0.000581739,0.000205749,0.000698113,-0.013054733,-0.089211486,9.784085274
1784244333.034486,-0.006871860,0.002197488,-0.154692277,0.000422365,0.000593636,0.000917958,-0.039824210,-0.076314084,9.782796860
1784244333.036472,-0.006871860,0.002197488,-0.154692277,-0.000218123,0.000846638,0.000950751,-0.017587148,-0.056380313,9.774875641
1784244333.038481,-0.006870983,0.002197200,-0.154692277,-0.000964695,0.000206446,0.000897396,-0.039570387,-0.055263091,9.783380508
1784244333.040480,-0.006870983,0.002197200,-0.154692277,-0.000928036,-0.000016080,0.001167688,-0.043472566,-0.042789266,9.800492287
1784244333.042525,-0.006870983,0.002197200,-0.154692277,-0.000315839,0.000515808,0.001640167,-0.022918750,-0.051031176,9.788355827
1784244333.044485,-0.006870006,0.002196809,-0.154692277,0.000055402,0.000477863,0.001043181,-0.037268467,-0.049157109,9.802700043
1784244333.046483,-0.006870006,0.002196809,-0.154692277,0.000250890,0.000094254,0.000082677,-0.034515511,-0.082654528,9.782760620
1784244333.048483,-0.006870638,0.002196979,-0.154692277,0.000103161,-0.000079279,0.000231524,-0.006156520,-0.075410940,9.784180641
1784244333.050483,-0.006870638,0.002196979,-0.154692277,-0.000509772,-0.000057914,0.000610756,-0.015963063,-0.069908924,9.784205437
1784244333.052486,-0.006870638,0.002196979,-0.154692277,-0.000975231,-0.000184368,0.000597372,-0.014591809,-0.066485561,9.804402351
1784244333.054553,-0.006870836,0.002196694,-0.154692277,-0.000991160,-0.000478297,0.000641166,-0.027778735,-0.041859645,9.830553055
1784244333.056523,-0.006870836,0.002196694,-0.154692277,-0.000512281,-0.000551723,0.000349700,-0.015859883,-0.023804506,9.790329933
1784244333.058511,-0.006868606,0.002196362,-0.154692277,-0.000183039,-0.000766442,0.000046182,-0.020396054,-0.064561740,9.796339989
1784244333.060507,-0.006868606,0.002196362,-0.154692277,-0.000214922,-0.000868812,0.000294289,-0.016772600,-0.061503805,9.800847054
1784244333.062507,-0.006868606,0.002196362,-0.154692277,-0.000106092,-0.000440724,0.000459990,-0.013974913,-0.054221477,9.779825211
1784244333.064512,-0.006867609,0.002196264,-0.154692277,-0.000004611,0.000126426,0.000004502,-0.034964144,-0.045868885,9.777168274
1784244333.066511,-0.006867609,0.002196264,-0.154692277,0.000086095,0.000431080,-0.000273739,-0.043391038,-0.073656641,9.793570518
1784244333.068503,-0.006867905,0.002197708,-0.154692277,0.000128720,0.000289523,0.000135264,-0.018073766,-0.058700219,9.786965370
1784244333.070502,-0.006867905,0.002197708,-0.154692277,0.000244450,-0.000354156,0.000376187,0.005376942,-0.049150396,9.787946701
1784244333.072503,-0.006867905,0.002197708,-0.154692277,0.000709227,-0.000807623,0.000299661,-0.007759306,-0.058066893,9.805360794
1784244333.074506,-0.006867151,0.002196682,-0.154692277,0.000873539,-0.000541895,0.000210854,-0.032019209,-0.061235197,9.790522575
1784244333.076510,-0.006867151,0.002196682,-0.154692277,0.000796422,-0.000113421,0.000345724,-0.041902177,-0.063631140,9.767185211
1784244333.078527,-0.006866986,0.002198329,-0.154692277,0.000813081,0.000234263,0.000390134,-0.033843078,-0.063467897,9.792748451
1784244333.080517,-0.006866986,0.002198329,-0.154692277,0.000447742,0.000584713,-0.000083023,-0.014163930,-0.068276793,9.803496361
1784244333.082528,-0.006866986,0.002198329,-0.154692277,-0.000091325,0.000628514,-0.000682050,-0.036604807,-0.069250546,9.791810989
1784244333.084596,-0.006867092,0.002197760,-0.154692277,-0.000255260,0.000134430,-0.000868276,-0.068865672,-0.062396996,9.831277847
1784244333.086518,-0.006867092,0.002197760,-0.154692277,-0.000000242,-0.000610404,-0.000536143,-0.037874378,-0.062955484,9.790954590
1784244333.088531,-0.006867174,0.002198060,-0.154692277,0.000147971,-0.001313710,-0.000439557,-0.016760450,-0.059381641,9.817449570
1784244333.090532,-0.006867174,0.002198060,-0.154692277,-0.000156199,-0.001532190,-0.000602886,0.007054441,-0.019399077,9.822660446
1784244333.092529,-0.006867174,0.002198060,-0.154692277,0.000076085,-0.001568923,-0.000937088,-0.023451688,-0.056553584,9.809839249
1784244333.094523,-0.006867104,0.002197759,-0.154692277,0.001165810,-0.001767047,-0.001270302,-0.031605031,-0.063134544,9.804859161
1784244333.096527,-0.006867104,0.002197759,-0.154692277,0.001906507,-0.001768029,-0.001313760,0.017861363,-0.091984719,9.803375244
1784244333.098522,-0.006867880,0.002195776,-0.154692292,0.001906186,-0.001511599,-0.001236534,-0.023736697,-0.081092887,9.795783043
1784244333.100528,-0.006867880,0.002195776,-0.154692292,0.001530723,-0.000801869,-0.000672507,-0.030168423,-0.092732504,9.806013107
1784244333.102531,-0.006867880,0.002195776,-0.154692292,0.001023493,-0.000191437,-0.000405885,-0.052521702,-0.049346004,9.793718338
1784244333.104534,-0.006867495,0.002196911,-0.154692277,0.000906664,0.000039412,-0.001006723,-0.045633346,-0.073618352,9.792222977
1784244333.106537,-0.006867495,0.002196911,-0.154692277,0.000983704,0.000204396,-0.001209514,-0.021383636,-0.074583076,9.758167267
1784244333.108536,-0.006867690,0.002196867,-0.154692277,0.000481512,0.000563599,-0.001194335,0.009342019,-0.053427748,9.815270424
1784244333.110534,-0.006867690,0.002196867,-0.154692277,-0.000226233,0.000903060,-0.001526371,-0.000359067,-0.078198880,9.787754059
1784244333.112537,-0.006867690,0.002196867,-0.154692277,-0.000547451,0.000751723,-0.001679908,-0.020062374,-0.073580764,9.803904533
1784244333.114547,-0.006868464,0.002196063,-0.154692277,-0.000673025,0.000745201,-0.001285558,-0.034977328,-0.082347088,9.803385735
1784244333.116542,-0.006868464,0.002196063,-0.154692277,-0.000584365,0.000806853,-0.000401912,-0.009409401,-0.047175188,9.788841248
1784244333.118548,-0.006866578,0.002195443,-0.154692292,-0.000434186,0.000348524,-0.000031630,-0.019112425,-0.032345481,9.800134659
1784244333.120545,-0.006866578,0.002195443,-0.154692292,-0.000305031,0.000001184,-0.000538155,-0.036619820,-0.070584886,9.790457726
1784244333.122544,-0.006866578,0.002195443,-0.154692292,-0.000227701,-0.000090783,-0.000725765,-0.026580699,-0.056824580,9.790555000
1784244333.124543,-0.006866863,0.002196246,-0.154692292,-0.000062699,-0.000070947,-0.000536847,-0.035944629,-0.050565939,9.809416771
1784244333.126551,-0.006866863,0.002196246,-0.154692292,0.000402398,0.000048332,-0.000488350,-0.034564406,-0.048692770,9.795531273
1784244333.128544,-0.006866061,0.002196973,-0.154692277,0.000688299,0.000261681,-0.000434347,0.006648422,-0.053809419,9.810782433
1784244333.130551,-0.006866061,0.002196973,-0.154692277,0.000570715,0.000384508,-0.000377655,0.004506007,-0.047308896,9.782577515
1784244333.132552,-0.006866061,0.002196973,-0.154692277,0.000424927,-0.000100454,-0.000484065,-0.028343560,-0.052496847,9.815239906
1784244333.134557,-0.006865303,0.002197298,-0.154692277,0.000714301,-0.000638555,-0.000471727,-0.056592178,-0.050358701,9.817469597
1784244333.136557,-0.006865303,0.002197298,-0.154692277,0.000965013,-0.000688890,-0.000478823,-0.022553487,-0.059395567,9.766781807
1784244333.138557,-0.006864529,0.002197371,-0.154692292,0.000211039,-0.000426477,-0.000646280,-0.026052123,-0.049310382,9.804055214
1784244333.140558,-0.006864529,0.002197371,-0.154692292,-0.000718387,-0.000249986,-0.000642594,-0.002361013,-0.057621159,9.795954704
1784244333.142561,-0.006864529,0.002197371,-0.154692292,-0.000727332,-0.000148168,-0.000386271,0.003316289,-0.071083851,9.788700104
1784244333.144564,-0.006864948,0.002195938,-0.154692292,-0.000241006,0.000335226,-0.000286739,-0.009889807,-0.049040776,9.800037384
1784244333.146563,-0.006864948,0.002195938,-0.154692292,-0.000032525,0.000475944,-0.000703039,-0.006670804,-0.041980416,9.809499741
1784244333.148568,-0.006864007,0.002195192,-0.154692292,0.000241380,0.000198049,-0.000827717,-0.054494780,-0.064509161,9.787341118
1784244333.150564,-0.006864007,0.002195192,-0.154692292,0.000498987,0.000407300,-0.000645380,-0.042982031,-0.076407388,9.801623344
1784244333.152564,-0.006864007,0.002195192,-0.154692292,0.000306289,0.000597071,-0.000061651,-0.029019855,-0.108898632,9.809049606
1784244333.154564,-0.006865914,0.002196291,-0.154692292,0.000140829,0.000280184,0.001245553,-0.023713447,-0.079288311,9.794001579
1784244333.156575,-0.006865914,0.002196291,-0.154692292,0.000144123,-0.000343998,0.001545978,-0.002974173,-0.071476765,9.792277336
1784244333.158574,-0.006865102,0.002195493,-0.154692292,0.000186542,-0.000614277,0.000971645,-0.009646283,-0.027665824,9.818106651
1784244333.160577,-0.006865102,0.002195493,-0.154692292,0.000294220,-0.000310570,0.000971353,-0.029156554,-0.046550568,9.799585342
1784244333.162580,-0.006865102,0.002195493,-0.154692292,0.000407349,-0.000233467,0.000934288,-0.052428141,-0.076471075,9.827617645
1784244333.164586,-0.006865202,0.002196345,-0.154692292,-0.000001344,-0.000547109,0.000435099,-0.015332699,-0.054296438,9.792824745
1784244333.166580,-0.006865202,0.002196345,-0.154692292,-0.001074188,-0.000586359,-0.000073147,-0.022543008,-0.056476053,9.797286987
1784244333.168581,-0.006864752,0.002196641,-0.154692292,-0.002050654,-0.000165194,-0.000062114,-0.032616198,-0.072936848,9.798964500
1784244333.170587,-0.006864752,0.002196641,-0.154692292,-0.001750077,0.000129381,0.000164084,-0.000395495,-0.081728518,9.780109406
1784244333.172614,-0.006864752,0.002196641,-0.154692292,-0.000753741,0.000265478,0.000022784,-0.016152255,-0.084370859,9.802046776
1784244333.174593,-0.006865272,0.002196221,-0.154692292,-0.000401759,0.000856071,-0.000312680,-0.002688195,-0.084114455,9.804750443
1784244333.176599,-0.006865272,0.002196221,-0.154692292,-0.000867632,0.001488882,-0.000033580,-0.031905461,-0.089011356,9.789896965
1784244333.178599,-0.006866342,0.002196823,-0.154692277,-0.001343973,0.001189744,0.001085932,-0.038646523,-0.088197716,9.813656807
1784244333.180597,-0.006866342,0.002196823,-0.154692277,-0.000953238,0.000604882,0.001738146,-0.018000167,-0.050824519,9.813467979
1784244333.182593,-0.006866342,0.002196823,-0.154692277,-0.000643253,0.000739618,0.001710991,-0.022931285,-0.050319675,9.814363480
1784244333.184609,-0.006865316,0.002196728,-0.154692292,-0.001010825,0.001219939,0.002053432,-0.017645605,-0.058868133,9.809830666
1784244333.186610,-0.006865316,0.002196728,-0.154692292,-0.001027739,0.001386376,0.002428635,0.003503120,-0.092204191,9.797082901
1784244333.188618,-0.006866542,0.002195852,-0.154692292,-0.001061560,0.001044082,0.002013382,-0.003278726,-0.058175262,9.812538147
1784244333.190621,-0.006866542,0.002195852,-0.154692292,-0.001287839,0.000369788,0.000913906,-0.018583231,-0.062821515,9.800388336
1784244333.192614,-0.006866542,0.002195852,-0.154692292,-0.000933536,-0.000560224,0.000309900,-0.040562801,-0.062485743,9.792748451
1784244333.194608,-0.006865959,0.002197743,-0.154692277,-0.000535588,-0.001478980,0.000807459,-0.078091688,-0.048970599,9.786971092
1784244333.196613,-0.006865959,0.002197743,-0.154692277,-0.000479161,-0.001896766,0.001658356,-0.079783961,-0.040032893,9.793303490
1784244333.198611,-0.006864535,0.002200627,-0.154692262,-0.000176776,-0.001500527,0.002047870,-0.016658839,-0.051689997,9.806738853
1784244333.200621,-0.006864535,0.002200627,-0.154692262,0.000104788,-0.000652011,0.001919652,-0.026480468,-0.049549095,9.775360107
1784244333.202608,-0.006864535,0.002200627,-0.154692262,-0.000065775,0.000330381,0.001791575,-0.000775882,-0.038325202,9.788906097
1784244333.204615,-0.006863449,0.002200297,-0.154692262,-0.000315217,0.001103382,0.001373460,-0.009412626,-0.047200624,9.792428017
1784244333.206632,-0.006863449,0.002200297,-0.154692262,-0.000775052,0.000951750,0.000703408,-0.013792338,-0.074970163,9.798970222
1784244333.208627,-0.006863503,0.002199807,-0.154692262,-0.001164017,0.000947541,0.000594876,-0.008584732,-0.053029254,9.791494370
1784244333.210621,-0.006863503,0.002199807,-0.154692262,-0.001155181,0.001211312,0.000517763,-0.029094305,-0.078380644,9.802071571
1784244333.212621,-0.006863503,0.002199807,-0.154692262,-0.001116915,0.000937025,0.000152157,-0.032290690,-0.083236173,9.797554016
1784244333.214623,-0.006864066,0.002199294,-0.154692262,-0.001054746,0.000662076,0.000336749,-0.027980378,-0.062903903,9.765857697
1784244333.216630,-0.006864066,0.002199294,-0.154692262,-0.001011797,0.000280815,0.000632676,-0.025608547,-0.050977606,9.785663605
1784244333.218626,-0.006863660,0.002199188,-0.154692262,-0.001375003,0.000225640,0.000469781,-0.021122625,-0.087417915,9.798436165
1784244333.220628,-0.006863660,0.002199188,-0.154692262,-0.001235611,0.000757063,0.000354941,-0.004701429,-0.066462599,9.783342361
1784244333.222625,-0.006863660,0.002199188,-0.154692262,-0.000322252,0.001008455,0.000434281,0.020492537,-0.060179606,9.799546242
1784244333.224631,-0.006864459,0.002197582,-0.154692277,-0.000023297,0.000780674,0.000633622,0.015661821,-0.051992651,9.791076660
1784244333.226635,-0.006864459,0.002197582,-0.154692277,-0.000422721,0.000404961,0.000848897,-0.028554633,-0.071184032,9.797187805
1784244333.228633,-0.006864398,0.002198643,-0.154692262,-0.000226745,-0.000069549,0.000608238,-0.052565716,-0.050909285,9.824641228
1784244333.230634,-0.006864398,0.002198643,-0.154692262,-0.000210444,-0.000518646,-0.000091359,-0.049874093,-0.054190427,9.777101517
1784244333.232640,-0.006864398,0.002198643,-0.154692262,-0.000920165,-0.000536468,0.000121642,-0.055983298,-0.038968284,9.789746284
1784244333.234652,-0.006863508,0.002200157,-0.154692262,-0.001148162,-0.000395666,0.001108509,-0.048759114,-0.036273941,9.775871277
1784244333.236650,-0.006863508,0.002200157,-0.154692262,-0.001007511,-0.000437959,0.001429973,-0.030981859,-0.048389371,9.809435844
1784244333.238647,-0.006863466,0.002200187,-0.154692262,-0.000225540,0.000355963,0.001001913,-0.009651883,-0.066110380,9.805755615
1784244333.240716,-0.006863466,0.002200187,-0.154692262,0.000566813,0.001349117,0.000169238,0.002255017,-0.046933938,9.796923637
1784244333.242654,-0.006863466,0.002200187,-0.154692262,0.000666175,0.001322801,-0.000604760,-0.000967893,-0.018056270,9.774242401
1784244333.244652,-0.006860744,0.002199850,-0.154692262,0.000843854,0.000961838,-0.001386968,-0.003660158,-0.017211702,9.786349297
1784244333.246656,-0.006860744,0.002199850,-0.154692262,0.000902319,0.000738079,-0.002353832,-0.061663430,-0.063117817,9.793620110
1784244333.248651,-0.006862007,0.002202841,-0.154692248,0.000925421,0.000484181,-0.002878202,-0.061976448,-0.087473065,9.816777229
1784244333.250655,-0.006862007,0.002202841,-0.154692248,0.001121116,0.000134857,-0.003188625,-0.014409709,-0.126854166,9.787428856
1784244333.252648,-0.006862007,0.002202841,-0.154692248,0.000937641,-0.000117657,-0.003162546,0.001779554,-0.085134648,9.814163208
1784244333.254672,-0.006859820,0.002210873,-0.154685706,0.000531786,-0.000231204,-0.002295065,-0.011225675,-0.048537407,9.794658661
1784244333.256660,-0.006859820,0.002210873,-0.154685706,0.000271799,-0.000315512,-0.001356099,-0.005861444,-0.050792146,9.787028313
1784244333.258666,-0.006859082,0.002210269,-0.154685691,-0.000060801,-0.000336731,-0.001105318,-0.033601463,-0.043729000,9.788839340
1784244333.260663,-0.006859082,0.002210269,-0.154685691,-0.000192950,-0.000296611,-0.001373438,-0.052702267,-0.063334547,9.807974815
1784244333.262664,-0.006859082,0.002210269,-0.154685691,0.000015074,-0.000505983,-0.001352984,-0.061967298,-0.051026650,9.795042992
1784244333.264665,-0.006858319,0.002211853,-0.154685691,0.000109368,-0.000893098,-0.001140912,-0.034589328,-0.052536823,9.769056320
1784244333.266675,-0.006858319,0.002211853,-0.154685691,-0.000308762,-0.001008971,-0.000805750,-0.032082163,-0.065784760,9.800356865
1784244333.268670,-0.006858310,0.002212797,-0.154685691,-0.000900620,-0.000892627,-0.000506770,-0.014326941,-0.044942092,9.798714638
1784244333.270669,-0.006858310,0.002212797,-0.154685691,-0.001220790,-0.000697642,-0.000847782,-0.016146109,-0.085943311,9.771100998
1784244333.272672,-0.006858310,0.002212797,-0.154685691,-0.001399705,-0.000625966,-0.001457548,-0.026153389,-0.056188773,9.826426506
1784244333.274668,-0.006858276,0.002212589,-0.154685691,-0.001516926,-0.000919087,-0.001380156,-0.033686623,-0.050480209,9.793278694
1784244333.276674,-0.006858276,0.002212589,-0.154685691,-0.001565468,-0.001061245,-0.001287217,-0.029849015,-0.067516319,9.787794113
1784244333.278678,-0.006858048,0.002212534,-0.154685691,-0.001469572,-0.000856692,-0.001795245,-0.001334775,-0.047294576,9.791090012
1784244333.280677,-0.006858048,0.002212534,-0.154685691,-0.001435764,-0.000689511,-0.002129191,-0.026151096,-0.057386395,9.805795670
1784244333.282681,-0.006858048,0.002212534,-0.154685691,-0.001464465,-0.000389811,-0.001938316,-0.012765122,-0.064230599,9.799039841
1784244333.284673,-0.006857849,0.002212754,-0.154685691,-0.001424834,0.000456509,-0.001579050,-0.020048626,-0.074282728,9.776552200
1784244333.286682,-0.006857849,0.002212754,-0.154685691,-0.001029741,0.001500965,-0.001296310,0.006607206,-0.095777251,9.789889336
1784244333.288681,-0.006858903,0.002211423,-0.154685691,-0.000621170,0.001720673,-0.001111212,-0.023095686,-0.064991109,9.798576355
1784244333.290694,-0.006858903,0.002211423,-0.154685691,-0.000819100,0.001149542,-0.001215905,-0.039613958,-0.095223226,9.795229912
1784244333.292684,-0.006858903,0.002211423,-0.154685691,-0.001162835,0.000681412,-0.001256676,-0.036341254,-0.046096474,9.811687469
1784244333.294686,-0.006858331,0.002212139,-0.154685691,-0.001283221,0.000662858,-0.001266322,-0.023709584,-0.042073179,9.790204048
1784244333.296688,-0.006858331,0.002212139,-0.154685691,-0.001441072,0.000865645,-0.001200048,-0.029814543,-0.064812660,9.785570145
1784244333.298694,-0.006858210,0.002212124,-0.154685691,-0.001198552,0.000684095,-0.000918362,-0.028864028,-0.060757529,9.780665398
1784244333.300690,-0.006858210,0.002212124,-0.154685691,-0.000607634,0.000350818,-0.000948291,-0.003160250,-0.049539998,9.795108795
1784244333.302693,-0.006858210,0.002212124,-0.154685691,-0.000228731,0.000377908,-0.000860362,0.011974961,-0.058793262,9.808962822
1784244333.304693,-0.006857303,0.002209607,-0.154685721,0.000207169,0.000301163,-0.000020362,-0.005739695,-0.077694647,9.789546013
1784244333.306702,-0.006857303,0.002209607,-0.154685721,0.000324546,0.000069082,0.000319492,-0.032219224,-0.076593064,9.808357239
1784244333.308693,-0.006858585,0.002210543,-0.154685706,-0.000144314,0.000289066,-0.000262024,-0.033079114,-0.074259087,9.796713829
1784244333.310701,-0.006858585,0.002210543,-0.154685706,-0.000448571,0.000679367,-0.000106654,-0.038559746,-0.081433788,9.807423592
1784244333.312697,-0.006858585,0.002210543,-0.154685706,-0.000713096,0.000526978,0.000852466,-0.030991871,-0.049278930,9.808533669
1784244333.314703,-0.006858427,0.002211652,-0.154685706,-0.000834368,0.000220412,0.001026696,-0.025565503,-0.046990473,9.791965485
1784244333.316707,-0.006858427,0.002211652,-0.154685706,-0.000352808,0.000750114,0.000635219,0.005747449,-0.054636609,9.802705765
1784244333.318704,-0.006857539,0.002209623,-0.154685721,-0.000162395,0.001476167,0.000929331,0.005770804,-0.054452192,9.776704788
1784244333.320704,-0.006857539,0.002209623,-0.154685721,-0.000465382,0.001254882,0.000976240,-0.006469075,-0.062983096,9.801296234
1784244333.322709,-0.006857539,0.002209623,-0.154685721,-0.000312652,0.000391224,0.000429435,-0.019616082,-0.073605597,9.806595802
1784244333.324714,-0.006857539,0.002209889,-0.154685721,0.000485645,-0.000192791,0.000267109,-0.010627596,-0.072796039,9.802573204
1784244333.326713,-0.006857539,0.002209889,-0.154685721,0.001255829,0.000134807,0.000297767,-0.038543738,-0.042096481,9.820229530
1784244333.328712,-0.006856694,0.002211686,-0.154685706,0.001291276,0.000358250,0.000788528,-0.027400939,-0.050935533,9.782971382
1784244333.330715,-0.006856694,0.002211686,-0.154685706,0.000460311,-0.000152819,0.000996512,-0.011595253,-0.041828141,9.796943665
1784244333.332759,-0.006856694,0.002211686,-0.154685706,0.000221338,-0.000219329,0.000536550,-0.015719716,-0.048940592,9.796445847
1784244333.334725,-0.006855740,0.002211155,-0.154685721,0.000846354,0.000170373,0.000728687,-0.028232750,-0.081511967,9.799811363
1784244333.336722,-0.006855740,0.002211155,-0.154685721,0.001008760,0.000273117,0.001571202,-0.008472011,-0.080408327,9.798043251
1784244333.338746,-0.006856075,0.002210272,-0.154685721,0.000689724,-0.000023643,0.001911423,-0.001862205,-0.091579124,9.781838417
1784244333.340822,-0.006856075,0.002210272,-0.154685721,0.000507155,-0.000794136,0.001470292,-0.021580977,-0.049898501,9.815711021
1784244333.342788,-0.006856075,0.002210272,-0.154685721,0.000431708,-0.001085069,0.000988065,-0.050458301,-0.064170182,9.795418739
1784244333.344752,-0.006855325,0.002211082,-0.154685721,-0.000138024,-0.000392053,0.000731250,-0.046551004,-0.074982531,9.796697617
1784244333.346790,-0.006855325,0.002211082,-0.154685721,-0.000423719,0.000381063,0.000600019,-0.044834793,-0.080489166,9.811905861
1784244333.348799,-0.006855883,0.002211869,-0.154685706,0.000285585,0.000555067,0.000720330,-0.034572121,-0.050779950,9.774000168
1784244333.350762,-0.006855883,0.002211869,-0.154685706,0.000815813,0.000372485,0.001329775,-0.029431593,-0.031800255,9.805060387
1784244333.352761,-0.006855883,0.002211869,-0.154685706,0.000662991,0.000533719,0.001702325,-0.000145866,-0.058279097,9.821507454
1784244333.354759,-0.006854885,0.002211311,-0.154685721,0.000572992,0.000869260,0.001595885,-0.005442956,-0.053873215,9.778491020
1784244333.356755,-0.006854885,0.002211311,-0.154685721,0.001191975,0.000889995,0.001572341,-0.021931525,-0.044659935,9.772706032
1784244333.358759,-0.006853857,0.002211562,-0.154685721,0.001657662,0.000598955,0.001553508,-0.022871625,-0.047822319,9.778063774
1784244333.360747,-0.006853857,0.002211562,-0.154685721,0.001361362,0.000141688,0.001555463,-0.025606465,-0.048934940,9.813472748
1784244333.362789,-0.006853857,0.002211562,-0.154685721,0.001237359,-0.000066200,0.001521628,-0.056231983,-0.058357798,9.807555199
1784244333.364766,-0.006853625,0.002212967,-0.154685706,0.001152958,0.000322490,0.001463894,-0.042226475,-0.088075414,9.802893639
1784244333.366773,-0.006853625,0.002212967,-0.154685706,0.000627196,0.001097959,0.001207219,-0.014295356,-0.079040572,9.805220604
1784244333.368761,-0.006853491,0.002212369,-0.154685721,0.000370243,0.001537740,0.000658701,-0.002390758,-0.023913391,9.781374931
1784244333.370758,-0.006853491,0.002212369,-0.154685721,0.000829362,0.001419498,0.000203539,-0.009212961,-0.067409143,9.798575401
1784244333.372757,-0.006853491,0.002212369,-0.154685721,0.000927451,0.001262473,0.000105862,-0.007934113,-0.036041096,9.795639038
1784244333.374760,-0.006852498,0.002212130,-0.154685721,0.000019091,0.000922111,0.000447080,-0.011934396,-0.032447003,9.801486015
1784244333.376760,-0.006852498,0.002212130,-0.154685721,-0.000791085,0.000280997,0.000494658,-0.036540419,-0.065094896,9.774353027
1784244333.378770,-0.006853480,0.002212164,-0.154685721,-0.001019247,-0.000206290,0.000259004,-0.013317572,-0.073149100,9.794051170
1784244333.380766,-0.006853480,0.002212164,-0.154685721,-0.000892921,-0.000258553,0.000107535,-0.012337072,-0.065615207,9.803963661
1784244333.382764,-0.006853480,0.002212164,-0.154685721,-0.000906296,0.000027390,0.000179347,-0.013680134,-0.065979145,9.794544220
1784244333.384768,-0.006853171,0.002211282,-0.154685721,-0.001093975,0.000594941,0.000666624,-0.002941946,-0.068385549,9.798574448
1784244333.386786,-0.006853171,0.002211282,-0.154685721,-0.000720922,0.001256992,0.000680811,-0.041992337,-0.033237167,9.777690887
1784244333.388772,-0.006850979,0.002211914,-0.154685721,-0.000091577,0.001357672,0.000653484,-0.004106915,-0.053969957,9.789699554
1784244333.390771,-0.006850979,0.002211914,-0.154685721,0.000273877,0.001232810,0.000830895,-0.028550766,-0.033968892,9.793390274
1784244333.392783,-0.006850979,0.002211914,-0.154685721,0.000308695,0.001381102,0.000509807,-0.029691050,-0.052895766,9.810752869
1784244333.394775,-0.006850229,0.002212229,-0.154685721,0.000225736,0.001473185,0.000131222,-0.039118405,-0.053216632,9.809845924
1784244333.396781,-0.006850229,0.002212229,-0.154685721,0.000741718,0.001318615,-0.000235151,-0.033984240,-0.076334767,9.775180817
1784244333.398774,-0.006850693,0.002212452,-0.154685721,0.001565300,0.000770200,-0.000666234,-0.001636065,-0.072367668,9.789134979
1784244333.400774,-0.006850693,0.002212452,-0.154685721,0.001512379,0.000197512,-0.000946171,-0.009400426,-0.045888532,9.796918869
1784244333.402776,-0.006850693,0.002212452,-0.154685721,0.001005736,-0.000052092,-0.001240171,-0.016053461,-0.076701462,9.794473648
1784244333.404812,-0.006850792,0.002211800,-0.154685721,0.000656618,-0.000176823,-0.001995552,-0.005160079,-0.065319650,9.812489510
1784244333.406829,-0.006850792,0.002211800,-0.154685721,0.000315054,0.000091355,-0.002237096,-0.011368429,-0.058580153,9.821045876
1784244333.408794,-0.006850398,0.002212128,-0.154685721,0.000302682,0.000672847,-0.001219112,-0.063082382,-0.067322992,9.820492744
1784244333.410842,-0.006850398,0.002212128,-0.154685721,0.000345245,0.000791576,-0.000749916,-0.018541975,-0.059253715,9.802652359
1784244333.412796,-0.006850398,0.002212128,-0.154685721,0.000121369,0.000526257,-0.001295015,-0.023188336,-0.074232936,9.775203705
1784244333.414795,-0.006850362,0.002211983,-0.154685721,-0.000041137,0.000421968,-0.001529150,-0.019879637,-0.096759669,9.786719322
1784244333.416796,-0.006850362,0.002211983,-0.154685721,0.000075009,0.000394696,-0.001247777,-0.025749866,-0.061414257,9.804425240
1784244333.418797,-0.006849987,0.002212103,-0.154685721,0.000250321,0.000339623,-0.001331680,-0.026604120,-0.059035767,9.786507607
1784244333.420793,-0.006849987,0.002212103,-0.154685721,0.000123734,0.000141692,-0.001628759,-0.014398359,-0.087148383,9.811444283
1784244333.422830,-0.006849987,0.002212103,-0.154685721,0.000152981,-0.000384338,-0.001431921,-0.035243265,-0.030340301,9.799236298
1784244333.424800,-0.006848348,0.002212065,-0.154685721,0.000300125,-0.000753227,-0.000909159,-0.036945615,-0.059072055,9.810258865
1784244333.426813,-0.006848348,0.002212065,-0.154685721,0.000307787,-0.000140475,-0.000270854,-0.024594279,-0.077119678,9.805671692
1784244333.428813,-0.006848773,0.002213402,-0.154685721,0.000822384,0.000535075,0.000087919,-0.039417677,-0.078273840,9.805648804
1784244333.430807,-0.006848773,0.002213402,-0.154685721,0.001803794,0.000247254,0.000255641,-0.010214105,-0.073485047,9.835746765
1784244333.432800,-0.006848773,0.002213402,-0.154685721,0.001866283,-0.000134492,0.000231415,-0.020517919,-0.073629074,9.811526299
1784244333.434810,-0.006849060,0.002212362,-0.154685721,0.000634522,0.000089927,-0.000236759,-0.032689601,-0.039979123,9.826972961
1784244333.436812,-0.006849060,0.002212362,-0.154685721,0.000100105,0.000375385,-0.000558510,-0.053057227,-0.055294111,9.812060356
1784244333.438811,-0.006848046,0.002214234,-0.154685721,0.000609077,0.000139126,-0.000378759,-0.013705914,-0.069019474,9.781075478
1784244333.440807,-0.006848046,0.002214234,-0.154685721,0.000868481,-0.000319218,-0.000339843,0.007492597,-0.059104238,9.797747612
1784244333.442810,-0.006848046,0.002214234,-0.154685721,0.000753702,-0.000395640,-0.000671577,-0.002377013,-0.059368487,9.789666176
1784244333.444813,-0.006848309,0.002212665,-0.154685721,0.000491633,-0.000233399,-0.000912311,-0.020110544,-0.079229377,9.779210091
1784244333.446815,-0.006848309,0.002212665,-0.154685721,0.000226364,-0.000259617,-0.000890037,-0.029932158,-0.074251629,9.789993286
1784244333.448814,-0.006849108,0.002213279,-0.154685721,0.000015017,-0.000261075,-0.000783481,-0.014771172,-0.083301403,9.775155067
1784244333.450824,-0.006849108,0.002213279,-0.154685721,-0.000115842,0.000170480,-0.000847824,-0.033997875,-0.077252954,9.778313637
1784244333.452818,-0.006849108,0.002213279,-0.154685721,-0.000009225,0.000805565,-0.000712071,-0.043628674,-0.054963712,9.811623573
1784244333.454949,-0.006848917,0.002215273,-0.154685706,0.000281822,0.000994269,-0.000343587,-0.011924449,-0.068337329,9.807981491
1784244333.456855,-0.006848917,0.002215273,-0.154685706,0.000236729,0.000756749,-0.000113752,-0.030846072,-0.074370511,9.808371544
1784244333.458842,-0.006849292,0.002216273,-0.154685706,-0.000252222,0.000263102,0.000303896,-0.014327882,-0.083755121,9.775152206
1784244333.460829,-0.006849292,0.002216273,-0.154685706,-0.000627321,-0.000098415,0.000951091,-0.010138903,-0.068433464,9.818293571
1784244333.462829,-0.006849292,0.002216273,-0.154685706,-0.000602860,0.000391645,0.001318926,-0.011497731,-0.070948176,9.796308517
1784244333.464834,-0.006849508,0.002215311,-0.154685706,-0.000109776,0.001106827,0.001048086,-0.019735591,-0.047090650,9.795557022
1784244333.466838,-0.006849508,0.002215311,-0.154685706,0.000532292,0.000873352,0.000106904,-0.057479754,-0.049864270,9.812540054
1784244333.468836,-0.006848660,0.002216579,-0.154685706,0.000540228,0.000040706,-0.000330434,-0.022893140,-0.048397463,9.795992851
1784244333.470841,-0.006848660,0.002216579,-0.154685706,0.000110087,-0.000548812,0.000271014,0.004184529,-0.036977787,9.779503822
1784244333.472839,-0.006848660,0.002216579,-0.154685706,0.000267921,-0.000840465,0.000891198,-0.004133611,-0.055396505,9.801346779
1784244333.474836,-0.006847820,0.002215692,-0.154685706,0.000768505,-0.000586895,0.000985168,0.003811548,-0.065453708,9.815188408
1784244333.476843,-0.006847820,0.002215692,-0.154685706,0.000703670,-0.000053786,0.000766054,-0.024495764,-0.068236768,9.816488266
1784244333.478849,-0.006848256,0.002216067,-0.154685706,0.000305436,-0.000310825,0.000800848,-0.020844579,-0.064149372,9.802171707
1784244333.480843,-0.006848256,0.002216067,-0.154685706,0.000342140,-0.000393051,0.000737040,-0.017229175,-0.061155017,9.815644264
1784244333.482839,-0.006848256,0.002216067,-0.154685706,0.000725602,0.000662030,0.000227989,0.015199308,-0.053311706,9.788377762
1784244333.484838,-0.006847493,0.002214756,-0.154685721,0.000843491,0.001610606,0.000146725,-0.019295938,-0.085162938,9.793070793
1784244333.486850,-0.006847493,0.002214756,-0.154685721,0.000429920,0.001403076,0.000731591,-0.019525757,-0.068839811,9.766276360
1784244333.488843,-0.006846974,0.002214614,-0.154685721,0.000049605,0.000640550,0.001190232,-0.004483181,-0.049744956,9.763274193
1784244333.490848,-0.006846974,0.002214614,-0.154685721,0.000297417,0.000045834,0.001127822,-0.012372696,-0.069138490,9.795422554
1784244333.492847,-0.006846974,0.002214614,-0.154685721,0.000065522,-0.000146759,0.000722006,-0.023996836,-0.066224925,9.784670830
1784244333.494850,-0.006847473,0.002214949,-0.154685721,-0.000895871,0.000079254,0.000788192,-0.023683691,-0.075406112,9.815097809
1784244333.496851,-0.006847473,0.002214949,-0.154685721,-0.000821186,0.000072003,0.001089407,-0.028384415,-0.056061462,9.812527657
1784244333.498849,-0.006847371,0.002214858,-0.154685721,0.000189000,-0.000229802,0.001019876,-0.015293390,-0.048717774,9.827382088
1784244333.500855,-0.006847371,0.002214858,-0.154685721,0.000290533,-0.000656932,0.000660180,-0.043164376,-0.053225309,9.818360329
1784244333.502857,-0.006847371,0.002214858,-0.154685721,-0.000535047,-0.000597080,0.000182162,-0.030019950,-0.043028511,9.809918404
1784244333.504860,-0.006846782,0.002215677,-0.154685721,-0.001020547,0.000129352,-0.000180133,-0.018062428,-0.056584422,9.804464340
1784244333.506866,-0.006846782,0.002215677,-0.154685721,-0.000851530,0.000473808,-0.000588674,0.000556133,-0.038453735,9.804598808
1784244333.508861,-0.006845100,0.002215035,-0.154685721,-0.000678757,0.000327448,-0.000762064,0.002919728,-0.029834498,9.785377502
1784244333.510861,-0.006845100,0.002215035,-0.154685721,-0.000227964,0.000198548,-0.000761622,-0.015034117,-0.065618858,9.809339523
1784244333.512866,-0.006845100,0.002215035,-0.154685721,0.000174919,0.000249386,-0.001013101,-0.027867883,-0.052289564,9.785202980
1784244333.514861,-0.006845415,0.002214349,-0.154685721,-0.000089293,0.000526977,-0.001286105,-0.028568899,-0.071701944,9.807047844
1784244333.516866,-0.006845415,0.002214349,-0.154685721,-0.000429135,0.000583806,-0.000998631,-0.020893214,-0.106581055,9.783517838
1784244333.518871,-0.006846738,0.002214012,-0.154685721,-0.000483511,0.000153593,-0.000538805,-0.008453199,-0.078638747,9.801194191
1784244333.520874,-0.006846738,0.002214012,-0.154685721,-0.000267759,-0.000016801,-0.000491453,-0.019143505,-0.072207049,9.798087120
1784244333.522870,-0.006846738,0.002214012,-0.154685721,-0.000141395,0.000380602,-0.000327738,-0.022478165,-0.087880418,9.802913666
1784244333.524871,-0.006847436,0.002213600,-0.154685721,0.000054323,0.000376685,0.000494078,-0.049623255,-0.068321437,9.810633659
1784244333.526873,-0.006847436,0.002213600,-0.154685721,-0.000077126,0.000107019,0.001054736,-0.020828526,-0.063212112,9.796350479
1784244333.528872,-0.006847088,0.002213261,-0.154685721,-0.000690792,0.000370008,0.000833093,-0.017458126,-0.042798761,9.818002701
1784244333.530877,-0.006847088,0.002213261,-0.154685721,-0.000866391,0.000559331,0.000563736,-0.053212412,-0.031492367,9.804591179
1784244333.532881,-0.006847088,0.002213261,-0.154685721,-0.000405817,-0.000047394,0.000418454,-0.032697212,-0.043686446,9.781220436
1784244333.534878,-0.006845105,0.002214753,-0.154685721,0.000073237,-0.000616265,0.000203829,-0.030635703,-0.057309829,9.803101540
1784244333.536884,-0.006845105,0.002214753,-0.154685721,-0.000257689,-0.000305152,0.000339267,0.008362261,-0.062982045,9.774410248
1784244333.538891,-0.006844317,0.002212819,-0.154685721,-0.000800850,0.000445727,0.000602839,-0.000568958,-0.020886509,9.793500900
1784244333.540883,-0.006844317,0.002212819,-0.154685721,-0.000638934,0.000594392,0.000197806,-0.002843149,-0.060716160,9.791001320
1784244333.542889,-0.006844317,0.002212819,-0.154685721,0.000053143,0.000160179,-0.000695077,-0.044438846,-0.048995167,9.792830467
1784244333.544885,-0.006844433,0.002214267,-0.154685721,0.000591934,-0.000247948,-0.001111316,-0.035983298,-0.053708021,9.810294151
1784244333.546893,-0.006844433,0.002214267,-0.154685721,0.000584634,-0.000738723,-0.001452358,-0.029562056,-0.044987902,9.769556999
1784244333.548889,-0.006843178,0.002214334,-0.154685721,0.000277557,-0.000588685,-0.001752611,-0.025417572,-0.070849448,9.807504654
1784244333.550903,-0.006843178,0.002214334,-0.154685721,-0.000268175,-0.000029694,-0.001355586,-0.021361984,-0.069954403,9.800341606
1784244333.552898,-0.006843178,0.002214334,-0.154685721,-0.000019429,-0.000061093,-0.001121930,-0.008929640,-0.082499310,9.777854919
1784244333.554906,-0.006845679,0.002213533,-0.154685721,0.001064144,-0.000307806,-0.001258409,-0.020345008,-0.059700936,9.805786133
1784244333.556907,-0.006845679,0.002213533,-0.154685721,0.001310398,-0.000483559,-0.001051792,-0.005805408,-0.083076537,9.790408134
1784244333.558898,-0.006847011,0.002212108,-0.154685721,0.000939567,-0.001220732,-0.000400091,-0.042876046,-0.067870691,9.798091888
1784244333.560908,-0.006847011,0.002212108,-0.154685721,0.000456929,-0.001289035,0.000329666,-0.039361622,-0.035378288,9.822065353
1784244333.562903,-0.006847011,0.002212108,-0.154685721,0.000080460,-0.000347129,0.000632097,-0.049266391,-0.039972704,9.792883873
1784244333.564902,-0.006845400,0.002214700,-0.154685706,0.000581020,0.000044027,0.000635382,-0.028511345,-0.030010371,9.803728104
1784244333.566907,-0.006845400,0.002214700,-0.154685706,0.001447063,-0.000091294,0.000780644,0.009196151,-0.065116070,9.821024895
1784244333.568910,-0.006845473,0.002212972,-0.154685706,0.001264115,-0.000199319,0.000921223,0.000718107,-0.061391346,9.816555023
1784244333.570909,-0.006845473,0.002212972,-0.154685706,0.000388332,-0.000448230,0.000732677,-0.024649909,-0.044832118,9.801842690
1784244333.572914,-0.006845473,0.002212972,-0.154685706,-0.000175550,-0.000538259,0.000252965,-0.032759544,-0.086226240,9.777808189
1784244333.574909,-0.006845853,0.002213296,-0.154685706,-0.000652824,-0.000010703,0.000159425,-0.040627126,-0.067451477,9.798096657
1784244333.576914,-0.006845853,0.002213296,-0.154685706,-0.001109033,0.000374676,0.000109167,-0.013929861,-0.050218448,9.783885956
1784244333.578913,-0.006845421,0.002212457,-0.154685706,-0.001246379,0.000205883,-0.000344832,-0.012893667,-0.075782195,9.785516739
1784244333.580920,-0.006845421,0.002212457,-0.154685706,-0.001062494,-0.000353784,-0.000406771,-0.040786523,-0.081678122,9.782761574
1784244333.582918,-0.006845421,0.002212457,-0.154685706,-0.000818567,-0.000531348,-0.000017191,-0.030850625,-0.075622179,9.795363426
1784244333.584995,-0.006845535,0.002213300,-0.154685706,-0.000420062,-0.000303208,0.000287007,-0.039120361,-0.054042608,9.799976349
1784244333.586931,-0.006845535,0.002213300,-0.154685706,0.000106120,-0.000049891,0.000563628,0.009699910,-0.063066065,9.783825874
1784244333.588929,-0.006845435,0.002211479,-0.154685721,0.000509836,0.000332862,0.000694074,-0.006569198,-0.071878724,9.792271614
1784244333.590927,-0.006845435,0.002211479,-0.154685721,0.000511011,0.000167970,0.000280713,-0.024231477,-0.047103107,9.805416107
1784244333.592932,-0.006845435,0.002211479,-0.154685721,-0.000180562,-0.000448552,-0.000042333,-0.020879800,-0.067669466,9.793181419
1784244333.594930,-0.006845961,0.002211642,-0.154685706,-0.000685472,-0.000917994,0.000101304,-0.021238962,-0.060067452,9.795920372
1784244333.596936,-0.006845961,0.002211642,-0.154685706,-0.000597130,-0.000921694,0.000009982,-0.003067051,-0.080315150,9.775183678
1784244333.598932,-0.006846642,0.002211301,-0.154685706,-0.000438261,-0.000564871,-0.000144651,-0.035834841,-0.041593995,9.807681084
1784244333.600935,-0.006846642,0.002211301,-0.154685706,-0.000325040,-0.000486333,-0.000023641,-0.009176646,-0.062259357,9.830439568
1784244333.602936,-0.006846642,0.002211301,-0.154685706,-0.000534558,-0.000712961,-0.000099998,-0.021628397,-0.054730684,9.802230835
1784244333.604939,-0.006846888,0.002211367,-0.154685706,-0.000880993,-0.000442991,-0.000315974,-0.016637830,-0.049497887,9.813478470
1784244333.606940,-0.006846888,0.002211367,-0.154685706,-0.000968162,-0.000014223,-0.000453702,-0.026539894,-0.052449893,9.805378914
1784244333.608938,-0.006846361,0.002211432,-0.154685721,-0.000895674,-0.000442964,-0.000287172,-0.018115886,-0.061464302,9.797707558
1784244333.610942,-0.006846361,0.002211432,-0.154685721,-0.000953206,-0.000863873,0.000122193,-0.042306922,-0.096005172,9.784012794
1784244333.612947,-0.006846361,0.002211432,-0.154685721,-0.000970843,-0.000664904,0.000116385,-0.015684510,-0.083010472,9.798917770
1784244333.614950,-0.006847505,0.002211781,-0.154685706,-0.000801055,-0.000429716,-0.000248089,-0.001088271,-0.063080706,9.805335999
1784244333.616954,-0.006847505,0.002211781,-0.154685706,-0.000568608,-0.000241337,-0.000549440,-0.006831180,-0.056620043,9.789232254
1784244333.618948,-0.006846990,0.002211331,-0.154685706,-0.000544841,-0.000122415,-0.000462424,-0.017246963,-0.028568570,9.769675255
1784244333.620949,-0.006846990,0.002211331,-0.154685706,-0.000548833,-0.000341318,-0.000436873,-0.028134422,-0.075872518,9.762635231
1784244333.622951,-0.006846990,0.002211331,-0.154685706,-0.000644562,-0.000786002,-0.000708825,0.004251208,-0.068772875,9.777058601
1784244333.624951,-0.006846119,0.002210502,-0.154685721,-0.001073481,-0.000907422,-0.001014693,-0.000781356,-0.075553052,9.794495583
1784244333.626955,-0.006846119,0.002210502,-0.154685721,-0.001200343,-0.000530561,-0.001126316,-0.030791471,-0.071507856,9.783732414
1784244333.628959,-0.006846250,0.002210489,-0.154685721,-0.001039566,-0.000118521,-0.000592702,-0.034142155,-0.047691677,9.843062401
1784244333.630959,-0.006846250,0.002210489,-0.154685721,-0.000490403,0.000067221,0.000084908,-0.010775818,-0.047723539,9.805423737
1784244333.632959,-0.006846250,0.002210489,-0.154685721,0.000295066,0.000615567,0.000057951,-0.001661554,-0.073784687,9.799436569
1784244333.634969,-0.006846225,0.002210341,-0.154685721,0.000434410,0.000987353,-0.000558239,0.012148507,-0.045265399,9.796495438
1784244333.636968,-0.006846225,0.002210341,-0.154685721,-0.000016120,0.000434414,-0.000723765,-0.025582884,-0.049153965,9.781191826
1784244333.638962,-0.006845498,0.002210425,-0.154685721,0.000033863,-0.000011240,-0.000392691,-0.019082049,-0.066453502,9.807987213
1784244333.640985,-0.006845498,0.002210425,-0.154685721,0.000870145,-0.000053322,-0.000672164,-0.041170705,-0.038710050,9.789761543
1784244333.642998,-0.006845498,0.002210425,-0.154685721,0.001550970,-0.000174081,-0.000984457,-0.045698069,-0.078587271,9.798020363
1784244333.644969,-0.006845608,0.002211541,-0.154685721,0.001630251,-0.000224771,-0.000688911,-0.021372346,-0.071657211,9.787775993
1784244333.646972,-0.006845608,0.002211541,-0.154685721,0.001384754,0.000014548,-0.000959950,-0.009614499,-0.102594569,9.769655228
1784244333.648975,-0.006847363,0.002210699,-0.154685721,0.001333594,0.000225392,-0.001463874,-0.024699066,-0.085646838,9.807857513
1784244333.650974,-0.006847363,0.002210699,-0.154685721,0.001238854,0.000283858,-0.000892904,-0.000256245,-0.070497692,9.775698662
1784244333.652974,-0.006847363,0.002210699,-0.154685721,0.000170058,-0.000131635,-0.000336685,-0.026791248,-0.074291885,9.789996147
1784244333.654979,-0.006847678,0.002210421,-0.154685721,-0.000774683,-0.000861297,-0.000457631,-0.045185152,-0.037254009,9.781249046
1784244333.656984,-0.006847678,0.002210421,-0.154685721,-0.000244931,-0.000758895,-0.000395857,-0.015411419,-0.060996778,9.790091515
1784244333.658978,-0.006847469,0.002210224,-0.154685721,0.000270292,-0.000346141,0.000048375,-0.003539043,-0.043713935,9.795594215
1784244333.660988,-0.006847469,0.002210224,-0.154685721,-0.000333625,-0.000304994,0.000387042,0.006329938,-0.043049421,9.810402870
1784244333.662984,-0.006847469,0.002210224,-0.154685721,-0.000754797,-0.000273451,0.000344968,-0.006168937,-0.073482737,9.828128815
1784244333.664984,-0.006847477,0.002210047,-0.154685721,0.000292601,-0.000479514,0.000062467,-0.017517222,-0.047723163,9.817522049
1784244333.666989,-0.006847477,0.002210047,-0.154685721,0.001359482,-0.001009339,-0.000397690,-0.043031067,-0.081252284,9.789935112
1784244333.668992,-0.006848369,0.002210411,-0.154685721,0.001290714,-0.001114099,-0.001075671,-0.048142057,-0.058356356,9.792767525
1784244333.671001,-0.006848369,0.002210411,-0.154685721,0.001207121,-0.000885727,-0.001297152,-0.031667698,-0.068897620,9.796301842
1784244333.672993,-0.006848369,0.002210411,-0.154685721,0.001511425,-0.000276528,-0.000931948,-0.037506063,-0.068864219,9.802125931
1784244333.674992,-0.006848591,0.002212055,-0.154685706,0.001557882,0.000655910,-0.000789820,-0.017162835,-0.056173399,9.808053970
1784244333.676997,-0.006848591,0.002212055,-0.154685706,0.001567581,0.000759910,-0.000761732,-0.026959095,-0.088585295,9.784075737
1784244333.679001,-0.006849616,0.002212567,-0.154685706,0.001927242,0.000091359,-0.000329665,-0.030519644,-0.083446763,9.824007034
1784244333.680997,-0.006849616,0.002212567,-0.154685706,0.002081574,-0.000269957,0.000220295,-0.025085567,-0.081907965,9.786809921
1784244333.683001,-0.006849616,0.002212567,-0.154685706,0.001787929,0.000301162,0.000300005,-0.020987801,-0.076222062,9.798954964
1784244333.684999,-0.006849620,0.002212734,-0.154685706,0.001707845,0.001329406,0.000090919,-0.000969852,-0.053635366,9.800016403
1784244333.687003,-0.006849620,0.002212734,-0.154685706,0.001823737,0.001447285,-0.000172948,-0.028402213,-0.061064977,9.760040283
1784244333.689005,-0.006849583,0.002213238,-0.154685706,0.001606478,0.000542139,0.000332847,-0.028120533,-0.034930974,9.801904678
1784244333.691007,-0.006849583,0.002213238,-0.154685706,0.001124747,0.000188792,0.001262111,-0.022577193,-0.060393240,9.781122208
1784244333.693006,-0.006849583,0.002213238,-0.154685706,0.000743894,0.000367671,0.001291588,-0.030449336,-0.080460101,9.781882286
1784244333.695014,-0.006849931,0.002213507,-0.154685706,0.000664215,0.000370520,0.001204354,-0.032779489,-0.048388634,9.812572479
1784244333.697011,-0.006849931,0.002213507,-0.154685706,0.000637779,-0.000024392,0.001246955,-0.006456016,-0.062474716,9.792780876
1784244333.699011,-0.006849621,0.002212842,-0.154685706,0.000165589,-0.000554649,0.000535794,-0.003293291,-0.060316496,9.798625946
1784244333.701033,-0.006849621,0.002212842,-0.154685706,-0.000846485,-0.000914072,-0.000253968,-0.029749921,-0.058223605,9.803994179
1784244333.703023,-0.006849621,0.002212842,-0.154685706,-0.001562986,-0.000836693,-0.000412187,-0.023987278,-0.064528465,9.798130989
1784244333.705027,-0.006849027,0.002212816,-0.154685706,-0.001592173,-0.000318764,-0.000343575,-0.032348685,-0.051777743,9.784306526
1784244333.707026,-0.006849027,0.002212816,-0.154685706,-0.001686467,-0.000030003,-0.000402513,-0.002893212,-0.065163963,9.786489487
1784244333.709035,-0.006849099,0.002211572,-0.154685706,-0.001830054,-0.000052937,-0.000428815,0.011380794,-0.070472658,9.814266205
1784244333.711041,-0.006849099,0.002211572,-0.154685706,-0.001900708,-0.000215664,-0.000177958,-0.016397782,-0.068171732,9.792735100
1784244333.713037,-0.006849099,0.002211572,-0.154685706,-0.002206414,-0.000509356,-0.000339576,-0.068634704,-0.083574183,9.784515381
1784244333.715035,-0.006849400,0.002213916,-0.154685691,-0.002265364,-0.000617410,-0.000402307,-0.071757570,-0.082580797,9.776449203
1784244333.717036,-0.006849400,0.002213916,-0.154685691,-0.001907666,-0.000238000,0.000457774,-0.033233434,-0.051261052,9.776238441
1784244333.719037,-0.006848552,0.002214514,-0.154685691,-0.001299051,0.000413733,0.000906459,-0.030007819,-0.078496322,9.820004463
1784244333.721035,-0.006848552,0.002214514,-0.154685691,-0.000672957,0.000943973,0.000674315,-0.049418654,-0.052521978,9.793700218
1784244333.723037,-0.006848552,0.002214514,-0.154685691,-0.000277027,0.000790699,0.000538203,-0.047167767,-0.051276792,9.803574562
1784244333.725070,-0.006847137,0.002216231,-0.154685691,0.000100350,0.000516864,0.000311921,0.003396898,-0.065584317,9.771251678
1784244333.727065,-0.006847137,0.002216231,-0.154685691,0.000144503,0.000663290,-0.000086035,0.011407611,-0.067829408,9.820559502
1784244333.729104,-0.006847549,0.002214962,-0.154685691,-0.000237857,0.000882756,-0.000430128,-0.047372498,-0.068292961,9.802567482
1784244333.731060,-0.006847549,0.002214962,-0.154685691,-0.000195094,0.000818641,0.000058591,-0.027394900,-0.050887838,9.776246071
1784244333.733056,-0.006847549,0.002214962,-0.154685691,0.000196713,0.000748165,0.000721938,-0.030827137,-0.036631092,9.793819427
1784244333.735049,-0.006845656,0.002215776,-0.154685691,0.000231374,0.000740508,0.000392694,-0.001076191,-0.062985323,9.791885376
1784244333.737057,-0.006845656,0.002215776,-0.154685691,0.000183226,0.000522940,-0.000371958,0.010324451,-0.085494705,9.786373138
1784244333.739065,-0.006847270,0.002214105,-0.154685691,0.000347195,0.000432745,-0.000675576,-0.002792512,-0.055858538,9.800896645
1784244333.741060,-0.006847270,0.002214105,-0.154685691,0.000390924,0.000166653,-0.000374493,-0.031221529,-0.070139155,9.781051636
1784244333.743069,-0.006847270,0.002214105,-0.154685691,0.000277710,-0.000026735,0.000025133,-0.019297712,-0.047992315,9.795551300
1784244333.745064,-0.006847055,0.002213718,-0.154685691,0.000378586,0.000046951,0.000227484,-0.026450543,-0.048097100,9.760126114
1784244333.747075,-0.006847055,0.002213718,-0.154685691,0.000882099,-0.000281436,0.000283190,-0.043795422,-0.032874316,9.792934418
1784244333.749063,-0.006845630,0.002214012,-0.154685691,0.001015302,-0.000374482,0.000378370,-0.022826100,-0.041789338,9.811728477
1784244333.751092,-0.006845630,0.002214012,-0.154685691,0.000466466,0.000032457,0.000485430,-0.019668968,-0.043322533,9.769577026
1784244333.753092,-0.006845630,0.002214012,-0.154685691,0.000048326,0.000310995,0.000581345,-0.013499572,-0.086743735,9.815932274
1784244333.755098,-0.006845807,0.002213392,-0.154685691,-0.000163007,0.000782779,0.000670916,-0.011760866,-0.091262221,9.818144798
1784244333.757071,-0.006845807,0.002213392,-0.154685691,-0.000428860,0.000838912,0.000860750,-0.026250292,-0.065058969,9.813817024
1784244333.759066,-0.006845620,0.002213972,-0.154685691,-0.000536486,0.000395224,0.000617391,-0.032993551,-0.067504697,9.791826248
1784244333.761090,-0.006845620,0.002213972,-0.154685691,-0.000519186,0.000522056,0.000262249,0.011020528,-0.064500332,9.794130325
1784244333.763082,-0.006845620,0.002213972,-0.154685691,-0.000489829,0.000663399,0.000798110,-0.033178929,-0.043941423,9.817980766
1784244333.765077,-0.006844684,0.002213266,-0.154685691,-0.000345436,0.000335936,0.000716929,-0.042585921,-0.044506758,9.788378716
1784244333.767079,-0.006844684,0.002213266,-0.154685691,0.000179329,0.000224941,-0.000333682,-0.046589725,-0.077314548,9.809683800
1784244333.769076,-0.006845959,0.002214918,-0.154685691,0.000906852,0.000389803,-0.000681932,-0.031252485,-0.071194053,9.803461075
1784244333.771080,-0.006845959,0.002214918,-0.154685691,0.001433592,0.000361629,-0.000232440,-0.011915322,-0.107070878,9.773211479
1784244333.773083,-0.006845959,0.002214918,-0.154685691,0.001378193,-0.000175031,-0.000089080,-0.027918238,-0.093113825,9.792563438
1784244333.775083,-0.006847955,0.002214810,-0.154685691,0.001119021,-0.000778395,-0.000184746,-0.025250070,-0.057369281,9.801762581
1784244333.777085,-0.006847955,0.002214810,-0.154685691,0.000736778,-0.000624426,0.000163754,-0.006409294,-0.059269045,9.782938004
1784244333.779086,-0.006847694,0.002213912,-0.154685691,-0.000061044,-0.000004013,0.000636261,-0.030206567,-0.059901599,9.788740158
1784244333.781085,-0.006847694,0.002213912,-0.154685691,-0.000844675,0.000161041,0.001159075,-0.026468892,-0.047836732,9.786577225
1784244333.783091,-0.006847694,0.002213912,-0.154685691,-0.001522954,0.000267649,0.001016190,-0.007256918,-0.053596213,9.805837631
1784244333.785097,-0.006847417,0.002213003,-0.154685691,-0.001671246,0.000470012,0.000516205,-0.012242369,-0.060004383,9.770822525
1784244333.787111,-0.006847417,0.002213003,-0.154685691,-0.000874917,0.000573674,-0.000171769,-0.037427343,-0.062163875,9.804859161
1784244333.789101,-0.006846868,0.002213844,-0.154685691,-0.000344965,0.001010158,-0.000743226,-0.037979849,-0.070272297,9.811978340
1784244333.791104,-0.006846868,0.002213844,-0.154685691,-0.000886539,0.001008837,-0.000296293,-0.022009263,-0.085700415,9.810549736
1784244333.793097,-0.006846868,0.002213844,-0.154685691,-0.001071268,0.000427313,0.000405480,0.004233086,-0.068915963,9.797233582
1784244333.795147,-0.006847179,0.002212869,-0.154685691,-0.000679028,0.000214431,0.000846519,0.025005687,-0.056383513,9.824681282
1784244333.797131,-0.006847179,0.002212869,-0.154685691,-0.000477809,0.000477784,0.000592349,-0.018431995,-0.047038313,9.848909378
1784244333.799131,-0.006846606,0.002213016,-0.154685691,-0.000349995,0.000598061,0.000370658,-0.046432912,-0.063513607,9.821875572
1784244333.801151,-0.006846606,0.002213016,-0.154685691,0.000303052,0.000783322,0.000914612,-0.054818030,-0.051760554,9.822392464
1784244333.803117,-0.006846606,0.002213016,-0.154685691,0.001124181,0.001111886,0.001420815,0.001137631,-0.064869501,9.800843239
1784244333.805148,-0.006846948,0.002212321,-0.154685691,0.000922716,0.000964213,0.001731996,-0.017211284,-0.060608491,9.801749229
1784244333.807143,-0.006846948,0.002212321,-0.154685691,0.000290735,0.001026848,0.001471467,-0.019870065,-0.057473246,9.806698799
1784244333.809108,-0.006846614,0.002211855,-0.154685691,-0.000092222,0.001364720,0.000453043,-0.008401240,-0.075391717,9.785522461
1784244333.811123,-0.006846614,0.002211855,-0.154685691,-0.000990319,0.001256220,-0.000075207,-0.037054487,-0.069657788,9.786877632
1784244333.813108,-0.006846614,0.002211855,-0.154685691,-0.002063518,0.000928711,-0.000299615,-0.029822014,-0.064466439,9.799919128
1784244333.815106,-0.006846519,0.002211520,-0.154685691,-0.002341363,0.000468921,-0.000499629,-0.038714472,-0.058438931,9.787395477
1784244333.817114,-0.006846519,0.002211520,-0.154685691,-0.001568335,0.000173796,-0.000047856,-0.031128198,-0.062107649,9.785586357
1784244333.819134,-0.006846051,0.002211401,-0.154685706,-0.000335479,0.000093580,0.000608004,-0.019908976,-0.063048720,9.771692276
1784244333.821117,-0.006846051,0.002211401,-0.154685706,0.000183304,0.000022563,0.000868496,-0.030248106,-0.062255863,9.804863930
1784244333.823119,-0.006846051,0.002211401,-0.154685706,0.000416730,-0.000097286,0.000678565,-0.014288623,-0.042613253,9.786174774
1784244333.825118,-0.006844615,0.002210677,-0.154685706,0.000567900,-0.000308948,0.000304806,-0.040681563,-0.072744332,9.786406517
1784244333.827129,-0.006844615,0.002210677,-0.154685706,0.000045551,-0.000385542,0.000230524,-0.037116338,-0.072577670,9.819586754
1784244333.829127,-0.006844685,0.002210761,-0.154685706,-0.000657761,-0.000186092,0.000213423,-0.018414976,-0.048524912,9.805860519
1784244333.831126,-0.006844685,0.002210761,-0.154685706,-0.000728909,0.000515633,-0.000318737,-0.021817939,-0.070005879,9.808407784
1784244333.833125,-0.006844685,0.002210761,-0.154685706,-0.000582973,0.000969374,-0.000489793,-0.026180726,-0.060051903,9.802640915
1784244333.835148,-0.006843894,0.002210035,-0.154685706,-0.000628858,0.000739711,0.000014044,-0.040346622,-0.082563892,9.780514717
1784244333.837139,-0.006843894,0.002210035,-0.154685706,-0.000209824,0.000603745,0.000345874,-0.049724597,-0.077226609,9.802955627
1784244333.839134,-0.006844140,0.002211754,-0.154685706,0.000386570,0.000646325,0.000462498,-0.022609014,-0.063481271,9.774377823
1784244333.841127,-0.006844140,0.002211754,-0.154685706,0.000549265,0.000521271,0.000058757,0.010015992,-0.036255170,9.793412209
1784244333.843134,-0.006844140,0.002211754,-0.154685706,0.000342383,0.000346228,-0.000651541,-0.010402104,-0.056021158,9.774436951
1784244333.845131,-0.006843234,0.002210798,-0.154685706,0.000246276,0.000306569,-0.000915683,-0.003044490,-0.077300258,9.792241096
1784244333.847134,-0.006843234,0.002210798,-0.154685706,0.000597677,0.000777443,-0.001158810,-0.012940673,-0.077774353,9.813748360
1784244333.849137,-0.006843434,0.002210366,-0.154685706,0.000747487,0.001372497,-0.001154172,-0.012459181,-0.077115931,9.783266068
1784244333.851139,-0.006843434,0.002210366,-0.154685706,0.000633562,0.001267752,-0.001045835,-0.012712067,-0.059353899,9.806243896
1784244333.853139,-0.006843434,0.002210366,-0.154685706,0.000510468,0.000831784,-0.000950928,-0.013086945,-0.054712731,9.784306526
1784244333.855206,-0.006842102,0.002209386,-0.154685706,-0.000028047,0.000859571,-0.000645905,-0.002872329,-0.064188562,9.775287628
1784244333.857178,-0.006842102,0.002209386,-0.154685706,-0.000398285,0.001204779,-0.000620424,0.000247997,-0.063580886,9.810265541
1784244333.859162,-0.006841723,0.002208240,-0.154685721,-0.000042001,0.000784645,-0.000785126,-0.022050969,-0.050871350,9.827362061
1784244333.861156,-0.006841723,0.002208240,-0.154685721,0.000537150,-0.000047284,-0.000835324,-0.057646211,-0.060904678,9.853266716
1784244333.863164,-0.006841723,0.002208240,-0.154685721,0.000293866,-0.000269065,-0.000726395,-0.023210026,-0.075214714,9.787302971
1784244333.865160,-0.006842383,0.002208238,-0.154685721,-0.000170142,-0.000228662,-0.000790786,-0.021843091,-0.073446475,9.788211823
1784244333.867172,-0.006842383,0.002208238,-0.154685721,0.000000956,0.000082716,-0.000745055,0.001107472,-0.068754882,9.780193329
1784244333.869172,-0.006842592,0.002207490,-0.154685721,-0.000250754,0.000689600,-0.000385289,-0.021603955,-0.055753428,9.756941795
1784244333.871161,-0.006842592,0.002207490,-0.154685721,-0.000997983,0.000831580,-0.000089667,-0.040904928,-0.053533487,9.794597626
1784244333.873162,-0.006842592,0.002207490,-0.154685721,-0.001601178,0.000346321,-0.000635860,-0.015987897,-0.031299390,9.836461067
1784244333.875174,-0.006841554,0.002207257,-0.154685721,-0.001516966,-0.000207059,-0.001647798,-0.022908613,-0.048924915,9.807198524
1784244333.877176,-0.006841554,0.002207257,-0.154685721,-0.000822741,-0.000319219,-0.001046524,-0.019954892,-0.066248052,9.780637741
1784244333.879175,-0.006841485,0.002207092,-0.154685721,-0.000733119,-0.000169644,0.000565493,-0.018284597,-0.074954011,9.804794312
1784244333.881174,-0.006841485,0.002207092,-0.154685721,-0.001356682,-0.000355477,0.001123332,-0.041865520,-0.095258079,9.804192543
1784244333.883178,-0.006841485,0.002207092,-0.154685721,-0.001738772,-0.000614527,0.001023687,-0.016391851,-0.066503897,9.810231209
1784244333.885180,-0.006841971,0.002207330,-0.154685721,-0.001634335,-0.000589387,0.000627964,0.004602734,-0.038845323,9.789357185
1784244333.887178,-0.006841971,0.002207330,-0.154685721,-0.000993719,-0.000321740,-0.000217637,0.002563783,-0.056960173,9.820173264
1784244333.889180,-0.006842175,0.002206390,-0.154685721,-0.000399423,0.000067086,-0.000381070,-0.033894405,-0.067115195,9.801691055
1784244333.891182,-0.006842175,0.002206390,-0.154685721,-0.000481004,-0.000312848,-0.000053346,-0.056001589,-0.039517995,9.804088593
1784244333.893181,-0.006842175,0.002206390,-0.154685721,-0.000471907,-0.001002575,-0.000105624,-0.063359149,-0.053802099,9.809818268
1784244333.895191,-0.006841922,0.002207951,-0.154685721,-0.000677121,-0.000964655,0.000165848,-0.030655095,-0.059489213,9.794569016
1784244333.897187,-0.006841922,0.002207951,-0.154685721,-0.001493538,-0.000732181,0.000417849,0.000207438,-0.030769052,9.795680046
1784244333.899192,-0.006840508,0.002207568,-0.154685706,-0.001494614,-0.000961778,0.000040543,-0.043608483,-0.055614792,9.777097702
1784244333.901190,-0.006840508,0.002207568,-0.154685706,-0.000592277,-0.001193437,-0.000124933,-0.020912133,-0.069140531,9.811104774
1784244333.903189,-0.006840508,0.002207568,-0.154685706,-0.000360630,-0.000514080,0.000155708,-0.024105523,-0.073567182,9.809281349
1784244333.905222,-0.006840544,0.002208110,-0.154685706,-0.000383926,0.000542862,0.000038046,-0.012507678,-0.077904120,9.831233025
1784244333.907211,-0.006840544,0.002208110,-0.154685706,0.000205094,0.000479000,-0.000159663,-0.020216065,-0.085736133,9.812345505
1784244333.909244,-0.006841126,0.002208566,-0.154685706,0.000356238,-0.000106825,0.000071949,-0.030434947,-0.078725487,9.789963722
1784244333.911224,-0.006841126,0.002208566,-0.154685706,0.000071590,-0.000276684,0.000133169,-0.010490940,-0.061990924,9.795021057
1784244333.913203,-0.006841126,0.002208566,-0.154685706,0.000052038,0.000245522,0.000181665,-0.016277684,-0.056686912,9.815672874
1784244333.915209,-0.006840959,0.002208038,-0.154685706,0.000001116,0.000555006,0.000108229,-0.030711601,-0.063987911,9.797231674
1784244333.917205,-0.006840959,0.002208038,-0.154685706,-0.000404324,0.000172129,0.000104913,-0.046134170,-0.077266254,9.802062988
1784244333.919201,-0.006841624,0.002209560,-0.154685706,-0.001008856,-0.000108108,0.000860175,-0.011725887,-0.090175532,9.791253090
1784244333.921230,-0.006841624,0.002209560,-0.154685706,-0.001082747,0.000098880,0.001232730,-0.004016923,-0.081933714,9.815522194
1784244333.923203,-0.006841624,0.002209560,-0.154685706,-0.000589900,0.000394741,0.000368545,-0.025972249,-0.041790430,9.817553520
1784244333.925214,-0.006841071,0.002209581,-0.154685691,-0.000037216,0.000192321,0.000043855,-0.008466365,-0.042773847,9.798285484
1784244333.927211,-0.006841071,0.002209581,-0.154685691,0.000439321,0.000503187,0.001254138,-0.026607916,-0.059471007,9.784710884
1784244333.929201,-0.006841198,0.002210189,-0.154685691,0.000250010,0.001153069,0.001541613,-0.009258703,-0.035448708,9.777709007
1784244333.931202,-0.006841198,0.002210189,-0.154685691,0.000069771,0.000893640,0.000988710,-0.003957359,-0.040226243,9.809962273
1784244333.933206,-0.006841198,0.002210189,-0.154685691,0.000543849,0.000009280,0.001377293,-0.023095446,-0.027804583,9.798816681
1784244333.935221,-0.006838653,0.002209354,-0.154685706,0.000296364,-0.000373929,0.001227640,-0.021201679,-0.057341527,9.790557861
1784244333.937216,-0.006838653,0.002209354,-0.154685706,-0.000615925,0.000025973,0.000272805,-0.037719548,-0.087570488,9.786761284
1784244333.939214,-0.006839111,0.002210348,-0.154685706,-0.000501937,0.000381895,-0.000583652,-0.029101968,-0.081277885,9.768428802
1784244333.941218,-0.006839111,0.002210348,-0.154685706,0.000229426,0.000330196,-0.001533207,-0.041646291,-0.078127451,9.789061546
1784244333.943251,-0.006839111,0.002210348,-0.154685706,0.000270150,0.000060309,-0.001649365,-0.036628906,-0.035498269,9.770956993
1784244333.945222,-0.006837767,0.002211279,-0.154685691,0.000224598,-0.000352919,-0.001500638,-0.010299732,-0.047513083,9.774940491
1784244333.947254,-0.006837767,0.002211279,-0.154685691,0.000534860,-0.000850333,-0.002259327,-0.020882726,-0.066071577,9.820540428
1784244333.949304,-0.006837887,0.002211929,-0.154685691,0.000364846,-0.000976537,-0.002468354,-0.016825937,-0.065166987,9.812030792
1784244333.951310,-0.006837887,0.002211929,-0.154685691,-0.000279717,-0.000493637,-0.001517091,-0.037070476,-0.068568259,9.822750092
1784244333.953247,-0.006837887,0.002211929,-0.154685691,-0.000477286,-0.000020227,-0.000588323,-0.021148337,-0.088431478,9.815016747
1784244333.955240,-0.006839059,0.002212459,-0.154685691,-0.000245012,-0.000038286,-0.000093668,-0.034381367,-0.070248351,9.802119255
1784244333.957237,-0.006839059,0.002212459,-0.154685691,-0.000006777,-0.000375619,0.000174727,-0.044383671,-0.080475844,9.809217453
1784244333.959263,-0.006839471,0.002213430,-0.154685691,-0.000270030,-0.000939087,0.000115061,-0.046473030,-0.069098629,9.788216591
1784244333.961246,-0.006839471,0.002213430,-0.154685691,-0.000767835,-0.001220385,0.000089880,-0.042235892,-0.050965205,9.813892365
1784244333.963253,-0.006839471,0.002213430,-0.154685691,-0.000927212,-0.000978736,0.000272917,-0.009311409,-0.039512154,9.782166481
1784244333.965249,-0.006838289,0.002212989,-0.154685691,-0.000895605,-0.000516414,0.000426139,0.000260250,-0.063078888,9.802646637
1784244333.967247,-0.006838289,0.002212989,-0.154685691,-0.000687237,0.000180028,0.000269281,-0.017748039,-0.069402985,9.779274940
1784244333.969237,-0.006838067,0.002212893,-0.154685691,-0.000282245,0.000684870,0.000119296,-0.027211625,-0.035256896,9.783071518
1784244333.971243,-0.006838067,0.002212893,-0.154685691,0.000551006,0.000721193,0.000279819,-0.029398514,-0.064265884,9.833993912
1784244333.973242,-0.006838067,0.002212893,-0.154685691,0.001154450,0.000336035,0.000015372,0.004265247,-0.067851514,9.773478508
1784244333.975245,-0.006838372,0.002211465,-0.154685691,0.000835309,-0.000057382,-0.000991441,-0.017524835,-0.086183615,9.807412148
1784244333.977258,-0.006838372,0.002211465,-0.154685691,0.000043875,-0.000159070,-0.001544233,-0.025263354,-0.057474211,9.816556931
1784244333.979251,-0.006837889,0.002211642,-0.154685691,-0.000372133,-0.000275416,-0.001206793,-0.001008412,-0.058397595,9.776671410
1784244333.981250,-0.006837889,0.002211642,-0.154685691,0.000482730,-0.000212989,-0.000579223,0.013863508,-0.050781578,9.813050270
1784244333.983250,-0.006837889,0.002211642,-0.154685691,0.001701001,-0.000264262,-0.000067483,-0.023815054,-0.049389996,9.811230659
1784244333.985254,-0.006837262,0.002211442,-0.154685691,0.001719503,-0.000522801,-0.000256905,-0.014092921,-0.060826797,9.826858521
1784244333.987263,-0.006837262,0.002211442,-0.154685691,0.000548369,0.000023699,-0.000735669,-0.019789752,-0.088350154,9.801120758
1784244333.989254,-0.006837734,0.002211862,-0.154685691,-0.000561348,0.000223274,-0.000544403,-0.031208927,-0.068823889,9.785094261
1784244333.991266,-0.006837734,0.002211862,-0.154685691,-0.000637267,-0.000291635,0.000314490,-0.017124219,-0.052221235,9.819288254
1784244333.993260,-0.006837734,0.002211862,-0.154685691,-0.000327347,-0.000381363,0.000725732,-0.015967254,-0.032757375,9.789375305
1784244333.995259,-0.006836707,0.002211147,-0.154685706,-0.000228708,-0.000674367,0.000211517,-0.014612328,-0.029057754,9.833786011
1784244333.997270,-0.006836707,0.002211147,-0.154685706,0.000077401,-0.000962341,-0.000163127,-0.040094528,-0.059905473,9.807110786
1784244333.999264,-0.006836994,0.002211926,-0.154685691,0.000577562,-0.000459795,0.000326534,-0.037291311,-0.050958492,9.804034233
1784244334.001268,-0.006836994,0.002211926,-0.154685691,0.000456012,0.000144758,0.000810166,-0.022187864,-0.064109869,9.799032211
1784244334.003286,-0.006836994,0.002211926,-0.154685691,-0.000210637,0.000487503,0.000493108,-0.026535289,-0.052008297,9.806279182
1784244334.005597,-0.006836961,0.002212327,-0.154685691,-0.000245321,0.000712224,0.000605695,-0.021578051,-0.051496394,9.788352966
1784244334.007327,-0.006836961,0.002212327,-0.154685691,0.000702032,0.000628577,0.001157229,-0.016273668,-0.059491955,9.769028664
1784244334.009304,-0.006836338,0.002212004,-0.154685691,0.001339367,0.000501857,0.000637922,0.001123820,-0.066194303,9.798144341
1784244334.011294,-0.006836338,0.002212004,-0.154685691,0.001010859,0.000459957,-0.000698112,-0.032321069,-0.083881266,9.825346947
1784244334.013291,-0.006836338,0.002212004,-0.154685691,0.000279675,0.000145199,-0.001421038,-0.005914044,-0.091228873,9.802907944
1784244334.015326,-0.006837798,0.002211156,-0.154685691,-0.000308071,-0.000033160,-0.001351777,-0.016778411,-0.061954942,9.801293373
1784244334.017314,-0.006837798,0.002211156,-0.154685691,-0.000296441,0.000302248,-0.001641013,-0.019002646,-0.060963504,9.791882515
1784244334.019315,-0.006837960,0.002210741,-0.154685706,-0.000001775,0.000255626,-0.001870937,-0.009862199,-0.083981127,9.798914909
1784244334.021304,-0.006837960,0.002210741,-0.154685706,0.000351712,-0.000144689,-0.001245975,-0.003377187,-0.067868240,9.789610863
1784244334.023350,-0.006837960,0.002210741,-0.154685706,0.000614353,0.000154284,-0.000245844,-0.010060008,-0.061326496,9.826858521
1784244334.025323,-0.006838052,0.002210174,-0.154685706,0.000680865,0.000447860,0.000085825,-0.019932667,-0.061209552,9.828194618
1784244334.027320,-0.006838052,0.002210174,-0.154685706,0.000760194,0.000052852,-0.000235507,-0.011061514,-0.071052507,9.810206413
1784244334.029304,-0.006838549,0.002209574,-0.154685706,0.000960930,-0.000380774,-0.000416024,-0.029264973,-0.092696309,9.799288750
1784244334.031300,-0.006838549,0.002209574,-0.154685706,0.001058470,-0.000191942,-0.000580898,-0.035374515,-0.040697463,9.806791306
1784244334.033297,-0.006838549,0.002209574,-0.154685706,0.001006566,0.000376160,-0.000247508,-0.018679598,0.001871270,9.776144981
1784244334.035298,-0.006835710,0.002209565,-0.154685706,0.000911289,0.000554875,0.000282791,-0.037157871,-0.040178809,9.800067902
1784244334.037307,-0.006835710,0.002209565,-0.154685706,0.000641843,0.000404217,-0.000145107,0.002951485,-0.063526362,9.797714233
1784244334.039304,-0.006835126,0.002209059,-0.154685706,0.000302197,0.000421783,-0.000420240,-0.014604529,-0.069017515,9.782418251
1784244334.041318,-0.006835126,0.002209059,-0.154685706,-0.000087899,0.000808678,0.000265725,-0.014927093,-0.057479251,9.798633575
1784244334.043367,-0.006835126,0.002209059,-0.154685706,0.000061177,0.000909184,0.000223566,-0.022094764,-0.055674914,9.809845924
1784244334.045317,-0.006834893,0.002208974,-0.154685706,0.000351489,0.000737750,-0.001324572,-0.030249303,-0.059428565,9.848370552
1784244334.047329,-0.006834893,0.002208974,-0.154685706,-0.000122605,0.000658910,-0.002886451,-0.012034117,-0.041339446,9.792013168
1784244334.049320,-0.006833738,0.002209460,-0.154685706,-0.000165572,0.000375583,-0.002941933,-0.035040043,-0.087300099,9.806941032
1784244334.051313,-0.006833738,0.002209460,-0.154685706,0.000433363,0.000138412,-0.002006723,-0.000975904,-0.091273032,9.800222397
1784244334.053319,-0.006833738,0.002209460,-0.154685706,0.000224025,0.000405905,-0.001540627,0.000721424,-0.100576021,9.782231331
1784244334.055338,-0.006834801,0.002208163,-0.154685706,-0.000323276,0.000927574,-0.000965214,-0.030499851,-0.084101029,9.789929390
1784244334.057323,-0.006834801,0.002208163,-0.154685706,-0.000362844,0.001174971,-0.000094904,-0.033853441,-0.065170713,9.780183792
1784244334.059330,-0.006834527,0.002208429,-0.154685706,-0.000554487,0.001234168,0.000014671,-0.027396107,-0.050897371,9.777591705
1784244334.061328,-0.006834527,0.002208429,-0.154685706,-0.001076230,0.000960084,-0.000341122,-0.013900800,-0.047962744,9.781659126
1784244334.063329,-0.006834527,0.002208429,-0.154685706,-0.001174065,0.000179406,-0.000278170,-0.025462516,-0.076472625,9.779223442
1784244334.065327,-0.006834678,0.002208419,-0.154685706,-0.001122771,-0.000575825,0.000615281,-0.026544267,-0.053294938,9.798200607
1784244334.067334,-0.006834678,0.002208419,-0.154685706,-0.001132603,-0.000459966,0.001341994,-0.007458311,-0.034617115,9.783543587
1784244334.069329,-0.006832978,0.002207712,-0.154685721,-0.001132832,0.000202106,0.001585797,-0.015276822,-0.049397483,9.796890259
1784244334.071338,-0.006832978,0.002207712,-0.154685721,-0.001077201,0.000827810,0.001764292,-0.021558885,-0.048913550,9.803165436
1784244334.073335,-0.006832978,0.002207712,-0.154685721,-0.000295461,0.001135517,0.001262864,-0.024887841,-0.027762512,9.796123505
1784244334.075333,-0.006831229,0.002208409,-0.154685721,0.000485352,0.000712971,0.000316653,-0.017274920,-0.029194588,9.794776917
1784244334.077337,-0.006831229,0.002208409,-0.154685721,0.000308969,0.000158098,0.000130238,-0.012491223,-0.042210545,9.789318085
1784244334.079339,-0.006830318,0.002208348,-0.154685721,-0.000091800,-0.000210950,0.000607962,-0.024941711,-0.070235536,9.783298492
1784244334.081332,-0.006830318,0.002208348,-0.154685721,0.000107770,-0.000371458,0.000036721,-0.036131419,-0.067845635,9.782404900
1784244334.083348,-0.006830318,0.002208348,-0.154685721,0.000638718,-0.000162470,-0.001369843,-0.041133542,-0.071953952,9.802102089
1784244334.085404,-0.006830502,0.002209408,-0.154685721,0.000754161,0.000184827,-0.001437109,-0.020610960,-0.080037259,9.830763817
1784244334.087343,-0.006830502,0.002209408,-0.154685721,0.000494055,0.000544776,-0.000709834,-0.003239211,-0.093426853,9.792137146
1784244334.089349,-0.006832245,0.002208402,-0.154685721,-0.000096596,0.000452554,-0.000381204,-0.036859829,-0.090311080,9.792572975
1784244334.091345,-0.006832245,0.002208402,-0.154685721,-0.000657855,0.000025471,0.000072607,-0.046761483,-0.055669941,9.790544510
1784244334.093351,-0.006832245,0.002208402,-0.154685721,-0.000719624,0.000069812,0.000532099,-0.015423683,-0.064335637,9.755548477
1784244334.095346,-0.006832181,0.002207933,-0.154685721,-0.000417259,0.000423239,0.000724761,-0.029338961,-0.025395257,9.786272049
1784244334.097352,-0.006832181,0.002207933,-0.154685721,-0.000326730,0.000446456,0.001134378,-0.028432129,-0.062516965,9.775274277
1784244334.099347,-0.006832479,0.002208047,-0.154685721,-0.000481025,0.000177315,0.001503044,-0.045469861,-0.060169976,9.790965080
1784244334.101357,-0.006832479,0.002208047,-0.154685721,-0.000586537,0.000523806,0.001341404,-0.025315668,-0.064371310,9.778404236
1784244334.103353,-0.006832479,0.002208047,-0.154685721,-0.001542249,0.001416223,0.001135561,-0.013028549,-0.086167976,9.797105789
1784244334.105373,-0.006833550,0.002207781,-0.154685721,-0.002656488,0.001872744,0.001001915,-0.016772479,-0.060287103,9.818788528
1784244334.107379,-0.006833550,0.002207781,-0.154685721,-0.002698565,0.001494605,0.000974026,-0.019995159,-0.031812888,9.789826393
1784244334.109366,-0.006832267,0.002207995,-0.154685721,-0.001926716,0.000219641,0.001093830,-0.025666136,-0.054269135,9.807608604
1784244334.111363,-0.006832267,0.002207995,-0.154685721,-0.000983291,-0.000674502,0.000730610,-0.012524935,-0.044097777,9.802755356
1784244334.113364,-0.006832267,0.002207995,-0.154685721,-0.000231593,-0.000530510,-0.000197376,-0.013184177,-0.023969369,9.808712959
1784244334.115368,-0.006830605,0.002208075,-0.154685721,0.000517678,-0.000123129,-0.000654776,-0.026138721,-0.055667676,9.816118240
1784244334.117376,-0.006830605,0.002208075,-0.154685721,0.000755988,0.000281523,-0.000428269,-0.035002757,-0.084574170,9.801577568
1784244334.119369,-0.006831438,0.002208943,-0.154685721,0.000332739,0.000529632,-0.000408884,-0.051909536,-0.073493347,9.785940170
1784244334.121367,-0.006831438,0.002208943,-0.154685721,-0.000208065,0.000824420,-0.000972154,-0.020126369,-0.080570087,9.778754234
1784244334.123372,-0.006831438,0.002208943,-0.154685721,-0.000440146,0.000965318,-0.001364593,-0.020121088,-0.118928790,9.754296303
1784244334.125372,-0.006833399,0.002209267,-0.154685706,-0.000072341,0.000733094,-0.000821109,0.004967581,-0.084802866,9.761713982
1784244334.127378,-0.006833399,0.002209267,-0.154685706,-0.000001456,0.000850713,0.000117651,-0.005908099,-0.017217934,9.791277885
1784244334.129374,-0.006831007,0.002209226,-0.154685721,-0.000056470,0.001047203,0.000531200,-0.065993354,-0.050472889,9.787421227
1784244334.131382,-0.006831007,0.002209226,-0.154685721,0.000294160,0.000485601,0.000594486,-0.029047009,-0.074765146,9.797611237
1784244334.133384,-0.006831007,0.002209226,-0.154685721,0.000417662,-0.000355849,0.000926800,-0.041353229,-0.053524569,9.794149399
1784244334.135390,-0.006830083,0.002210164,-0.154685721,0.000779902,-0.000758991,0.001693991,-0.029493291,-0.074740320,9.794921875
1784244334.137388,-0.006830083,0.002210164,-0.154685721,0.001769672,-0.000826071,0.002183091,-0.006422122,-0.060180865,9.785174370
1784244334.139384,-0.006829471,0.002209263,-0.154685721,0.002075906,-0.000920368,0.001870566,-0.011129521,-0.040483650,9.796055794
1784244334.141387,-0.006829471,0.002209263,-0.154685721,0.000545951,-0.000968500,0.001369446,-0.003400020,-0.032079663,9.797461510
1784244334.143389,-0.006829471,0.002209263,-0.154685721,-0.000799758,-0.000693646,0.000771072,-0.023621498,-0.071672969,9.794050217
1784244334.145385,-0.006828552,0.002208951,-0.154685721,-0.000327266,-0.000055007,-0.000328003,-0.028685709,-0.081134573,9.810573578
1784244334.147395,-0.006828552,0.002208951,-0.154685721,0.000107206,0.000408928,-0.001074377,-0.007633303,-0.085341044,9.797116280
1784244334.149395,-0.006829971,0.002207824,-0.154685721,-0.000431066,0.000445703,-0.000899066,0.010764870,-0.085160591,9.801618576
1784244334.151398,-0.006829971,0.002207824,-0.154685721,-0.000827330,0.000164449,-0.000430092,-0.022375571,-0.079775788,9.797138214
1784244334.153389,-0.006829971,0.002207824,-0.154685721,-0.000645618,0.000007819,0.000020878,-0.017496005,-0.083524458,9.811464310
1784244334.155400,-0.006831083,0.002207558,-0.154685721,-0.000346543,0.000217121,0.000152901,-0.033081301,-0.074681617,9.793125153
1784244334.157407,-0.006831083,0.002207558,-0.154685721,-0.000165541,0.000210657,-0.000185109,-0.018000983,-0.053667717,9.772202492
