time_sec,roll_rad,pitch_rad,yaw_rad,gyro_x,gyro_y,gyro_z,acc_x,acc_y,acc_z
1784243901.685868,-0.007866452,-0.012064386,0.820239902,-0.000502107,-0.001207610,-0.000215679,0.135618374,-0.075725190,9.825111389
1784243901.687791,-0.007866671,-0.012065268,0.820239902,-0.000719082,-0.001031946,-0.000025655,0.123874381,-0.081863068,9.827303886
1784243901.689762,-0.007866671,-0.012065268,0.820239902,-0.000384084,-0.000564209,-0.000389998,0.131810278,-0.094830237,9.809294701
1784243901.691789,-0.007867219,-0.012065658,0.820239902,0.000488814,-0.000607789,-0.000728768,0.120705277,-0.084882244,9.816521645
1784243901.693808,-0.007867219,-0.012065658,0.820239902,0.000850682,-0.000836345,-0.000688261,0.103885442,-0.066630855,9.800481796
1784243901.695809,-0.007867219,-0.012065658,0.820239902,0.000557198,-0.000690741,-0.000675950,0.141086519,-0.071485907,9.786139488
1784243901.697820,-0.007867200,-0.012067058,0.820239902,0.000507884,-0.000301889,-0.000105539,0.109928474,-0.086427994,9.801257133
1784243901.699822,-0.007867200,-0.012067058,0.820239902,0.000325982,-0.000125478,0.000381380,0.101781867,-0.091334753,9.812874794
1784243901.701751,-0.007867158,-0.012066824,0.820239902,0.000208825,-0.000494134,-0.000403915,0.133134454,-0.060672686,9.792030334
1784243901.703785,-0.007867158,-0.012066824,0.820239902,0.000468218,-0.000640752,-0.000920611,0.114742786,-0.058775485,9.810404778
1784243901.705750,-0.007867158,-0.012066824,0.820239902,0.000263725,-0.000242329,-0.000807430,0.120324522,-0.045129012,9.771493912
1784243901.707746,-0.007865531,-0.012067254,0.820239902,-0.000446203,0.000035192,-0.000599579,0.114768215,-0.059385240,9.770051956
1784243901.709777,-0.007865531,-0.012067254,0.820239902,-0.000802982,0.000037199,-0.000376814,0.111545131,-0.065667324,9.777182579
1784243901.711750,-0.007864739,-0.012067840,0.820239902,-0.001061479,-0.000045262,-0.001207847,0.137848362,-0.078292258,9.804025650
1784243901.713755,-0.007864739,-0.012067840,0.820239902,-0.001323061,-0.000176984,-0.001741555,0.102170900,-0.096674696,9.807011604
1784243901.715739,-0.007864739,-0.012067840,0.820239902,-0.000954597,-0.000177616,-0.001045827,0.134678900,-0.082124688,9.781580925
1784243901.717797,-0.007865103,-0.012068813,0.820239902,-0.000088476,-0.000041745,-0.000338718,0.103330128,-0.074761532,9.810740471
1784243901.719783,-0.007865103,-0.012068813,0.820239902,0.000250770,-0.000278395,-0.000349432,0.088753797,-0.056538902,9.794703484
1784243901.721736,-0.007864124,-0.012067184,0.820239902,0.000012391,-0.000351353,-0.001043423,0.094318964,-0.042212725,9.786282539
1784243901.723738,-0.007864124,-0.012067184,0.820239902,0.000821581,0.000179206,-0.001598330,0.131241828,-0.067906097,9.804533958
1784243901.725762,-0.007864124,-0.012067184,0.820239902,0.001930319,0.000214697,-0.001444099,0.148054659,-0.089455001,9.780202866
1784243901.727752,-0.007864831,-0.012067703,0.820239902,0.001772688,-0.000274779,-0.000722386,0.164463580,-0.103754833,9.808371544
1784243901.729751,-0.007864831,-0.012067703,0.820239902,0.000883929,-0.000211576,0.000219675,0.130265996,-0.075808451,9.783411026
1784243901.731731,-0.007864878,-0.012068216,0.820239902,0.000238122,0.000048668,0.001195981,0.111861207,-0.076446392,9.780250549
1784243901.733737,-0.007864878,-0.012068216,0.820239902,0.000217587,-0.000069376,0.001382709,0.118455954,-0.047714662,9.823481560
1784243901.735733,-0.007864878,-0.012068216,0.820239902,0.000077030,-0.000221584,0.000796097,0.115681164,-0.056842521,9.788899422
1784243901.737745,-0.007864626,-0.012068309,0.820239902,-0.000221120,-0.000007366,0.000532723,0.076277882,-0.049201008,9.793394089
1784243901.739739,-0.007864626,-0.012068309,0.820239902,0.000193959,0.000158100,0.000630743,0.123338968,-0.054678194,9.785781860
1784243901.741737,-0.007863396,-0.012068294,0.820239902,0.000706251,-0.000354149,0.000789217,0.156855792,-0.065908141,9.792467117
1784243901.743741,-0.007863396,-0.012068294,0.820239902,0.000246112,-0.000862656,0.000956741,0.119781233,-0.087107368,9.816057205
1784243901.745732,-0.007863396,-0.012068294,0.820239902,-0.000642838,-0.000614933,0.001045241,0.096849933,-0.090836264,9.814664841
1784243901.747740,-0.007864142,-0.012067091,0.820239902,-0.000816423,-0.000184492,0.000606408,0.102541521,-0.066191085,9.804070473
1784243901.749735,-0.007864142,-0.012067091,0.820239902,-0.000457358,-0.000040362,0.000647586,0.115146555,-0.064404413,9.782125473
1784243901.751767,-0.007863774,-0.012067076,0.820239902,-0.000378877,0.000060743,0.001634017,0.155515671,-0.065033130,9.797852516
1784243901.753831,-0.007863774,-0.012067076,0.820239902,-0.000155649,0.000211134,0.001288257,0.141184360,-0.061392661,9.815795898
1784243901.755775,-0.007863774,-0.012067076,0.820239902,0.000175062,0.000577620,-0.000063088,0.110520512,-0.073144354,9.822414398
1784243901.757781,-0.007863455,-0.012066807,0.820239902,0.000054825,0.000989611,-0.000577948,0.122115947,-0.077500358,9.847056389
1784243901.759795,-0.007863455,-0.012066807,0.820239902,0.000032681,0.000833966,-0.000125069,0.130489886,-0.056209456,9.799228668
1784243901.761757,-0.007862764,-0.012067385,0.820239902,0.000302264,0.000463407,0.000546853,0.129416808,-0.070958413,9.795994759
1784243901.763823,-0.007862764,-0.012067385,0.820239902,0.000357313,0.000413408,0.000640203,0.121275149,-0.077447161,9.778012276
1784243901.765763,-0.007862764,-0.012067385,0.820239902,0.000094531,0.000706670,0.000312423,0.124861702,-0.114701919,9.780914307
1784243901.767798,-0.007863675,-0.012067683,0.820239902,-0.000353698,0.000668654,0.000468968,0.102365024,-0.118547879,9.795215607
1784243901.769818,-0.007863675,-0.012067683,0.820239902,-0.000994142,0.000085041,0.000796035,0.118089296,-0.080193251,9.791889191
1784243901.771806,-0.007864021,-0.012067449,0.820239902,-0.001168762,-0.000213948,0.000493913,0.112557456,-0.055045404,9.793838501
1784243901.773796,-0.007864021,-0.012067449,0.820239902,-0.000987258,-0.000274090,0.000437655,0.126697972,-0.035570581,9.802047729
1784243901.775785,-0.007864021,-0.012067449,0.820239902,-0.000638215,-0.000250569,0.000776480,0.131947011,-0.047245223,9.796149254
1784243901.777825,-0.007862838,-0.012069140,0.820239902,0.000306607,0.000030656,0.000773153,0.090530872,-0.094291776,9.807912827
1784243901.779793,-0.007862838,-0.012069140,0.820239902,0.000794576,0.000076468,0.000643162,0.103564017,-0.057109810,9.785299301
1784243901.781811,-0.007861481,-0.012068412,0.820239902,0.000495083,-0.000138626,0.001123699,0.116355523,-0.112009868,9.795718193
1784243901.783803,-0.007861481,-0.012068412,0.820239902,0.000190039,0.000082161,0.001710403,0.118688807,-0.104845792,9.792181015
1784243901.785817,-0.007861481,-0.012068412,0.820239902,0.000221495,0.000136699,0.001415549,0.127665669,-0.067348555,9.795568466
1784243901.787798,-0.007861144,-0.012068735,0.820239902,0.000042962,-0.000090501,0.001054529,0.125170559,-0.050358310,9.805089951
1784243901.789795,-0.007861144,-0.012068735,0.820239902,-0.000519638,-0.000090354,0.000954232,0.134612530,-0.048706267,9.807800293
1784243901.791812,-0.007859687,-0.012069304,0.820239961,-0.000856992,-0.000195592,0.000321089,0.124152355,-0.060621295,9.800988197
1784243901.793796,-0.007859687,-0.012069304,0.820239961,-0.000742552,-0.000349688,0.000112717,0.140546218,-0.078282237,9.797751427
1784243901.795800,-0.007859687,-0.012069304,0.820239961,-0.000098921,-0.000380979,0.000449661,0.130850270,-0.063801929,9.795145035
1784243901.797814,-0.007859075,-0.012069778,0.820239961,0.000482768,-0.000113904,0.000191464,0.105724961,-0.063464075,9.792881966
1784243901.799804,-0.007859075,-0.012069778,0.820239961,0.000494902,0.000410852,-0.000284273,0.110909134,-0.081324309,9.774839401
1784243901.801796,-0.007859600,-0.012069741,0.820239961,0.000447465,0.000683529,-0.000270506,0.129055247,-0.063375488,9.801423073
1784243901.803797,-0.007859600,-0.012069741,0.820239961,0.000389781,0.000431998,-0.000190815,0.127948433,-0.080011688,9.811626434
1784243901.805834,-0.007859600,-0.012069741,0.820239961,-0.000034897,0.000000234,-0.000026442,0.107513145,-0.063944563,9.794225693
1784243901.807817,-0.007859047,-0.012069101,0.820239961,-0.000653049,-0.000419631,0.000200535,0.113539852,-0.048712321,9.783569336
1784243901.809806,-0.007859047,-0.012069101,0.820239961,-0.000681602,-0.000329858,-0.000317209,0.116878815,-0.068973787,9.791512489
1784243901.811806,-0.007858494,-0.012069319,0.820239961,0.000133708,0.000122950,-0.000763101,0.125404909,-0.068266600,9.802733421
1784243901.813812,-0.007858494,-0.012069319,0.820239961,0.000474389,0.000542666,-0.000618483,0.129420429,-0.070929803,9.791960716
1784243901.815808,-0.007858494,-0.012069319,0.820239961,0.000213165,0.000618267,-0.000244444,0.115183339,-0.060061529,9.801430702
1784243901.817826,-0.007856864,-0.012069003,0.820239961,0.000235400,0.000274735,0.000080311,0.114665583,-0.063842967,9.830099106
1784243901.819817,-0.007856864,-0.012069003,0.820239961,0.000686630,0.000057666,0.000010887,0.115018420,-0.035526033,9.816831589
1784243901.821807,-0.007854065,-0.012068807,0.820239961,0.001087730,-0.000118583,-0.000147984,0.118172221,-0.070217639,9.838131905
1784243901.823829,-0.007854065,-0.012068807,0.820239961,0.001037983,-0.000169302,-0.000588764,0.159410328,-0.038760711,9.813715935
1784243901.825835,-0.007854065,-0.012068807,0.820239961,0.001127823,-0.000313834,-0.001199095,0.118399620,-0.054643568,9.789813042
1784243901.827823,-0.007852530,-0.012069107,0.820239961,0.001428389,-0.000386436,-0.001516796,0.113864258,-0.057804476,9.801445007
1784243901.829813,-0.007852530,-0.012069107,0.820239961,0.001595580,-0.000222445,-0.001801268,0.096547849,-0.043572634,9.784482002
1784243901.831814,-0.007851806,-0.012068523,0.820239961,0.001533160,-0.000389754,-0.001884030,0.149739623,-0.060049903,9.800567627
1784243901.833816,-0.007851806,-0.012068523,0.820239961,0.000964165,-0.000328989,-0.001456737,0.096575864,-0.078509808,9.782913208
1784243901.835819,-0.007851806,-0.012068523,0.820239961,0.000622408,-0.000214395,-0.001000536,0.116346724,-0.078136750,9.757827759
1784243901.837826,-0.007851955,-0.012068622,0.820239961,0.001039821,-0.000389646,-0.000740789,0.103142709,-0.054051008,9.796975136
1784243901.839823,-0.007851955,-0.012068622,0.820239961,0.001418516,-0.000337242,-0.000694858,0.110110819,-0.109610081,9.784520149
1784243901.841829,-0.007853807,-0.012068952,0.820239961,0.000973192,-0.000233750,-0.001239838,0.141349077,-0.086334787,9.794563293
1784243901.843831,-0.007853807,-0.012068952,0.820239961,0.000326487,0.000255668,-0.001075450,0.123930708,-0.080607846,9.776648521
1784243901.845826,-0.007853807,-0.012068952,0.820239961,0.000163387,0.000768109,-0.000503041,0.091692619,-0.073979683,9.784731865
1784243901.847833,-0.007853765,-0.012068101,0.820239961,0.000060400,0.000785468,-0.000773974,0.081557654,-0.056580458,9.813526154
1784243901.849833,-0.007853765,-0.012068101,0.820239961,0.000307621,0.000453983,-0.001189373,0.100923128,-0.053428035,9.776352882
1784243901.851839,-0.007852698,-0.012067690,0.820239961,0.000973409,0.000148506,-0.000715344,0.139666170,-0.037707213,9.827154160
1784243901.853831,-0.007852698,-0.012067690,0.820239961,0.001404988,0.000156108,0.000353251,0.166516006,-0.082291596,9.810751915
1784243901.855836,-0.007852698,-0.012067690,0.820239961,0.001569732,-0.000409617,0.000622840,0.150086462,-0.067343853,9.817558289
1784243901.857839,-0.007852777,-0.012068831,0.820239961,0.001690530,-0.000889762,0.000168990,0.113373563,-0.059346106,9.830126762
1784243901.859846,-0.007852777,-0.012068831,0.820239961,0.001662178,-0.000354667,-0.000427667,0.108832568,-0.065388367,9.805873871
1784243901.861841,-0.007852321,-0.012068809,0.820239961,0.001245340,0.000113405,-0.001187452,0.117706545,-0.072372220,9.826909065
1784243901.864089,-0.007852321,-0.012068809,0.820239961,0.001099563,-0.000032184,-0.001923925,0.121431947,-0.101236187,9.783688545
1784243901.865843,-0.007852321,-0.012068809,0.820239961,0.001406719,-0.000289018,-0.002081533,0.109367222,-0.096226506,9.794019699
1784243901.867886,-0.007853211,-0.012068817,0.820239961,0.001302210,-0.000602338,-0.001583812,0.085716106,-0.083547413,9.817841530
1784243901.869854,-0.007853211,-0.012068817,0.820239961,0.000953063,-0.000867295,-0.000626156,0.109251857,-0.068463072,9.796439171
1784243901.871850,-0.007852719,-0.012069146,0.820239961,0.000791728,-0.000722099,0.000524813,0.131318644,-0.062841795,9.785288811
1784243901.873853,-0.007852719,-0.012069146,0.820239961,0.000546973,-0.000739176,0.001073567,0.135178655,-0.077269629,9.791028976
1784243901.875850,-0.007852719,-0.012069146,0.820239961,0.000196601,-0.001648726,0.001305590,0.154818252,-0.087253734,9.773498535
1784243901.877882,-0.007853209,-0.012070385,0.820239961,-0.000152330,-0.002633746,0.001382413,0.132114902,-0.071351841,9.783442497
1784243901.879859,-0.007853209,-0.012070385,0.820239961,-0.000288925,-0.002646749,0.000810676,0.097145751,-0.068237886,9.786566734
1784243901.881863,-0.007852321,-0.012069169,0.820239961,-0.000198498,-0.001829862,0.000326870,0.087010726,-0.050028604,9.827471733
1784243901.883887,-0.007852321,-0.012069169,0.820239961,-0.000221286,-0.001054374,0.000065546,0.097360447,-0.084275216,9.836228371
1784243901.885867,-0.007852321,-0.012069169,0.820239961,-0.000295940,-0.000778571,0.000162300,0.111307196,-0.083350852,9.807105064
1784243901.887862,-0.007852802,-0.012068340,0.820239961,-0.000663243,-0.000956023,0.000843941,0.149384767,-0.088382736,9.816077232
1784243901.889870,-0.007852802,-0.012068340,0.820239961,-0.001634398,-0.000898823,0.001520948,0.155812323,-0.077991597,9.792388916
1784243901.891860,-0.007853073,-0.012070053,0.820239961,-0.002443547,-0.000278645,0.001782528,0.125002742,-0.065461800,9.787059784
1784243901.893868,-0.007853073,-0.012070053,0.820239961,-0.002145423,0.000132891,0.001107786,0.104423948,-0.060253862,9.784832001
1784243901.895866,-0.007853073,-0.012070053,0.820239961,-0.001370318,0.000192686,0.000615793,0.120390281,-0.075310320,9.794164658
1784243901.897864,-0.007852715,-0.012070170,0.820239961,-0.001334407,0.000003087,0.001049521,0.127651170,-0.070299856,9.769545555
1784243901.899870,-0.007852715,-0.012070170,0.820239961,-0.001361661,-0.000062351,0.001347756,0.127384320,-0.054269258,9.783994675
1784243901.901865,-0.007852347,-0.012070407,0.820239961,-0.000889147,0.000192981,0.001188400,0.110342354,-0.089950658,9.791820526
1784243901.903866,-0.007852347,-0.012070407,0.820239961,-0.000616526,0.000364084,0.000693026,0.118285336,-0.065677248,9.766427994
1784243901.905876,-0.007852347,-0.012070407,0.820239961,-0.000151110,0.000089651,0.000366455,0.091271073,-0.073354267,9.760524750
1784243901.907879,-0.007852172,-0.012069417,0.820239961,0.000543959,-0.000565860,0.000415408,0.118378550,-0.093615577,9.788665771
1784243901.909882,-0.007852172,-0.012069417,0.820239961,0.000510074,-0.000839577,0.000451346,0.118819892,-0.057305291,9.785312653
1784243901.911896,-0.007850973,-0.012069104,0.820239961,-0.000176767,-0.000366973,0.000660737,0.131532133,-0.044135544,9.800652504
1784243901.913908,-0.007850973,-0.012069104,0.820239961,-0.001096415,-0.000272036,0.001118102,0.154053614,-0.075252220,9.788370132
1784243901.915892,-0.007850973,-0.012069104,0.820239961,-0.001534238,-0.000527815,0.001197121,0.153051645,-0.084171325,9.784276962
1784243901.917891,-0.007851740,-0.012070942,0.820239961,-0.001053301,-0.000344014,0.001131655,0.134309903,-0.075005606,9.789248466
1784243901.919886,-0.007851740,-0.012070942,0.820239961,-0.000233619,-0.000182058,0.001554213,0.124559753,-0.063384764,9.810834885
1784243901.921895,-0.007851182,-0.012070899,0.820239961,0.000344477,-0.000101306,0.002096478,0.072827220,-0.074300632,9.800849915
1784243901.923895,-0.007851182,-0.012070899,0.820239961,0.000297438,0.000054889,0.002112223,0.107138969,-0.057676904,9.795610428
1784243901.925899,-0.007851182,-0.012070899,0.820239961,-0.000063685,-0.000041466,0.001742915,0.120166861,-0.092879377,9.807950974
1784243901.927898,-0.007851631,-0.012070720,0.820239961,-0.000289363,-0.000126409,0.000878145,0.149057120,-0.079316020,9.801789284
1784243901.929895,-0.007851631,-0.012070720,0.820239961,-0.000485288,0.000173916,-0.000056743,0.140479684,-0.083670497,9.799510956
1784243901.931894,-0.007851648,-0.012071392,0.820239961,-0.000326803,-0.000028736,-0.000053700,0.137099698,-0.067380257,9.783023834
1784243901.933901,-0.007851648,-0.012071392,0.820239961,-0.000055352,-0.000685236,0.000469432,0.138599321,-0.055648763,9.768753052
1784243901.935905,-0.007851648,-0.012071392,0.820239961,-0.000069788,-0.000764001,0.000653847,0.097107090,-0.071379974,9.787442207
1784243901.937908,-0.007851749,-0.012070310,0.820239961,0.000105319,-0.000408514,0.000646372,0.133383021,-0.077252999,9.791924477
1784243901.939906,-0.007851749,-0.012070310,0.820239961,0.000561865,0.000100999,0.000299861,0.135991395,-0.085649304,9.770800591
1784243901.941915,-0.007853393,-0.012071906,0.820239961,0.000532177,0.000299297,-0.000477611,0.148822173,-0.099407494,9.792244911
1784243901.943906,-0.007853393,-0.012071906,0.820239961,-0.000127041,0.000193328,-0.000179911,0.115647778,-0.098343305,9.765319824
1784243901.945902,-0.007853393,-0.012071906,0.820239961,-0.000715124,0.000241406,0.000344367,0.135180801,-0.076037034,9.806728363
1784243901.947905,-0.007852430,-0.012072525,0.820239961,-0.000600567,0.000149561,-0.000085878,0.143264547,-0.077299990,9.780724525
1784243901.949907,-0.007852430,-0.012072525,0.820239961,0.000530169,-0.000124527,-0.000741781,0.129163414,-0.054416262,9.801480293
1784243901.951906,-0.007851421,-0.012072708,0.820239961,0.001389126,-0.000414462,-0.001238099,0.117675811,-0.076667406,9.800879478
1784243901.953911,-0.007851421,-0.012072708,0.820239961,0.000746951,-0.000740546,-0.001187124,0.101779379,-0.093380585,9.785512924
1784243901.955909,-0.007851421,-0.012072708,0.820239961,-0.000550350,-0.000753603,-0.001077849,0.115350246,-0.081744291,9.825950623
1784243901.957911,-0.007851737,-0.012072905,0.820239961,-0.001310402,-0.000456800,-0.001375331,0.119374186,-0.083530635,9.817873001
1784243901.959913,-0.007851737,-0.012072905,0.820239961,-0.000761491,-0.000235578,-0.001409745,0.124406576,-0.077157080,9.794605255
1784243901.961912,-0.007851681,-0.012073026,0.820239961,0.000162463,0.000094387,-0.000530452,0.123472020,-0.041064851,9.824426651
1784243901.963913,-0.007851681,-0.012073026,0.820239961,0.000343751,0.000033194,0.000252056,0.152972370,-0.053691506,9.782679558
1784243901.965915,-0.007851681,-0.012073026,0.820239961,0.000096112,-0.000182413,0.000026270,0.112241730,-0.081043050,9.795913696
1784243901.967920,-0.007851835,-0.012072786,0.820239961,-0.000188214,-0.000046719,-0.000732457,0.098704256,-0.048341721,9.821216583
1784243901.969926,-0.007851835,-0.012072786,0.820239961,0.000289222,-0.000084011,-0.000833557,0.078757137,-0.066721879,9.795525551
1784243901.971957,-0.007850855,-0.012071461,0.820239961,0.001082512,-0.000622614,-0.000476106,0.103838608,-0.071053237,9.792383194
1784243901.973963,-0.007850855,-0.012071461,0.820239961,0.001167663,-0.001528987,-0.000652596,0.123816557,-0.052834868,9.777724266
1784243901.975979,-0.007850855,-0.012071461,0.820239961,0.000800946,-0.001716448,-0.000815318,0.130446658,-0.098193191,9.780577660
1784243901.977955,-0.007851182,-0.012071784,0.820239961,0.000560430,-0.001008885,-0.000676389,0.144035131,-0.090470515,9.741188049
1784243901.979932,-0.007851182,-0.012071784,0.820239961,0.000607823,-0.000043861,-0.000897254,0.138985664,-0.059794273,9.783970833
1784243901.981946,-0.007850898,-0.012072673,0.820239961,0.000948638,0.000495624,-0.001347406,0.143322319,-0.070764989,9.806769371
1784243901.983984,-0.007850898,-0.012072673,0.820239961,0.000724581,0.000695403,-0.001623008,0.115835436,-0.079030477,9.821485519
1784243901.985955,-0.007850898,-0.012072673,0.820239961,-0.000202635,0.000539760,-0.001267067,0.094051041,-0.098128125,9.837032318
1784243901.987955,-0.007851477,-0.012072017,0.820239961,-0.000707902,-0.000460077,-0.000579193,0.158115879,-0.071872897,9.809915543
1784243901.989951,-0.007851477,-0.012072017,0.820239961,-0.000243535,-0.001107870,-0.000004105,0.154986978,-0.070927180,9.808572769
1784243901.991945,-0.007851758,-0.012073406,0.820239961,0.000629515,-0.000631257,0.000366819,0.139213115,-0.076946557,9.801346779
1784243901.993949,-0.007851758,-0.012073406,0.820239961,0.000563487,-0.000146170,-0.000067334,0.104653783,-0.079413831,9.769465446
1784243901.995954,-0.007851758,-0.012073406,0.820239961,0.000002968,-0.000328125,-0.000242992,0.124223813,-0.091568157,9.805273056
1784243901.997957,-0.007852529,-0.012073406,0.820239961,0.000079743,-0.000648667,0.000080061,0.098155297,-0.061285138,9.752090454
1784243901.999957,-0.007852529,-0.012073406,0.820239961,0.000804328,-0.000977613,0.000027104,0.078540541,-0.084236883,9.801689148
1784243902.001950,-0.007852602,-0.012072263,0.820239961,0.001421799,-0.001325212,-0.000174401,0.116764069,-0.079200581,9.780688286
1784243902.003948,-0.007852602,-0.012072263,0.820239961,0.001006844,-0.001281344,-0.000284810,0.131563202,-0.079453908,9.789666176
1784243902.005955,-0.007852602,-0.012072263,0.820239961,0.000349835,-0.000685484,-0.000705647,0.157653302,-0.075218722,9.777165413
1784243902.007957,-0.007852674,-0.012073256,0.820239961,-0.000036963,-0.000108735,-0.000957127,0.147511572,-0.059493698,9.789360046
1784243902.009954,-0.007852674,-0.012073256,0.820239961,-0.000410595,0.000396209,-0.000129100,0.094900168,-0.105004944,9.794398308
1784243902.011955,-0.007853634,-0.012072659,0.820239961,-0.000464294,0.000958141,0.000728263,0.123017713,-0.082340494,9.769911766
1784243902.013955,-0.007853634,-0.012072659,0.820239961,-0.000142562,0.001256724,0.001172281,0.124375030,-0.081458643,9.769471169
1784243902.015958,-0.007853634,-0.012072659,0.820239961,-0.000310261,0.001047478,0.001348313,0.166407481,-0.092064060,9.799034119
1784243902.017962,-0.007853627,-0.012073913,0.820239961,-0.000903135,0.000688446,0.000770630,0.146442354,-0.074617483,9.775813103
1784243902.019959,-0.007853627,-0.012073913,0.820239961,-0.000883597,0.000368140,0.000332133,0.138031647,-0.062661313,9.810850143
1784243902.021966,-0.007853288,-0.012073920,0.820239961,-0.000693360,-0.000176847,0.000624997,0.083356529,-0.057381727,9.796934128
1784243902.023964,-0.007853288,-0.012073920,0.820239961,-0.001073681,-0.000081959,0.000786106,0.128473267,-0.073742792,9.811220169
1784243902.025968,-0.007853288,-0.012073920,0.820239961,-0.001414152,0.000693139,0.000365751,0.135292247,-0.067862451,9.791088104
1784243902.027970,-0.007852116,-0.012074934,0.820239961,-0.001446181,0.001113016,-0.000193663,0.133745238,-0.085236184,9.779767990
1784243902.029966,-0.007852116,-0.012074934,0.820239961,-0.001528583,0.001004662,-0.000459177,0.124228135,-0.055159915,9.788918495
1784243902.031970,-0.007851286,-0.012075573,0.820239961,-0.000962768,0.000341233,-0.000366034,0.134278491,-0.075253628,9.824216843
1784243902.033973,-0.007851286,-0.012075573,0.820239961,0.000277844,-0.000421763,-0.000172060,0.087898098,-0.126109600,9.813534737
1784243902.036045,-0.007851286,-0.012075573,0.820239961,0.001024078,-0.000490142,0.000007817,0.115910858,-0.111972317,9.791236877
1784243902.037980,-0.007853026,-0.012074938,0.820239961,0.000902706,-0.000067683,0.000609778,0.121606864,-0.087292150,9.775708199
1784243902.039979,-0.007853026,-0.012074938,0.820239961,0.000070127,0.000170677,0.001931269,0.117415503,-0.062206075,9.783934593
1784243902.041987,-0.007852309,-0.012074979,0.820239961,0.000001782,-0.000092246,0.002693815,0.118087515,-0.043022633,9.794370651
1784243902.043984,-0.007852309,-0.012074979,0.820239961,0.001091386,-0.000470083,0.002275296,0.134013683,-0.060017202,9.824315071
1784243902.045984,-0.007852309,-0.012074979,0.820239961,0.001468288,-0.000848502,0.001915017,0.104753613,-0.069304675,9.796878815
1784243902.047984,-0.007852643,-0.012074785,0.820239961,0.001038236,-0.000975352,0.002103562,0.113331087,-0.065760277,9.787045479
1784243902.049986,-0.007852643,-0.012074785,0.820239961,0.000622950,-0.000507579,0.002063356,0.121759489,-0.071092807,9.828714371
1784243902.051983,-0.007852297,-0.012074865,0.820239961,0.000486189,-0.000003286,0.001493687,0.123695843,-0.061082583,9.803675652
1784243902.053983,-0.007852297,-0.012074865,0.820239961,0.000349168,0.000238828,0.001023776,0.097973429,-0.070826240,9.834074974
1784243902.055990,-0.007852297,-0.012074865,0.820239961,-0.000021517,0.000471459,0.000789645,0.115951665,-0.070007659,9.812577248
1784243902.057985,-0.007852855,-0.012075413,0.820239961,-0.000164243,0.000693995,0.000547373,0.115758672,-0.050151717,9.792977333
1784243902.059993,-0.007852855,-0.012075413,0.820239961,-0.000180206,0.000709065,0.000713186,0.112260893,-0.078460209,9.810726166
1784243902.061991,-0.007853357,-0.012074779,0.820239961,-0.000193502,0.000558290,0.000796971,0.093882963,-0.077264979,9.801749229
1784243902.063993,-0.007853357,-0.012074779,0.820239961,0.000233688,0.000538829,0.000028823,0.092341118,-0.092977241,9.808819771
1784243902.065994,-0.007853357,-0.012074779,0.820239961,0.000580443,0.000452715,-0.000603317,0.127155647,-0.071879648,9.803608894
1784243902.067998,-0.007853676,-0.012075610,0.820239961,0.000469187,0.000300587,-0.000523346,0.110464007,-0.080479875,9.782914162
1784243902.070008,-0.007853676,-0.012075610,0.820239961,0.000317768,0.000440520,-0.000138871,0.120621957,-0.092024177,9.812888145
1784243902.072007,-0.007854423,-0.012075231,0.820239961,0.000334535,0.000612421,0.000250118,0.139720663,-0.109214425,9.801587105
1784243902.074006,-0.007854423,-0.012075231,0.820239961,0.000364505,0.000684125,0.000424912,0.131825179,-0.094712593,9.792706490
1784243902.076004,-0.007854423,-0.012075231,0.820239961,0.000403075,0.000557738,0.000298553,0.115561202,-0.067110650,9.783901215
1784243902.078038,-0.007854229,-0.012075420,0.820239961,0.000371520,-0.000037558,0.000185552,0.123413131,-0.049229529,9.775505066
1784243902.080015,-0.007854229,-0.012075420,0.820239961,-0.000143749,-0.000739004,0.000606409,0.135522991,-0.045372557,9.841446877
1784243902.082053,-0.007852962,-0.012075800,0.820239961,-0.000441600,-0.000817526,0.000698909,0.138394833,-0.070231535,9.803629875
1784243902.084028,-0.007852962,-0.012075800,0.820239961,0.000345557,-0.000178054,-0.000130819,0.123448923,-0.082889594,9.783359528
1784243902.086019,-0.007852962,-0.012075800,0.820239961,0.001009346,0.000251708,-0.000879739,0.137501463,-0.070188239,9.799145699
1784243902.088029,-0.007852598,-0.012076579,0.820239961,0.000712489,0.000267987,-0.001554576,0.138174281,-0.088588402,9.802166939
1784243902.090025,-0.007852598,-0.012076579,0.820239961,0.000388470,0.000335338,-0.002100205,0.066030294,-0.078385949,9.820544243
1784243902.092021,-0.007852617,-0.012074515,0.820239961,0.000458819,0.000413667,-0.001937434,0.114808828,-0.093007147,9.772525787
1784243902.094020,-0.007852617,-0.012074515,0.820239961,0.000522361,0.000018293,-0.001442270,0.137704551,-0.090774760,9.795428276
1784243902.096020,-0.007852617,-0.012074515,0.820239961,0.000368695,-0.000375350,-0.001118558,0.102779739,-0.084474206,9.791399002
1784243902.098027,-0.007853488,-0.012074605,0.820239961,0.000136457,-0.000172294,-0.001295391,0.101857983,-0.050306987,9.776822090
1784243902.100024,-0.007853488,-0.012074605,0.820239961,-0.000105928,-0.000218362,-0.001948912,0.107997291,-0.060833663,9.796936035
1784243902.102028,-0.007853411,-0.012074621,0.820239961,-0.000335681,-0.000126130,-0.002298016,0.109168239,-0.077228338,9.769035339
1784243902.104032,-0.007853411,-0.012074621,0.820239961,-0.000376394,0.000132485,-0.001702631,0.125038028,-0.062751770,9.783937454
1784243902.106031,-0.007853411,-0.012074621,0.820239961,0.000222042,-0.000012865,-0.000782363,0.139454722,-0.094797604,9.790920258
1784243902.108031,-0.007854083,-0.012075442,0.820239961,0.000999404,-0.000390317,-0.000455912,0.121815503,-0.106214009,9.789933205
1784243902.110037,-0.007854083,-0.012075442,0.820239961,0.001025320,-0.000619366,-0.000886615,0.118757859,-0.098221764,9.805673599
1784243902.112033,-0.007855096,-0.012074792,0.820239961,0.000538975,-0.000673226,-0.001128344,0.132795781,-0.052098442,9.784014702
1784243902.114034,-0.007855096,-0.012074792,0.820239961,-0.000282420,-0.000367322,-0.000996380,0.114459358,-0.044902023,9.813183784
1784243902.116035,-0.007855096,-0.012074792,0.820239961,-0.000986263,0.000161875,-0.000772343,0.080555461,-0.065096118,9.815711975
1784243902.118037,-0.007854103,-0.012073388,0.820239961,-0.000764966,-0.000126495,-0.000611723,0.112760521,-0.074821860,9.802230835
1784243902.120040,-0.007854103,-0.012073388,0.820239961,-0.000246754,-0.000912188,-0.001183321,0.131606236,-0.075466774,9.795969009
1784243902.122044,-0.007854479,-0.012074314,0.820239961,-0.000175574,-0.001356145,-0.001455082,0.148344785,-0.100844197,9.806134224
1784243902.124051,-0.007854479,-0.012074314,0.820239961,-0.000519455,-0.001337628,-0.000947759,0.126831234,-0.097540610,9.821377754
1784243902.126046,-0.007854479,-0.012074314,0.820239961,-0.000515103,-0.001199896,-0.000739549,0.092039593,-0.117646895,9.813143730
1784243902.128058,-0.007856320,-0.012073246,0.820239961,-0.000437558,-0.000972596,-0.000875874,0.092234761,-0.102327190,9.800690651
1784243902.130053,-0.007856320,-0.012073246,0.820239961,-0.000866781,-0.000620563,-0.001173488,0.116414368,-0.068281986,9.821107864
1784243902.132053,-0.007855878,-0.012073132,0.820239961,-0.001287920,-0.000345385,-0.001318157,0.137434244,-0.077202991,9.777580261
1784243902.134055,-0.007855878,-0.012073132,0.820239961,-0.001467598,-0.000039846,-0.001170035,0.136075377,-0.041317664,9.774223328
1784243902.136058,-0.007855878,-0.012073132,0.820239961,-0.001506645,0.000342964,-0.000934728,0.142479196,-0.065867253,9.812628746
1784243902.138058,-0.007854994,-0.012074141,0.820239961,-0.001552693,0.000693248,-0.000636576,0.133010358,-0.069352470,9.815734863
1784243902.140064,-0.007854994,-0.012074141,0.820239961,-0.001299482,0.000728901,-0.000347936,0.138467535,-0.101978928,9.794459343
1784243902.142067,-0.007856100,-0.012075418,0.820239902,-0.000736502,0.000625351,-0.000228045,0.148487464,-0.089991376,9.791856766
1784243902.144108,-0.007856100,-0.012075418,0.820239902,-0.000361454,0.000658067,-0.000104054,0.123947874,-0.075204059,9.835864067
1784243902.146081,-0.007856100,-0.012075418,0.820239902,-0.000577636,0.000683968,0.000509008,0.109826177,-0.058156177,9.795160294
1784243902.148074,-0.007855416,-0.012074961,0.820239961,-0.000627016,0.000718231,0.001190548,0.140911490,-0.046219818,9.824857712
1784243902.150072,-0.007855416,-0.012074961,0.820239961,-0.000407861,0.000833093,0.001254706,0.127975732,-0.040585350,9.811880112
1784243902.152077,-0.007853509,-0.012075357,0.820239961,-0.000503394,0.000564185,0.000540899,0.140437067,-0.050064482,9.799278259
1784243902.154082,-0.007853509,-0.012075357,0.820239961,-0.000469275,-0.000135037,-0.000270571,0.098376386,-0.076461524,9.806690216
1784243902.156095,-0.007853509,-0.012075357,0.820239961,0.000226071,-0.000367640,-0.000209246,0.124893486,-0.073213853,9.806287766
1784243902.158111,-0.007852726,-0.012076347,0.820239961,0.000936520,-0.000036417,0.000019060,0.126529366,-0.085433558,9.820558548
1784243902.160081,-0.007852726,-0.012076347,0.820239961,0.000422885,0.000056768,-0.000268380,0.144679427,-0.069479689,9.812607765
1784243902.162084,-0.007852898,-0.012076983,0.820239961,-0.000172838,-0.000269716,-0.000353963,0.116221510,-0.088446215,9.758659363
1784243902.164115,-0.007852898,-0.012076983,0.820239961,0.000387762,-0.000412720,-0.000017062,0.094384044,-0.071183689,9.827791214
1784243902.166091,-0.007852898,-0.012076983,0.820239961,0.000962785,-0.000071148,0.000628256,0.102855451,-0.078202747,9.791440010
1784243902.168093,-0.007852925,-0.012076196,0.820239961,0.000353023,0.000403548,0.001296557,0.122278087,-0.068115063,9.787040710
1784243902.170088,-0.007852925,-0.012076196,0.820239961,-0.000799046,0.000399885,0.001310988,0.132698148,-0.058948219,9.802352905
1784243902.172089,-0.007852975,-0.012077087,0.820239961,-0.001203844,0.000288964,0.000599516,0.139675558,-0.077654272,9.773993492
1784243902.174090,-0.007852975,-0.012077087,0.820239961,-0.000521479,0.000322619,0.000245873,0.112473547,-0.062597148,9.784824371
1784243902.176090,-0.007852975,-0.012077087,0.820239961,0.000350126,-0.000020094,0.000510299,0.093237080,-0.057841711,9.780800819
1784243902.178113,-0.007852073,-0.012076137,0.820239961,0.000897109,-0.000017595,0.000830558,0.101598658,-0.070185795,9.800456047
1784243902.180096,-0.007852073,-0.012076137,0.820239961,0.001299197,0.000360953,0.001264538,0.127990499,-0.076437525,9.812995911
1784243902.182112,-0.007852364,-0.012076193,0.820239961,0.000776660,0.000483189,0.001632693,0.126260787,-0.070632368,9.818858147
1784243902.184144,-0.007852364,-0.012076193,0.820239961,-0.000163423,0.000650929,0.001792128,0.134951040,-0.057687141,9.809983253
1784243902.186118,-0.007852364,-0.012076193,0.820239961,-0.000539093,0.000879448,0.001638582,0.089246571,-0.052954599,9.793830872
1784243902.188114,-0.007851615,-0.012075826,0.820239961,-0.000595680,0.000973909,0.001147580,0.089186855,-0.057478733,9.800077438
1784243902.190117,-0.007851615,-0.012075826,0.820239961,-0.000728513,0.000935604,0.000807200,0.113042116,-0.088304602,9.807525635
1784243902.192109,-0.007851625,-0.012076105,0.820239961,-0.001043403,0.000837059,0.000720963,0.151296437,-0.079783186,9.800442696
1784243902.194150,-0.007851625,-0.012076105,0.820239961,-0.001408841,-0.000062555,0.000869934,0.141440704,-0.076695859,9.825111389
1784243902.196119,-0.007851625,-0.012076105,0.820239961,-0.001385789,-0.000721034,0.000978900,0.135342345,-0.098977834,9.819133759
1784243902.198116,-0.007852427,-0.012076822,0.820239961,-0.000812493,0.000019429,0.000704926,0.147596374,-0.088308863,9.808902740
1784243902.200113,-0.007852427,-0.012076822,0.820239961,-0.000070268,0.000430683,0.000288519,0.126109824,-0.084792241,9.794109344
1784243902.202111,-0.007853267,-0.012077008,0.820239961,0.000499768,0.000204996,0.000469690,0.134123757,-0.089848742,9.797673225
1784243902.204115,-0.007853267,-0.012077008,0.820239961,0.001023942,0.000040517,0.000421326,0.130097643,-0.050894942,9.808678627
1784243902.206134,-0.007853267,-0.012077008,0.820239961,0.001356025,0.000247654,-0.000009304,0.118737392,-0.064440869,9.780782700
1784243902.208119,-0.007852690,-0.012077419,0.820239961,0.001022001,0.000761424,0.000219647,0.095055655,-0.054840263,9.796514511
1784243902.210117,-0.007852690,-0.012077419,0.820239961,0.000084462,0.000529773,0.000616630,0.094210036,-0.086741515,9.810655594
1784243902.212122,-0.007853246,-0.012077331,0.820239961,-0.000693819,-0.000070488,0.000993532,0.132282168,-0.095058203,9.777462006
1784243902.214119,-0.007853246,-0.012077331,0.820239961,-0.000819819,-0.000004454,0.000603689,0.125927776,-0.062823683,9.792458534
1784243902.216140,-0.007853246,-0.012077331,0.820239961,-0.000289566,0.000598239,-0.000217784,0.108114868,-0.050584622,9.804623604
1784243902.218125,-0.007852982,-0.012077318,0.820239961,0.000657715,0.001225142,-0.000146363,0.113086551,-0.046311330,9.824831009
1784243902.220128,-0.007852982,-0.012077318,0.820239961,0.001013815,0.000911027,-0.000026952,0.105024919,-0.082463466,9.819659233
1784243902.222135,-0.007853263,-0.012076915,0.820239961,0.000599987,0.000170912,-0.000503487,0.118520334,-0.081148982,9.799507141
1784243902.224138,-0.007853263,-0.012076915,0.820239961,-0.000181304,0.000323213,-0.001226635,0.113625467,-0.077521123,9.802213669
1784243902.226135,-0.007853263,-0.012076915,0.820239961,-0.000313685,0.000804337,-0.001245234,0.117233425,-0.077827483,9.775765419
1784243902.228148,-0.007854055,-0.012076962,0.820239902,0.000741665,0.000778886,-0.000681390,0.117279470,-0.073411457,9.784759521
1784243902.230141,-0.007854055,-0.012076962,0.820239902,0.001312756,0.000712907,-0.000993286,0.121871620,-0.064128548,9.794239044
1784243902.232148,-0.007853857,-0.012076573,0.820239902,0.000917323,0.000801468,-0.001527908,0.118999466,-0.081319690,9.759603500
1784243902.234148,-0.007853857,-0.012076573,0.820239902,0.000299664,0.000613896,-0.001323593,0.142710254,-0.085827753,9.783807755
1784243902.236156,-0.007853857,-0.012076573,0.820239902,-0.000458811,0.000337581,-0.001338486,0.167303830,-0.056925353,9.770565987
1784243902.238148,-0.007849734,-0.012077084,0.820248306,-0.001059982,0.000059340,-0.001421946,0.146491885,-0.045113932,9.785267830
1784243902.240151,-0.007849734,-0.012077084,0.820248306,-0.001069299,-0.000529532,-0.000888403,0.104244098,-0.037862774,9.786768913
1784243902.242152,-0.007848622,-0.012076401,0.820248306,-0.000377496,-0.000978937,-0.000354312,0.131940722,-0.084479436,9.802636147
1784243902.244156,-0.007848622,-0.012076401,0.820248306,0.000277306,-0.000767088,-0.000106403,0.131451964,-0.088031940,9.799026489
1784243902.246152,-0.007848622,-0.012076401,0.820248306,0.000612460,-0.000359130,0.000057332,0.133013383,-0.072570495,9.764157295
1784243902.248157,-0.007848739,-0.012076565,0.820248306,0.000747298,-0.000220426,-0.000203533,0.150933802,-0.071803167,9.813047409
1784243902.250151,-0.007848739,-0.012076565,0.820248306,0.000677788,-0.000620444,-0.000577147,0.110226944,-0.061377149,9.806349754
1784243902.252152,-0.007848373,-0.012076298,0.820248306,0.000770114,-0.000970159,-0.000398123,0.112333164,-0.071810745,9.820631981
1784243902.254151,-0.007848373,-0.012076298,0.820248306,0.000878277,-0.000810717,-0.000373645,0.136684775,-0.063460506,9.799636841
1784243902.256154,-0.007848373,-0.012076298,0.820248306,0.000596701,-0.000687581,-0.000861796,0.121083841,-0.055551726,9.786670685
1784243902.258163,-0.007847589,-0.012076482,0.820248306,0.000136755,-0.000757013,-0.001236753,0.116815001,-0.072719641,9.814352989
1784243902.260170,-0.007847589,-0.012076482,0.820248306,-0.000108240,-0.000791893,-0.001293053,0.122373387,-0.059257597,9.801443100
1784243902.262161,-0.007847299,-0.012076342,0.820248306,0.000009526,-0.000137634,-0.001149291,0.118401974,-0.091404386,9.792716026
1784243902.264160,-0.007847299,-0.012076342,0.820248306,0.000783131,0.000526130,-0.000482821,0.107686110,-0.050826516,9.776376724
1784243902.266166,-0.007847299,-0.012076342,0.820248306,0.001304016,0.000345936,-0.000289899,0.115797557,-0.085003056,9.779303551
1784243902.268168,-0.007847365,-0.012076395,0.820248306,0.000761370,0.000066933,-0.000855666,0.117580630,-0.084308185,9.804415703
1784243902.270166,-0.007847365,-0.012076395,0.820248306,0.000331088,0.000024613,-0.001032307,0.142086804,-0.099359408,9.797618866
1784243902.272227,-0.007847990,-0.012076885,0.820248306,0.000289385,0.000097299,-0.000907254,0.126514167,-0.087174527,9.813373566
1784243902.274219,-0.007847990,-0.012076885,0.820248306,0.000205327,0.000257274,-0.000562918,0.123327166,-0.055987101,9.780841827
1784243902.276182,-0.007847990,-0.012076885,0.820248306,-0.000002493,0.000265407,0.000012023,0.143182248,-0.047249056,9.776433945
1784243902.278227,-0.007847537,-0.012078651,0.820248306,-0.000281808,0.000146715,0.000429964,0.100124992,-0.043717202,9.798383713
1784243902.280201,-0.007847537,-0.012078651,0.820248306,-0.000644013,0.000387164,0.000537429,0.118152641,-0.075640500,9.781607628
1784243902.282197,-0.007847357,-0.012078411,0.820248306,-0.001375573,0.000625908,-0.000124797,0.092660062,-0.066954166,9.803157806
1784243902.284202,-0.007847357,-0.012078411,0.820248306,-0.001568593,0.000366951,-0.001060389,0.134684935,-0.082076997,9.774856567
1784243902.286193,-0.007847357,-0.012078411,0.820248306,-0.001204917,0.000150439,-0.001019239,0.123813786,-0.091257155,9.762234688
1784243902.288199,-0.007847998,-0.012079429,0.820248306,-0.001060973,0.000585777,-0.000625114,0.107631557,-0.092089206,9.782389641
1784243902.290218,-0.007847998,-0.012079429,0.820248306,-0.000917308,0.001049258,-0.000788416,0.106267214,-0.093431734,9.784620285
1784243902.292198,-0.007848032,-0.012077891,0.820248306,-0.001001499,0.000598299,-0.001128696,0.109669484,-0.070740424,9.800909996
1784243902.294202,-0.007848032,-0.012077891,0.820248306,-0.001066905,-0.000055599,-0.001143731,0.158907339,-0.081231162,9.801337242
1784243902.296204,-0.007848032,-0.012077891,0.820248306,-0.000478661,-0.000110818,-0.000501463,0.135112360,-0.083061337,9.786507607
1784243902.298205,-0.007849643,-0.012079886,0.820248306,0.000422397,0.000165188,0.000402179,0.109769136,-0.063874751,9.780329704
1784243902.300201,-0.007849643,-0.012079886,0.820248306,0.000718112,0.000354913,0.000608541,0.088612229,-0.069408953,9.777584076
1784243902.302199,-0.007849581,-0.012078176,0.820248306,0.000479586,0.000230468,0.000359550,0.119524546,-0.072617412,9.795079231
1784243902.304199,-0.007849581,-0.012078176,0.820248306,-0.000056935,0.000035729,0.000177005,0.128390729,-0.080878370,9.806691170
1784243902.306201,-0.007849581,-0.012078176,0.820248306,-0.000589364,0.000165708,-0.000008842,0.144256562,-0.067243680,9.813966751
1784243902.308214,-0.007849164,-0.012080726,0.820248306,-0.000522152,0.000525920,-0.000214235,0.097263418,-0.094362110,9.805677414
1784243902.310212,-0.007849164,-0.012080726,0.820248306,-0.000253876,0.001019512,-0.000290017,0.143440500,-0.060916204,9.807728767
1784243902.312210,-0.007847806,-0.012081979,0.820248306,-0.000474160,0.001541358,0.000340988,0.098106243,-0.024893165,9.801192284
1784243902.314208,-0.007847806,-0.012081979,0.820248306,-0.000910982,0.001596305,0.001484387,0.121355668,-0.032737508,9.791300774
1784243902.316209,-0.007847806,-0.012081979,0.820248306,-0.000435593,0.001290440,0.001558499,0.122172430,-0.078675359,9.760072708
1784243902.318216,-0.007847873,-0.012082261,0.820248306,0.000471837,0.000958223,0.000854594,0.099832326,-0.068316907,9.792845726
1784243902.320217,-0.007847873,-0.012082261,0.820248306,0.000283204,0.000760482,0.000485118,0.113261975,-0.071574233,9.785663605
1784243902.322215,-0.007848166,-0.012082322,0.820248306,-0.000546058,0.000174020,0.000194343,0.148969814,-0.087299824,9.790529251
1784243902.324229,-0.007848166,-0.012082322,0.820248306,-0.000827924,-0.000492336,0.000252473,0.134826154,-0.070020191,9.780315399
1784243902.326221,-0.007848166,-0.012082322,0.820248306,-0.000829061,-0.000441323,0.000514755,0.106041379,-0.073429890,9.807613373
1784243902.328387,-0.007847827,-0.012081739,0.820248306,-0.000864074,-0.000311250,0.000291097,0.095278338,-0.072840765,9.807158470
1784243902.330278,-0.007847827,-0.012081739,0.820248306,-0.001144597,-0.000428627,-0.000053941,0.125145853,-0.092195772,9.765817642
1784243902.332281,-0.007848595,-0.012082557,0.820248306,-0.001440069,-0.000462476,0.000236400,0.110998265,-0.073731236,9.778027534
1784243902.334251,-0.007848595,-0.012082557,0.820248306,-0.000930219,-0.000262513,0.000703039,0.116157018,-0.090981737,9.800336838
1784243902.336243,-0.007848595,-0.012082557,0.820248306,0.000072746,-0.000319319,0.000663768,0.135651633,-0.073031075,9.824234009
1784243902.338241,-0.007848516,-0.012082767,0.820248306,0.000564011,-0.000771770,0.000578333,0.160459846,-0.062192760,9.830602646
1784243902.340244,-0.007848516,-0.012082767,0.820248306,0.000870513,-0.000813498,0.000625928,0.148132846,-0.081137702,9.807604790
1784243902.342246,-0.007848957,-0.012083868,0.820248306,0.001260886,-0.000484498,0.000464299,0.118741527,-0.063192375,9.794241905
1784243902.344242,-0.007848957,-0.012083868,0.820248306,0.001494152,-0.000026291,0.000022757,0.101917028,-0.082162492,9.782895088
1784243902.346240,-0.007848957,-0.012083868,0.820248306,0.001679669,0.000178468,0.000169751,0.130614117,-0.083902940,9.786947250
1784243902.348253,-0.007849961,-0.012083824,0.820248306,0.001828409,-0.000016491,0.000599872,0.124763913,-0.046778407,9.806458473
1784243902.350252,-0.007849961,-0.012083824,0.820248306,0.001814263,0.000115669,0.000445196,0.106843844,-0.046732489,9.769227982
1784243902.352260,-0.007848652,-0.012083285,0.820248306,0.001479050,0.000286784,0.000440728,0.110924274,-0.078773282,9.794134140
1784243902.354252,-0.007848652,-0.012083285,0.820248306,0.001089416,0.000288451,0.000201884,0.152458042,-0.098277755,9.752802849
1784243902.356252,-0.007848652,-0.012083285,0.820248306,0.000769524,0.000202826,-0.000423948,0.129749581,-0.081200495,9.786515236
1784243902.358259,-0.007848830,-0.012083747,0.820248306,0.000661806,0.000048437,-0.000771863,0.092313901,-0.058033708,9.809492111
1784243902.360263,-0.007848830,-0.012083747,0.820248306,0.000260591,0.000261329,-0.000681031,0.106450312,-0.078207411,9.785614967
1784243902.362313,-0.007849297,-0.012083261,0.820248306,-0.000537805,0.000474656,-0.000416771,0.138732359,-0.079625383,9.800880432
1784243902.364278,-0.007849297,-0.012083261,0.820248306,-0.000797788,0.000214384,-0.000514894,0.124671310,-0.091583446,9.806617737
1784243902.366272,-0.007849297,-0.012083261,0.820248306,-0.000567957,0.000256461,-0.000945455,0.132736817,-0.093396097,9.794958115
1784243902.368271,-0.007849974,-0.012083523,0.820248306,-0.000414405,0.000683025,-0.001220826,0.123142526,-0.106787339,9.805174828
1784243902.370262,-0.007849974,-0.012083523,0.820248306,-0.000362804,0.000454003,-0.001352328,0.127868116,-0.086724736,9.810688019
1784243902.372258,-0.007849658,-0.012084159,0.820248306,-0.000205352,-0.000273765,-0.001180282,0.143305659,-0.033712018,9.825836182
1784243902.374259,-0.007849658,-0.012084159,0.820248306,-0.000161130,-0.000500954,-0.000439612,0.114432305,-0.047141831,9.813171387
1784243902.376253,-0.007849658,-0.012084159,0.820248306,-0.000341661,-0.000373410,-0.000350041,0.122243345,-0.032015249,9.814170837
1784243902.378272,-0.007848127,-0.012084268,0.820248306,-0.000240067,-0.000620456,-0.001026438,0.108168893,-0.045294929,9.816762924
1784243902.380272,-0.007848127,-0.012084268,0.820248306,0.000303182,-0.000877594,-0.001500819,0.106732905,-0.053687200,9.802360535
1784243902.382278,-0.007847380,-0.012083605,0.820248306,0.000808080,-0.000976871,-0.001719374,0.118961208,-0.081621766,9.802192688
1784243902.384276,-0.007847380,-0.012083605,0.820248306,0.000725403,-0.000848005,-0.001607406,0.108933985,-0.095693305,9.782815933
1784243902.386274,-0.007847380,-0.012083605,0.820248306,0.000433195,-0.000446304,-0.001416182,0.098826729,-0.114854597,9.786269188
1784243902.388280,-0.007848834,-0.012083269,0.820248306,0.000527867,-0.000103983,-0.001113645,0.098221816,-0.090650022,9.785975456
1784243902.390281,-0.007848834,-0.012083269,0.820248306,0.000450382,-0.000067689,-0.001111291,0.145748794,-0.094376080,9.783306122
1784243902.392278,-0.007850013,-0.012084356,0.820248306,-0.000224271,-0.000393572,-0.001274989,0.142234474,-0.087251745,9.795903206
1784243902.394277,-0.007850013,-0.012084356,0.820248306,-0.000530668,-0.000201985,-0.001229090,0.128868505,-0.043875292,9.768819809
1784243902.396280,-0.007850013,-0.012084356,0.820248306,-0.000229940,-0.000156512,-0.001448070,0.114125274,-0.035886176,9.806069374
1784243902.398280,-0.007847298,-0.012083449,0.820248306,0.000198833,-0.000791727,-0.001592934,0.127562106,-0.075866170,9.796410561
1784243902.400280,-0.007847298,-0.012083449,0.820248306,0.000605007,-0.000826715,-0.001172431,0.095344670,-0.067859143,9.799570084
1784243902.402285,-0.007846703,-0.012082474,0.820248306,0.000725715,-0.000258443,-0.000520084,0.118088655,-0.079792984,9.798617363
1784243902.404283,-0.007846703,-0.012082474,0.820248306,0.000833464,0.000229755,-0.000441552,0.139022186,-0.057884783,9.767394066
1784243902.406286,-0.007846703,-0.012082474,0.820248306,0.000784799,0.000445214,-0.000782464,0.128651813,-0.059770148,9.799202919
1784243902.408295,-0.007845928,-0.012083601,0.820248306,0.000419304,0.000226421,-0.000816812,0.107104264,-0.059977122,9.804114342
1784243902.410296,-0.007845928,-0.012083601,0.820248306,0.000345873,-0.000423017,-0.000519325,0.083764434,-0.061762162,9.782112122
1784243902.412292,-0.007845119,-0.012081655,0.820248306,0.000326568,-0.001129045,-0.000538526,0.110482723,-0.039500184,9.816802979
1784243902.414340,-0.007845119,-0.012081655,0.820248306,-0.000116742,-0.001189322,-0.000460407,0.104290120,-0.071036726,9.789245605
1784243902.416309,-0.007845119,-0.012081655,0.820248306,-0.000380927,-0.000714770,0.000068831,0.124234818,-0.090265617,9.811109543
1784243902.418305,-0.007845882,-0.012083161,0.820248306,-0.000556710,-0.000565353,0.000146428,0.088929221,-0.078964964,9.797698975
1784243902.420323,-0.007845882,-0.012083161,0.820248306,-0.000954828,-0.000415712,-0.000104127,0.150101036,-0.068039455,9.789308548
1784243902.422346,-0.007845533,-0.012084898,0.820248306,-0.000993198,-0.000260619,0.000562439,0.141907588,-0.077368587,9.792827606
1784243902.424315,-0.007845533,-0.012084898,0.820248306,-0.000518309,-0.000406707,0.001318157,0.110153973,-0.104406238,9.808763504
1784243902.426308,-0.007845533,-0.012084898,0.820248306,0.000064844,-0.000510154,0.000966493,0.094438002,-0.105510741,9.803361893
1784243902.428311,-0.007847222,-0.012083012,0.820248306,0.000037637,-0.000580749,0.000727670,0.155504048,-0.065935411,9.798742294
1784243902.430329,-0.007847222,-0.012083012,0.820248306,-0.000502759,-0.000232021,0.000789766,0.139803663,-0.065295763,9.800076485
1784243902.432317,-0.007846850,-0.012084421,0.820248306,-0.000911436,0.000345064,0.001017296,0.112153806,-0.051036619,9.797899246
1784243902.434312,-0.007846850,-0.012084421,0.820248306,-0.000907027,0.000381346,0.001650736,0.098081484,-0.065920554,9.774028778
1784243902.436317,-0.007846850,-0.012084421,0.820248306,-0.000510595,-0.000080560,0.001803214,0.108666152,-0.080075696,9.792330742
1784243902.438313,-0.007846205,-0.012082643,0.820248306,-0.000221014,-0.000520075,0.001101388,0.138323247,-0.075254492,9.817047119
1784243902.440314,-0.007846205,-0.012082643,0.820248306,0.000122717,-0.000353276,0.000195900,0.124697961,-0.089346819,9.807080269
1784243902.442316,-0.007847168,-0.012083273,0.820248306,0.000685969,0.000373957,0.000009480,0.132371992,-0.085838601,9.803973198
1784243902.444321,-0.007847168,-0.012083273,0.820248306,0.000733315,0.000904110,0.000450758,0.147921145,-0.061834641,9.802795410
1784243902.446339,-0.007847168,-0.012083273,0.820248306,0.000741127,0.000551092,0.001020789,0.134953618,-0.057261430,9.813125610
1784243902.448326,-0.007846402,-0.012084411,0.820248306,0.001124382,0.000126972,0.001580135,0.131523445,-0.043798864,9.816347122
1784243902.450328,-0.007846402,-0.012084411,0.820248306,0.001411553,0.000468325,0.001594109,0.135039851,-0.051717386,9.789399147
1784243902.452323,-0.007844866,-0.012084990,0.820248306,0.001442670,0.000883345,0.001207792,0.104388870,-0.062557265,9.793783188
1784243902.454329,-0.007844866,-0.012084990,0.820248306,0.001156388,0.001079912,0.001105803,0.125726253,-0.079814412,9.787863731
1784243902.456326,-0.007844866,-0.012084990,0.820248306,0.000675410,0.001065382,0.000813571,0.113464810,-0.090947233,9.800335884
1784243902.458333,-0.007845559,-0.012083521,0.820248306,0.000323531,0.000823481,0.000166149,0.138074398,-0.060297500,9.793381691
1784243902.460343,-0.007845559,-0.012083521,0.820248306,0.000536666,0.000658203,0.000020248,0.123560220,-0.072284795,9.804051399
1784243902.462336,-0.007845711,-0.012084291,0.820248306,0.000652284,0.000336805,0.000472384,0.106661089,-0.095896669,9.815539360
1784243902.464333,-0.007845711,-0.012084291,0.820248306,0.000336276,-0.000196899,0.000456471,0.110707924,-0.096691713,9.794019699
1784243902.466337,-0.007845711,-0.012084291,0.820248306,0.000668218,-0.000517436,0.000067064,0.119766042,-0.088848338,9.808872223
1784243902.468336,-0.007846263,-0.012084887,0.820248306,0.001291515,-0.000435390,0.000489770,0.110325851,-0.055327896,9.774557114
1784243902.470339,-0.007846263,-0.012084887,0.820248306,0.001241503,-0.000137191,0.000960701,0.143679887,-0.078379720,9.805824280
1784243902.472340,-0.007846546,-0.012086269,0.820248306,0.000680254,-0.000125639,0.000543613,0.166444257,-0.052968055,9.782695770
1784243902.474349,-0.007846546,-0.012086269,0.820248306,0.000416414,-0.000117792,0.000077530,0.162250057,-0.065494195,9.787543297
1784243902.476348,-0.007846546,-0.012086269,0.820248306,0.000366870,-0.000136151,0.000478210,0.112736061,-0.076635949,9.805357933
1784243902.478344,-0.007846248,-0.012086109,0.820248306,0.000039989,-0.000185266,0.001238787,0.140389696,-0.093296699,9.767168999
1784243902.480344,-0.007846248,-0.012086109,0.820248306,-0.000178477,-0.000164715,0.001378013,0.109888300,-0.091202945,9.779706001
1784243902.482353,-0.007847429,-0.012085935,0.820248306,-0.000517551,-0.000180592,0.000955478,0.086421669,-0.062883355,9.809006691
1784243902.484356,-0.007847429,-0.012085935,0.820248306,-0.000311063,-0.000123169,0.000341889,0.106815934,-0.048168585,9.782221794
1784243902.486360,-0.007847429,-0.012085935,0.820248306,0.000433229,-0.000357286,-0.000177905,0.127872601,-0.049909860,9.800163269
1784243902.488351,-0.007847429,-0.012085935,0.820248306,0.000864298,-0.000760961,-0.000503889,0.127872601,-0.049909860,9.800163269
1784243902.490372,-0.007846386,-0.012085868,0.820248306,0.000732495,-0.000474474,-0.000702736,0.115308478,-0.086531959,9.806193352
1784243902.492395,-0.007846386,-0.012085868,0.820248306,0.000190647,0.000314789,-0.000808964,0.115308478,-0.086531959,9.806193352
1784243902.494375,-0.007846967,-0.012086052,0.820248306,-0.000210778,0.000295193,-0.000781362,0.114190578,-0.068097427,9.799136162
1784243902.496372,-0.007846967,-0.012086052,0.820248306,-0.000509906,-0.000313647,-0.000656266,0.114190578,-0.068097427,9.799136162
1784243902.498394,-0.007847232,-0.012085819,0.820248306,-0.000487740,-0.000274345,-0.000471805,0.108962074,-0.093850590,9.775652885
1784243902.500373,-0.007847595,-0.012085603,0.820248306,-0.000048903,0.000449816,-0.000026000,0.110210143,-0.063130833,9.800957680
1784243902.502372,-0.007847595,-0.012085603,0.820248306,0.000161246,0.000923326,0.000496860,0.123425156,-0.048324067,9.774166107
1784243902.504373,-0.007847595,-0.012085603,0.820248306,0.000166303,0.000928658,0.000749267,0.144750208,-0.064463086,9.800086021
1784243902.506374,-0.007847195,-0.012087837,0.820248306,0.000388520,0.001091735,0.001006585,0.116797619,-0.077719979,9.761418343
1784243902.508381,-0.007847195,-0.012087837,0.820248306,0.000639542,0.001136359,0.001392337,0.123094074,-0.073632471,9.805387497
1784243902.510374,-0.007846639,-0.012088384,0.820248306,0.001089788,0.000771220,0.001472992,0.111956045,-0.066782035,9.807213783
1784243902.512376,-0.007846639,-0.012088384,0.820248306,0.001310679,0.000527362,0.001044303,0.094590828,-0.057798542,9.772284508
1784243902.514375,-0.007846639,-0.012088384,0.820248306,0.000826309,0.000808423,0.000444709,0.116187751,-0.051933415,9.790725708
1784243902.516378,-0.007845026,-0.012087723,0.820248306,-0.000248379,0.001129394,-0.000064796,0.140348375,-0.058464456,9.783533096
1784243902.518385,-0.007845026,-0.012087723,0.820248306,-0.000713234,0.000623372,-0.000692307,0.136368021,-0.051471088,9.815405846
1784243902.520384,-0.007844582,-0.012089032,0.820248306,-0.000260437,-0.000096665,-0.001005728,0.127525091,-0.079805605,9.783382416
1784243902.522378,-0.007844582,-0.012089032,0.820248306,0.000106509,-0.000461715,-0.000890119,0.127525091,-0.079805605,9.783382416
1784243902.524385,-0.007844582,-0.012089032,0.820248306,0.000068426,-0.000544365,-0.000805364,0.107793309,-0.114623375,9.800625801
1784243902.526390,-0.007845436,-0.012089575,0.820248306,0.000118351,-0.000119213,-0.000776897,0.110184662,-0.064547859,9.811261177
1784243902.528399,-0.007845436,-0.012089575,0.820248306,0.000589664,0.000258477,-0.000863400,0.113846771,-0.058347829,9.814890862
1784243902.530394,-0.007844510,-0.012089822,0.820248306,0.001107176,-0.000080230,-0.000929560,0.128668740,-0.056799758,9.822536469
1784243902.532390,-0.007844510,-0.012089822,0.820248306,0.001755694,-0.000311572,-0.001031395,0.116397433,-0.071252368,9.797774315
1784243902.534388,-0.007844510,-0.012089822,0.820248306,0.002140315,-0.000315060,-0.001447785,0.153726429,-0.064155549,9.803684235
1784243902.536448,-0.007844053,-0.012091083,0.820248306,0.001871761,-0.000922993,-0.001863676,0.127288952,-0.099906631,9.775185585
1784243902.538395,-0.007844053,-0.012091083,0.820248306,0.001730250,-0.001314222,-0.001877446,0.113577709,-0.080329716,9.819231987
1784243902.540397,-0.007844413,-0.012091042,0.820248306,0.001793423,-0.001136917,-0.001252824,0.108535528,-0.090833120,9.793156624
1784243902.542399,-0.007844413,-0.012091042,0.820248306,0.001062594,-0.000857927,-0.000383002,0.119320899,-0.090840727,9.774785995
1784243902.544399,-0.007844413,-0.012091042,0.820248306,-0.000210409,-0.000645040,-0.000021245,0.124333613,-0.082596220,9.803538322
1784243902.546396,-0.007844751,-0.012091011,0.820248306,-0.000957654,-0.000651122,-0.000209616,0.132021517,-0.078573272,9.791016579
1784243902.548401,-0.007844751,-0.012091011,0.820248306,-0.001323950,-0.000874459,-0.000185313,0.114534721,-0.077033781,9.795043945
1784243902.550408,-0.007845009,-0.012091461,0.820248306,-0.001610825,-0.001146930,0.000156681,0.125900328,-0.065066665,9.792891502
1784243902.552410,-0.007845009,-0.012091461,0.820248306,-0.001238063,-0.001133491,0.000046888,0.135136306,-0.079630263,9.808050156
1784243902.554407,-0.007845009,-0.012091461,0.820248306,-0.000404816,-0.001074099,-0.000302702,0.164384246,-0.072464935,9.818882942
1784243902.556415,-0.007845197,-0.012092567,0.820248306,0.000343993,-0.001267127,-0.000432104,0.123132676,-0.072517149,9.774458885
1784243902.558414,-0.007845197,-0.012092567,0.820248306,0.000637787,-0.001173920,-0.000056122,0.096977510,-0.079697654,9.823256493
1784243902.560407,-0.007845395,-0.012091718,0.820248306,0.000566572,-0.000707626,0.000327854,0.142920941,-0.067143761,9.802309036
1784243902.562412,-0.007845395,-0.012091718,0.820248306,0.000406024,-0.000489769,0.000119326,0.132236421,-0.097850882,9.792238235
1784243902.564410,-0.007845395,-0.012091718,0.820248306,0.000215427,-0.000456152,-0.000051449,0.116091028,-0.095150106,9.819588661
1784243902.566418,-0.007847060,-0.012091869,0.820248306,0.000220670,-0.000417099,0.000131333,0.130474716,-0.057950418,9.792043686
1784243902.568415,-0.007847060,-0.012091869,0.820248306,0.000112223,-0.000729644,0.000298513,0.123320162,-0.053610936,9.824793816
1784243902.570414,-0.007846202,-0.012092173,0.820248306,-0.000638464,-0.001254636,0.000182905,0.128921226,-0.074564964,9.800006866
1784243902.572450,-0.007846202,-0.012092173,0.820248306,-0.001269748,-0.001130871,-0.000115249,0.134140342,-0.087691598,9.809342384
1784243902.574426,-0.007846202,-0.012092173,0.820248306,-0.001040496,-0.000832703,-0.000239939,0.113424525,-0.094102040,9.803004265
1784243902.576423,-0.007847277,-0.012092084,0.820248306,-0.000261176,-0.000768189,0.000012332,0.127194822,-0.070354521,9.778063774
1784243902.578423,-0.007847277,-0.012092084,0.820248306,0.000614917,-0.000634410,0.000179031,0.121688135,-0.041766070,9.800209999
1784243902.580422,-0.007845812,-0.012092268,0.820248306,0.000529257,-0.000688485,-0.000134768,0.092913352,-0.047123045,9.786249161
1784243902.582439,-0.007845812,-0.012092268,0.820248306,-0.000186729,-0.001007822,-0.000528433,0.118645087,-0.070032619,9.811233521
1784243902.584439,-0.007845812,-0.012092268,0.820248306,-0.000039579,-0.001230662,-0.000651629,0.109961383,-0.084547125,9.788716316
1784243902.586433,-0.007846877,-0.012091493,0.820248306,0.000703622,-0.001094092,-0.000702597,0.123945914,-0.078866869,9.783834457
1784243902.588428,-0.007846877,-0.012091493,0.820248306,0.000936648,-0.001098939,-0.000794954,0.121017963,-0.058503412,9.823863029
1784243902.590458,-0.007846522,-0.012091767,0.820248306,0.000508897,-0.001080796,-0.000411768,0.097201049,-0.063748747,9.785249710
1784243902.592451,-0.007846522,-0.012091767,0.820248306,0.000000468,-0.000797683,0.000229606,0.131857172,-0.091217935,9.805282593
1784243902.594437,-0.007846522,-0.012091767,0.820248306,-0.000262762,-0.000753479,0.000515590,0.130040854,-0.091770083,9.823210716
1784243902.596438,-0.007846930,-0.012093082,0.820248306,-0.000255540,-0.000775651,0.000435110,0.110491283,-0.075806685,9.818810463
1784243902.598449,-0.007846930,-0.012093082,0.820248306,-0.000136518,-0.000289494,0.000451668,0.123795569,-0.052190132,9.813146591
1784243902.600447,-0.007845962,-0.012093255,0.820248306,-0.000501190,0.000211092,0.000860969,0.086754426,-0.073125444,9.799527168
1784243902.602470,-0.007845962,-0.012093255,0.820248306,-0.001151714,0.000111602,0.001210098,0.092535831,-0.076850638,9.808923721
1784243902.604458,-0.007845962,-0.012093255,0.820248306,-0.000937665,0.000016585,0.000996056,0.115319639,-0.050069660,9.782217979
1784243902.606446,-0.007845680,-0.012092082,0.820248306,-0.000272501,0.000212086,0.000806308,0.138765857,-0.042581573,9.758077621
1784243902.608448,-0.007845680,-0.012092082,0.820248306,0.000103845,0.000496346,0.001210252,0.123501986,-0.040422928,9.797082901
1784243902.610448,-0.007843961,-0.012092117,0.820248306,0.000320892,0.000434165,0.001484878,0.082681574,-0.077804126,9.771696091
1784243902.612448,-0.007843961,-0.012092117,0.820248306,0.000108260,-0.000488100,0.001516998,0.140308857,-0.098392807,9.790899277
1784243902.614477,-0.007843961,-0.012092117,0.820248306,-0.000374146,-0.001406758,0.001267725,0.130112648,-0.089987412,9.761353493
1784243902.616457,-0.007845453,-0.012092538,0.820248306,-0.000355236,-0.001287576,0.001018906,0.118792556,-0.061168421,9.761527061
1784243902.618462,-0.007845453,-0.012092538,0.820248306,0.000133841,-0.000632450,0.001256758,0.094606377,-0.055244319,9.791131973
1784243902.620459,-0.007844714,-0.012091563,0.820248306,0.000324796,-0.000457630,0.001139253,0.146650374,-0.058385964,9.761121750
1784243902.622457,-0.007844714,-0.012091563,0.820248306,0.000207981,-0.000684732,0.000599976,0.146650374,-0.058385964,9.761121750
1784243902.624462,-0.007844714,-0.012091563,0.820248306,0.000142888,-0.000617949,0.000461168,0.136945158,-0.078731902,9.804471016
1784243902.626456,-0.007845309,-0.012091833,0.820248306,0.000003879,-0.000623859,0.000612325,0.131333798,-0.060290758,9.804583549
1784243902.628468,-0.007845309,-0.012091833,0.820248306,0.000027022,-0.000792494,0.000884189,0.118008122,-0.048512630,9.810475349
1784243902.630462,-0.007844360,-0.012091709,0.820248306,-0.000064096,-0.000860402,0.001118477,0.119580358,-0.066908382,9.811254501
1784243902.632472,-0.007844360,-0.012091709,0.820248306,-0.000688031,-0.000651430,0.001217501,0.118868798,-0.088430218,9.814703941
1784243902.634466,-0.007844360,-0.012091709,0.820248306,-0.000816268,-0.000360491,0.001579758,0.129335389,-0.076464303,9.814341545
1784243902.636466,-0.007845419,-0.012092180,0.820248306,0.000137960,-0.000267283,0.001754403,0.140662685,-0.066826031,9.824724197
1784243902.638473,-0.007845419,-0.012092180,0.820248306,0.001124738,-0.000073987,0.001467601,0.123655960,-0.064234212,9.805895805
1784243902.640468,-0.007845131,-0.012092119,0.820248306,0.001263694,-0.000122919,0.000931757,0.122351393,-0.061862692,9.789770126
1784243902.642467,-0.007845131,-0.012092119,0.820248306,0.001021284,-0.000120190,0.000757690,0.100799829,-0.062101461,9.799161911
1784243902.644469,-0.007845131,-0.012092119,0.820248306,0.000722097,0.000365779,0.001174940,0.109089084,-0.045531817,9.785379410
1784243902.646485,-0.007843626,-0.012091660,0.820248306,0.000107700,0.000727397,0.000936760,0.108819313,-0.069140211,9.766396523
1784243902.648478,-0.007843626,-0.012091660,0.820248306,-0.000305194,0.000811683,0.000563736,0.118113235,-0.079599023,9.771270752
1784243902.650482,-0.007844065,-0.012091829,0.820248306,0.000169152,0.000701406,0.000508888,0.118903488,-0.088966832,9.764038086
1784243902.652480,-0.007844065,-0.012091829,0.820248306,0.001015970,0.000095459,0.000177971,0.114371948,-0.051265694,9.826146126
1784243902.654478,-0.007844065,-0.012091829,0.820248306,0.000980822,-0.000464487,-0.000137002,0.112261526,-0.041270509,9.810516357
1784243902.656478,-0.007842413,-0.012091334,0.820248306,0.000542620,-0.000527186,-0.000166618,0.150293261,-0.088711828,9.797694206
1784243902.658484,-0.007842413,-0.012091334,0.820248306,0.000566533,-0.000595003,-0.000115565,0.123832025,-0.087060533,9.802164078
1784243902.660502,-0.007842789,-0.012090955,0.820248306,0.000510640,-0.000751169,-0.000151291,0.121703424,-0.079235211,9.776656151
1784243902.662552,-0.007842789,-0.012090955,0.820248306,0.000204991,-0.000233544,0.000060453,0.123687714,-0.097926088,9.818232536
1784243902.664524,-0.007842789,-0.012090955,0.820248306,-0.000139115,0.000612938,0.000199076,0.136693776,-0.062173855,9.807715416
1784243902.666522,-0.007842388,-0.012092032,0.820248306,-0.000195964,0.000672073,-0.000117928,0.106455036,-0.076549113,9.804454803
1784243902.668507,-0.007842388,-0.012092032,0.820248306,-0.000133385,0.000300048,-0.000351009,0.091993973,-0.046879802,9.816736221
1784243902.670499,-0.007841030,-0.012090788,0.820248306,-0.000416021,-0.000132077,-0.000088982,0.118535176,-0.080221258,9.795028687
1784243902.672500,-0.007841030,-0.012090788,0.820248306,-0.000729679,-0.000391384,0.000047884,0.123209782,-0.100582652,9.814628601
1784243902.674501,-0.007841030,-0.012090788,0.820248306,-0.000537930,-0.000258508,-0.000229038,0.141168356,-0.063139983,9.809506416
1784243902.676504,-0.007840237,-0.012091542,0.820248306,-0.000201168,-0.000290935,-0.000250661,0.111719370,-0.088102929,9.781521797
1784243902.678601,-0.007840237,-0.012091542,0.820248306,-0.000175501,-0.000546622,-0.000195848,0.082663223,-0.077543780,9.798150063
1784243902.680591,-0.007840611,-0.012089675,0.820248306,-0.000715593,-0.000635095,-0.000445090,0.111180030,-0.094486281,9.798068047
1784243902.682561,-0.007840611,-0.012089675,0.820248306,-0.001358712,-0.000320530,-0.000354167,0.110640898,-0.062873043,9.826964378
1784243902.684548,-0.007840611,-0.012089675,0.820248306,-0.001026095,0.000404409,-0.000356104,0.117362618,-0.066676140,9.782560349
1784243902.686547,-0.007840688,-0.012089304,0.820248306,0.000085237,0.000891246,-0.001024280,0.139516428,-0.051857546,9.801058769
1784243902.688531,-0.007840688,-0.012089304,0.820248306,0.000764636,0.000922989,-0.001458890,0.142917186,-0.030799100,9.794919968
1784243902.690541,-0.007838485,-0.012089845,0.820248365,0.000496728,0.000770361,-0.001127825,0.103260435,-0.080985300,9.803976059
1784243902.692527,-0.007838485,-0.012089845,0.820248365,-0.000118229,0.000356053,-0.000618227,0.079853617,-0.087351702,9.796291351
1784243902.694522,-0.007838485,-0.012089845,0.820248365,-0.000653152,0.000449050,0.000098057,0.166459590,-0.088410422,9.789194107
1784243902.696514,-0.007840054,-0.012091389,0.820248306,-0.000821099,0.000929162,0.000496149,0.171602145,-0.069414839,9.818014145
1784243902.698523,-0.007840054,-0.012091389,0.820248306,-0.000912264,0.000565809,-0.000391137,0.144876793,-0.088490583,9.839385986
1784243902.700518,-0.007840627,-0.012092452,0.820248306,-0.001145290,-0.000022076,-0.000877114,0.144370958,-0.095420100,9.806612968
1784243902.702528,-0.007840627,-0.012092452,0.820248306,-0.000750087,0.000115111,-0.000505023,0.119571954,-0.067785233,9.808559418
1784243902.704521,-0.007840627,-0.012092452,0.820248306,0.000065559,0.000515679,-0.000285600,0.137415543,-0.077755876,9.792372704
1784243902.706524,-0.007841562,-0.012093191,0.820248306,0.000204451,0.000471408,-0.000290815,0.119996831,-0.070005350,9.804960251
1784243902.708526,-0.007841562,-0.012093191,0.820248306,-0.000023237,0.000066380,-0.000567991,0.103405423,-0.106083222,9.804711342
1784243902.710533,-0.007843056,-0.012092372,0.820248306,-0.000241549,0.000003995,-0.000461817,0.111920178,-0.072738700,9.762790680
1784243902.712521,-0.007843056,-0.012092372,0.820248306,-0.000507204,0.000279478,0.000303117,0.129272059,-0.046263929,9.788979530
1784243902.714523,-0.007843056,-0.012092372,0.820248306,-0.000450197,0.000208360,0.000714833,0.153909758,-0.049334675,9.798399925
1784243902.716525,-0.007842812,-0.012094044,0.820248306,-0.000339445,-0.000219633,0.000597586,0.132005468,-0.041920561,9.803357124
1784243902.718536,-0.007842812,-0.012094044,0.820248306,0.000157710,-0.000464248,0.000567364,0.114342481,-0.056361411,9.786660194
1784243902.720531,-0.007842434,-0.012094443,0.820248306,0.000739239,-0.000446157,0.000438480,0.127565786,-0.076647624,9.780263901
1784243902.722531,-0.007842434,-0.012094443,0.820248306,0.000963507,-0.000484605,0.000307880,0.137029976,-0.072793946,9.788370132
1784243902.724542,-0.007842434,-0.012094443,0.820248306,0.001400779,-0.000211130,0.000467580,0.112811841,-0.071174569,9.793288231
1784243902.726535,-0.007842483,-0.012094200,0.820248306,0.001095216,0.000752007,0.000388614,0.099032916,-0.060642369,9.786169052
1784243902.728553,-0.007842483,-0.012094200,0.820248306,0.000024082,0.001483337,-0.000085286,0.100019626,-0.052654162,9.795187950
1784243902.730541,-0.007841351,-0.012093158,0.820248306,-0.000435761,0.001597448,-0.000233770,0.112336263,-0.073002003,9.799104691
1784243902.732540,-0.007841351,-0.012093158,0.820248306,0.000073213,0.001271732,0.000270885,0.142326176,-0.116822921,9.795712471
1784243902.734540,-0.007841351,-0.012093158,0.820248306,0.000680043,0.001122012,0.000621332,0.141122639,-0.107169561,9.763494492
1784243902.736545,-0.007843618,-0.012095026,0.820248306,0.000691242,0.001200347,0.000425693,0.105231538,-0.069484949,9.758320808
1784243902.738551,-0.007843618,-0.012095026,0.820248306,0.000697753,0.001148218,0.000481131,0.095491923,-0.093344621,9.791784286
1784243902.740554,-0.007844037,-0.012093914,0.820248306,0.000645310,0.000963324,0.001098266,0.093896426,-0.076753423,9.792785645
1784243902.742554,-0.007844037,-0.012093914,0.820248306,0.000219791,0.000200733,0.001886713,0.081595108,-0.053447910,9.813995361
1784243902.744555,-0.007844037,-0.012093914,0.820248306,-0.000633049,-0.000490180,0.002008176,0.116730526,-0.080681197,9.799955368
1784243902.746554,-0.007844570,-0.012093558,0.820248306,-0.001554617,-0.000517194,0.001268454,0.125798255,-0.071951427,9.816160202
1784243902.748560,-0.007844570,-0.012093558,0.820248306,-0.001552982,-0.000236262,0.000425438,0.107659698,-0.088219710,9.805278778
1784243902.750562,-0.007845409,-0.012093163,0.820248306,-0.001009045,0.000050988,0.000065357,0.136904702,-0.082293332,9.801309586
1784243902.752557,-0.007845409,-0.012093163,0.820248306,-0.000760700,0.000060973,0.000271044,0.115498602,-0.036093839,9.769753456
1784243902.754560,-0.007845409,-0.012093163,0.820248306,-0.000691945,-0.000149965,0.000979097,0.137600601,-0.061705593,9.803235054
1784243902.756563,-0.007843939,-0.012093754,0.820248306,-0.000442724,-0.000270113,0.001549564,0.119498238,-0.074040793,9.806277275
1784243902.758561,-0.007843939,-0.012093754,0.820248306,-0.000244149,-0.000553047,0.001512787,0.109588355,-0.077459835,9.800865173
1784243902.760595,-0.007843805,-0.012093199,0.820248306,-0.000224701,-0.000684375,0.001251539,0.129752338,-0.080368161,9.795487404
1784243902.762576,-0.007843805,-0.012093199,0.820248306,-0.000063885,-0.000513964,0.001442027,0.136434391,-0.046489466,9.807815552
1784243902.764573,-0.007843805,-0.012093199,0.820248306,-0.000091022,-0.000317376,0.001761487,0.140388116,-0.052882612,9.817641258
1784243902.766565,-0.007842707,-0.012094156,0.820248306,-0.000778596,-0.000164085,0.001523859,0.114768401,-0.058978621,9.775883675
1784243902.768574,-0.007842707,-0.012094156,0.820248306,-0.001680785,-0.000372184,0.001366382,0.092756078,-0.097707063,9.780097008
1784243902.770574,-0.007843296,-0.012093276,0.820248306,-0.001942053,-0.000602593,0.001667043,0.136077553,-0.075648271,9.813454628
1784243902.772580,-0.007843296,-0.012093276,0.820248306,-0.001947712,-0.000465010,0.001653393,0.137464166,-0.072914161,9.804509163
1784243902.774580,-0.007843296,-0.012093276,0.820248306,-0.001766425,-0.000092476,0.000941240,0.125412390,-0.068612806,9.788385391
1784243902.776576,-0.007843631,-0.012094111,0.820248306,-0.001292043,0.000084669,0.000512723,0.073640279,-0.043467019,9.810913086
1784243902.778580,-0.007843631,-0.012094111,0.820248306,-0.000963934,0.000285461,0.000273131,0.105822712,-0.055397592,9.792485237
1784243902.780578,-0.007842713,-0.012094039,0.820248306,-0.000613034,0.000771739,0.000227026,0.134025022,-0.060738236,9.799652100
1784243902.782617,-0.007842713,-0.012094039,0.820248306,-0.000447025,0.001233952,0.000356364,0.127547145,-0.040420622,9.789463997
1784243902.784599,-0.007842713,-0.012094039,0.820248306,-0.000383555,0.001335529,0.000738013,0.131822929,-0.059571918,9.765583992
1784243902.786594,-0.007842457,-0.012094733,0.820248306,-0.000342585,0.001028612,0.001501309,0.118699692,-0.067169972,9.786595345
1784243902.788591,-0.007842457,-0.012094733,0.820248306,-0.000419975,0.000756833,0.001298747,0.102717690,-0.090637550,9.776116371
1784243902.790596,-0.007842893,-0.012093443,0.820248306,-0.000255303,0.000759434,0.000340320,0.087326787,-0.063644513,9.788379669
1784243902.792592,-0.007842893,-0.012093443,0.820248306,0.000061645,0.000666885,0.000020991,0.130895391,-0.060608961,9.787096977
1784243902.794593,-0.007842893,-0.012093443,0.820248306,-0.000180039,0.000458131,0.000183964,0.122558028,-0.043210484,9.812754631
1784243902.796590,-0.007841331,-0.012094047,0.820248306,-0.000802212,0.000728389,-0.000273325,0.111554809,-0.062754177,9.808585167
1784243902.798604,-0.007841331,-0.012094047,0.820248306,-0.000874968,0.000923269,-0.000948846,0.120635137,-0.093135945,9.780153275
1784243902.800601,-0.007841818,-0.012093795,0.820248306,-0.000466077,0.000426854,-0.000884173,0.134932265,-0.060266800,9.794724464
1784243902.802603,-0.007841818,-0.012093795,0.820248306,0.000103441,0.000115958,-0.000782190,0.124979675,-0.066859730,9.794672966
1784243902.804615,-0.007841818,-0.012093795,0.820248306,0.000233716,0.000306966,-0.000778230,0.101870760,-0.086175054,9.780179024
1784243902.806608,-0.007841604,-0.012093807,0.820248306,-0.000342484,0.000377811,-0.000199133,0.093731746,-0.090211339,9.795389175
1784243902.808607,-0.007841604,-0.012093807,0.820248306,-0.001105983,0.000345013,-0.000085165,0.104024693,-0.055400029,9.796069145
1784243902.810610,-0.007840351,-0.012094334,0.820248306,-0.001639356,0.000595510,-0.000758751,0.151954755,-0.063544683,9.783958435
1784243902.812629,-0.007840351,-0.012094334,0.820248306,-0.001591866,0.001041289,-0.000922360,0.126784384,-0.067209862,9.777635574
1784243902.814618,-0.007840351,-0.012094334,0.820248306,-0.001074158,0.001032965,-0.000410821,0.141014367,-0.076918669,9.794174194
1784243902.816610,-0.007840374,-0.012095163,0.820248306,-0.000773573,0.000561850,-0.000383868,0.133529425,-0.064344794,9.803663254
1784243902.818612,-0.007840374,-0.012095163,0.820248306,-0.000407234,0.000399042,-0.000687926,0.130062655,-0.092408456,9.786891937
1784243902.820613,-0.007841450,-0.012095743,0.820248306,0.000421158,0.000434606,-0.000618849,0.111909308,-0.107577682,9.810539246
1784243902.822613,-0.007841450,-0.012095743,0.820248306,0.000914164,0.000281602,-0.000551648,0.105551511,-0.078612074,9.781128883
1784243902.824630,-0.007841450,-0.012095743,0.820248306,0.000859938,0.000338361,-0.000791241,0.123102345,-0.073972315,9.790141106
1784243902.826616,-0.007841752,-0.012095750,0.820248306,0.000661316,0.000740635,-0.000837661,0.101728931,-0.060241621,9.787967682
1784243902.828631,-0.007841752,-0.012095750,0.820248306,0.000139445,0.001306635,-0.000690038,0.126256734,-0.073501013,9.781181335
1784243902.830628,-0.007842196,-0.012096551,0.820248306,-0.000498932,0.001236208,-0.000657804,0.122406855,-0.094556876,9.787767410
1784243902.832620,-0.007842196,-0.012096551,0.820248306,-0.000642953,0.000802683,-0.000509578,0.118953094,-0.083712131,9.781108856
1784243902.834620,-0.007842196,-0.012096551,0.820248306,-0.000676206,0.000484431,-0.000130720,0.113032743,-0.089594431,9.799895287
1784243902.836621,-0.007843317,-0.012096973,0.820248306,-0.000827698,0.000094624,-0.000289051,0.134189516,-0.082440078,9.826861382
1784243902.838630,-0.007843317,-0.012096973,0.820248306,-0.000719825,-0.000205936,-0.001017901,0.121256225,-0.077596605,9.799083710
1784243902.840628,-0.007843499,-0.012096477,0.820248306,-0.000495635,-0.000196455,-0.000897491,0.100692675,-0.071457766,9.791929245
1784243902.842627,-0.007843499,-0.012096477,0.820248306,-0.000418882,0.000328713,-0.000048848,0.126594439,-0.082488231,9.784261703
1784243902.844629,-0.007843499,-0.012096477,0.820248306,-0.000290347,0.000676282,0.000280471,0.146353245,-0.079373732,9.814787865
1784243902.846631,-0.007843061,-0.012097575,0.820248306,0.000288728,0.000549806,-0.000058626,0.133231834,-0.049772546,9.834241867
1784243902.848639,-0.007843061,-0.012097575,0.820248306,0.000836464,0.000332089,-0.000594983,0.143135369,-0.050861359,9.780446053
1784243902.850636,-0.007842244,-0.012099029,0.820248306,0.000564511,0.000035507,-0.000788978,0.151733577,-0.078664444,9.831384659
1784243902.852636,-0.007842244,-0.012099029,0.820248306,-0.000049560,-0.000106392,-0.000551461,0.135384992,-0.097830713,9.783722878
1784243902.854642,-0.007842244,-0.012099029,0.820248306,-0.000096126,0.000038677,-0.000502775,0.116431251,-0.105738394,9.795759201
1784243902.856643,-0.007843539,-0.012098696,0.820248306,0.000501970,0.000013100,-0.000719759,0.120580181,-0.093975000,9.835291862
1784243902.858646,-0.007843539,-0.012098696,0.820248306,0.000573361,-0.000253594,-0.000879791,0.101844877,-0.052842125,9.755286217
1784243902.860641,-0.007842218,-0.012098141,0.820248306,0.000497255,-0.000590489,-0.000997371,0.112929583,-0.025765769,9.771162033
1784243902.862645,-0.007842218,-0.012098141,0.820248306,0.000805240,-0.000677618,-0.001117671,0.092074700,-0.043000408,9.775066376
1784243902.864645,-0.007842218,-0.012098141,0.820248306,0.000582170,-0.000304618,-0.001149432,0.128443226,-0.041658353,9.772869110
1784243902.866646,-0.007841064,-0.012098253,0.820248306,0.000127492,-0.000212167,-0.000776892,0.144840896,-0.056047220,9.813591003
1784243902.868650,-0.007841064,-0.012098253,0.820248306,0.000243373,-0.000564617,-0.000344663,0.124352492,-0.081636690,9.794576645
1784243902.870649,-0.007840875,-0.012098231,0.820248306,0.000744743,-0.000752986,-0.000173160,0.101012252,-0.080588087,9.815183640
1784243902.872685,-0.007840875,-0.012098231,0.820248306,0.000769119,-0.000564764,0.000314086,0.115304440,-0.086563759,9.810676575
1784243902.874661,-0.007840875,-0.012098231,0.820248306,0.000391796,-0.000224067,0.000452924,0.111645371,-0.093144961,9.797629356
1784243902.876679,-0.007841421,-0.012097611,0.820248306,0.000295986,-0.000332252,-0.000350225,0.114745796,-0.058346611,9.813098907
1784243902.878668,-0.007841421,-0.012097611,0.820248306,0.000547070,-0.000881175,-0.001154042,0.133744910,-0.083212607,9.810268402
1784243902.880661,-0.007841409,-0.012098103,0.820248306,0.001001277,-0.001161201,-0.001215013,0.149732441,-0.058080360,9.838688850
1784243902.882666,-0.007841409,-0.012098103,0.820248306,0.001246422,-0.000914846,-0.001166797,0.118713401,-0.064225025,9.813511848
1784243902.884665,-0.007841409,-0.012098103,0.820248306,0.000958453,-0.000371360,-0.000967920,0.112684391,-0.081096493,9.802639008
1784243902.886659,-0.007841717,-0.012097449,0.820248306,0.001023432,0.000433259,-0.000441238,0.138527244,-0.059054758,9.806838989
1784243902.888671,-0.007841717,-0.012097449,0.820248306,0.001341786,0.000981048,-0.000147598,0.135147452,-0.080757938,9.777556419
1784243902.890671,-0.007841355,-0.012097845,0.820248306,0.001168378,0.000665062,-0.000028572,0.105352499,-0.055966988,9.810414314
1784243902.892668,-0.007841355,-0.012097845,0.820248306,0.000969993,0.000506315,0.000275043,0.127952293,-0.080386512,9.801312447
1784243902.894670,-0.007841355,-0.012097845,0.820248306,0.000849615,0.001000943,0.000734336,0.107569374,-0.058232360,9.809953690
1784243902.896669,-0.007840841,-0.012097348,0.820248306,0.000923141,0.001198208,0.000959962,0.123651065,-0.066299140,9.781224251
1784243902.898669,-0.007840841,-0.012097348,0.820248306,0.000935327,0.000821490,0.000940845,0.136355951,-0.054403320,9.786693573
1784243902.900670,-0.007839858,-0.012097762,0.820248306,0.000435191,0.000212882,0.000545160,0.127114564,-0.075040802,9.807174683
1784243902.902674,-0.007839858,-0.012097762,0.820248306,-0.000037303,-0.000210985,0.000202689,0.126740962,-0.033610210,9.778298378
1784243902.904675,-0.007839858,-0.012097762,0.820248306,0.000055381,-0.000166819,0.000334951,0.142370597,-0.074829660,9.813018799
1784243902.906675,-0.007839384,-0.012098843,0.820248306,0.000090513,0.000120349,-0.000000571,0.140185207,-0.073126353,9.766401291
1784243902.908682,-0.007839384,-0.012098843,0.820248306,-0.000353869,0.000334837,-0.000281817,0.129661411,-0.088380590,9.788262367
1784243902.910679,-0.007839917,-0.012099269,0.820248306,-0.000479638,0.000521632,0.000055337,0.090825662,-0.068459466,9.829150200
1784243902.912685,-0.007839917,-0.012099269,0.820248306,-0.000175093,0.000456886,0.000065788,0.101935722,-0.078772761,9.810265541
1784243902.914721,-0.007839917,-0.012099269,0.820248306,-0.000134955,0.000111781,-0.000921397,0.127822831,-0.052734349,9.819423676
1784243902.916702,-0.007839389,-0.012098990,0.820248306,-0.000159476,-0.000067824,-0.001513874,0.142826587,-0.037188202,9.811469078
1784243902.918701,-0.007839389,-0.012098990,0.820248306,-0.000138635,0.000402488,-0.000245206,0.132815927,-0.086692579,9.797243118
1784243902.920691,-0.007839833,-0.012099059,0.820248306,-0.000357228,0.000890844,0.000805809,0.124725088,-0.050327115,9.801503181
1784243902.922707,-0.007839833,-0.012099059,0.820248306,-0.000877966,0.001075715,0.000721500,0.148835465,-0.061712597,9.783968925
1784243902.924692,-0.007839833,-0.012099059,0.820248306,-0.001582919,0.001178457,0.000569128,0.113287248,-0.069753781,9.781641006
1784243902.926693,-0.007838842,-0.012099339,0.820248306,-0.001664472,0.001103766,0.000602394,0.092750229,-0.059758171,9.799169540
1784243902.928700,-0.007838842,-0.012099339,0.820248306,-0.000988197,0.000519666,0.000588742,0.094301648,-0.042349447,9.805559158
1784243902.930699,-0.007837052,-0.012098264,0.820248306,-0.000065835,-0.000271235,0.000703807,0.137691125,-0.053696346,9.810909271
1784243902.932696,-0.007837052,-0.012098264,0.820248306,0.000373403,-0.000593897,0.000951139,0.139796853,-0.066159897,9.795587540
1784243902.934699,-0.007837052,-0.012098264,0.820248306,-0.000060508,-0.000439410,0.000572684,0.141163573,-0.063988216,9.802776337
1784243902.936705,-0.007836806,-0.012099425,0.820248306,-0.000731739,0.000253489,0.000209394,0.120764039,-0.043181129,9.811857224
1784243902.938709,-0.007836806,-0.012099425,0.820248306,-0.000735273,0.000711159,0.000901996,0.121463016,-0.061374616,9.785737991
1784243902.940708,-0.007836094,-0.012099262,0.820248306,0.000016957,0.000622337,0.001423447,0.108328901,-0.069058515,9.818852425
1784243902.942710,-0.007836094,-0.012099262,0.820248306,0.000821465,0.000686061,0.000956008,0.126696393,-0.073983334,9.785213470
1784243902.944709,-0.007836094,-0.012099262,0.820248306,0.000832881,0.001046105,0.000381643,0.136517212,-0.076130599,9.817488670
1784243902.946704,-0.007835748,-0.012099726,0.820248306,0.000132141,0.000938387,-0.000094119,0.109178953,-0.109465398,9.828905106
1784243902.948708,-0.007835748,-0.012099726,0.820248306,-0.000529061,0.000233450,-0.000751317,0.109009564,-0.086991645,9.819184303
1784243902.950711,-0.007835098,-0.012099233,0.820248306,-0.000850215,-0.000409916,-0.000887563,0.104792126,-0.063732371,9.832332611
1784243902.952710,-0.007835098,-0.012099233,0.820248306,-0.000667897,-0.000654414,-0.000118419,0.109679557,-0.070660934,9.789701462
1784243902.954710,-0.007835098,-0.012099233,0.820248306,-0.000457563,-0.000400055,0.000227805,0.115223192,-0.056909904,9.799208641
1784243902.956709,-0.007834239,-0.012099171,0.820248306,-0.000390680,0.000024038,-0.000150594,0.152037472,-0.094402522,9.775691032
1784243902.958718,-0.007834239,-0.012099171,0.820248306,0.000014929,-0.000050396,-0.000175098,0.114500083,-0.080144078,9.791439056
1784243902.960717,-0.007833921,-0.012098899,0.820248306,0.000561615,-0.000252208,-0.000048957,0.092265449,-0.062468801,9.803186417
1784243902.962721,-0.007833921,-0.012098899,0.820248306,0.000640941,0.000180852,-0.000062651,0.092706203,-0.064158283,9.787934303
1784243902.964716,-0.007833921,-0.012098899,0.820248306,0.000499141,0.000444153,-0.000019079,0.152212754,-0.076808393,9.821534157
1784243902.966722,-0.007833542,-0.012099766,0.820248306,0.000714945,0.000021327,-0.000116617,0.148738220,-0.071396038,9.759695053
1784243902.968728,-0.007833542,-0.012099766,0.820248306,0.000765718,-0.000140339,-0.000385596,0.122822769,-0.060473684,9.782607079
1784243902.970728,-0.007832897,-0.012099943,0.820248306,0.000392535,0.000233286,-0.000741925,0.129268765,-0.045479298,9.804675102
1784243902.972724,-0.007832897,-0.012099943,0.820248306,-0.000114770,0.000559458,-0.000586389,0.105869338,-0.050571769,9.806864738
1784243902.974724,-0.007832897,-0.012099943,0.820248306,-0.000796821,0.000454804,0.000120224,0.086515591,-0.054442048,9.818924904
1784243902.976729,-0.007832310,-0.012098918,0.820248306,-0.000914386,0.000181022,-0.000105637,0.086628474,-0.119004466,9.824786186
1784243902.978736,-0.007832310,-0.012098918,0.820248306,-0.000219299,0.000034127,-0.001405906,0.096582718,-0.113208883,9.810935974
1784243902.980736,-0.007832921,-0.012098267,0.820248306,-0.000132616,-0.000428233,-0.002373837,0.116246507,-0.082575411,9.815186501
1784243902.982734,-0.007832921,-0.012098267,0.820248306,-0.000650893,-0.000853653,-0.002286102,0.155226469,-0.090010852,9.782446861
1784243902.984733,-0.007832921,-0.012098267,0.820248306,-0.000791432,-0.000811009,-0.001425568,0.121028937,-0.060037706,9.787539482
1784243902.986733,-0.007833027,-0.012098477,0.820248306,-0.000549030,-0.000622886,-0.000598685,0.119926989,-0.039045770,9.798881531
1784243902.988739,-0.007833027,-0.012098477,0.820248306,-0.000136130,-0.000467622,-0.000447127,0.083933957,-0.083019227,9.809771538
1784243902.990751,-0.007833445,-0.012097111,0.820248306,-0.000283875,-0.000078361,-0.000552515,0.090543874,-0.130563289,9.804990768
1784243902.992753,-0.007833445,-0.012097111,0.820248306,-0.001507618,0.000719564,-0.000357419,0.134343967,-0.109895110,9.780955315
1784243902.994742,-0.007833445,-0.012097111,0.820248306,-0.002457412,0.000976049,0.000017477,0.119994871,-0.070831329,9.795090675
1784243902.996745,-0.007833682,-0.012097330,0.820248306,-0.002054159,0.000536457,0.000722078,0.132497936,-0.042796429,9.736550331
1784243902.998777,-0.007833682,-0.012097330,0.820248306,-0.001379081,0.000321320,0.001037995,0.140205801,-0.070937410,9.773589134
1784243903.000752,-0.007834455,-0.012098086,0.820248306,-0.001171468,0.000478183,0.000529308,0.140694439,-0.065764762,9.801419258
1784243903.002749,-0.007834455,-0.012098086,0.820248306,-0.000532667,0.000498199,-0.000003482,0.137439936,-0.075131707,9.801356316
1784243903.004759,-0.007834455,-0.012098086,0.820248306,0.000400418,0.000221743,-0.000717425,0.085145645,-0.094229139,9.808805466
1784243903.006755,-0.007835367,-0.012096807,0.820248306,0.000375584,0.000134280,-0.000967232,0.117504746,-0.090986259,9.798544884
1784243903.008759,-0.007835367,-0.012096807,0.820248306,-0.000058443,0.000197280,-0.000535408,0.105740085,-0.098503001,9.805658340
1784243903.010752,-0.007835539,-0.012095508,0.820248306,-0.000303047,0.000205520,-0.000076509,0.104014181,-0.054672629,9.819837570
1784243903.012752,-0.007835539,-0.012095508,0.820248306,-0.000790105,0.000105973,0.000401129,0.109390058,-0.094425127,9.792687416
1784243903.014755,-0.007835539,-0.012095508,0.820248306,-0.000839563,-0.000219946,0.000441276,0.151546046,-0.059170611,9.799678802
1784243903.016760,-0.007835345,-0.012096277,0.820248306,-0.000296513,-0.000409732,0.000489760,0.130733296,-0.036051206,9.799358368
1784243903.018852,-0.007835345,-0.012096277,0.820248306,0.000138674,-0.000224651,0.000563048,0.125835016,-0.070445381,9.793304443
1784243903.020789,-0.007835157,-0.012095933,0.820248306,0.000474933,-0.000069595,0.000219441,0.105167724,-0.073230796,9.781162262
1784243903.022785,-0.007835157,-0.012095933,0.820248306,0.000443481,-0.000334519,0.000435929,0.128337473,-0.050598495,9.770121574
1784243903.024783,-0.007835157,-0.012095933,0.820248306,-0.000035747,-0.000883684,0.000771447,0.130013987,-0.058850143,9.793383598
1784243903.026782,-0.007834941,-0.012096492,0.820248306,-0.000258973,-0.001479330,0.000401217,0.112641573,-0.085487068,9.790057182
1784243903.028789,-0.007834941,-0.012096492,0.820248306,0.000196510,-0.001683714,-0.000227266,0.101418376,-0.085387863,9.796324730
1784243903.030821,-0.007835020,-0.012094967,0.820248306,0.000855917,-0.001620589,-0.000611201,0.101254039,-0.063279398,9.774947166
1784243903.032797,-0.007835020,-0.012094967,0.820248306,0.000790941,-0.001803819,-0.000712519,0.159098029,-0.030383233,9.770280838
1784243903.034783,-0.007835020,-0.012094967,0.820248306,0.000090368,-0.002146358,-0.000770479,0.158670381,-0.063748568,9.800553322
1784243903.036849,-0.007833705,-0.012097220,0.820248306,-0.000072611,-0.001882203,-0.000069164,0.153263927,-0.065474607,9.800985336
1784243903.038794,-0.007833705,-0.012097220,0.820248306,0.000739975,-0.000801067,0.000646738,0.139489010,-0.089663722,9.825024605
1784243903.040786,-0.007835343,-0.012097950,0.820248306,0.001446695,0.000456369,0.000665614,0.089507386,-0.106622867,9.779588699
1784243903.042788,-0.007835343,-0.012097950,0.820248306,0.001322495,0.000855762,0.000928196,0.102722824,-0.088976070,9.794508934
1784243903.044791,-0.007835343,-0.012097950,0.820248306,0.000607462,0.000340719,0.001565297,0.112473957,-0.097347096,9.820018768
1784243903.046793,-0.007836359,-0.012097405,0.820248306,0.000159035,-0.000017377,0.002047681,0.102567233,-0.065177515,9.787487984
1784243903.048793,-0.007836359,-0.012097405,0.820248306,0.000324124,-0.000081795,0.001787207,0.107949778,-0.064045705,9.807676315
1784243903.050796,-0.007835762,-0.012096336,0.820248306,0.000443590,-0.000288271,0.001199424,0.113820367,-0.060987901,9.808148384
1784243903.052795,-0.007835762,-0.012096336,0.820248306,0.000279501,-0.000185871,0.001079121,0.103074700,-0.058235280,9.818468094
1784243903.054798,-0.007835762,-0.012096336,0.820248306,0.000401926,0.000533867,0.001031564,0.105637968,-0.069824554,9.805394173
1784243903.056796,-0.007835475,-0.012096082,0.820248306,0.001249144,0.000941688,0.001051630,0.115659639,-0.060254507,9.764668465
1784243903.058795,-0.007835475,-0.012096082,0.820248306,0.001947392,0.000461507,0.001459186,0.098564245,-0.063225821,9.772253036
1784243903.060798,-0.007834813,-0.012095655,0.820248306,0.001781882,-0.000384455,0.001661991,0.112097591,-0.056748830,9.782171249
1784243903.062801,-0.007834813,-0.012095655,0.820248306,0.001211668,-0.000849895,0.001484926,0.097198769,-0.024961159,9.812398911
1784243903.064801,-0.007834813,-0.012095655,0.820248306,0.000749681,-0.000486381,0.001341725,0.116779439,-0.077052988,9.793702126
1784243903.066798,-0.007834924,-0.012095764,0.820248306,0.000548110,0.000516054,0.001061210,0.137164563,-0.061194647,9.795168877
1784243903.068798,-0.007834924,-0.012095764,0.820248306,0.000708791,0.001208441,0.000622462,0.173069775,-0.061178010,9.791168213
1784243903.070806,-0.007834572,-0.012097757,0.820248306,0.000384662,0.001138964,0.000732184,0.132040888,-0.079230718,9.757388115
1784243903.072805,-0.007834572,-0.012097757,0.820248306,-0.000237479,0.000673771,0.001585420,0.114053056,-0.078098841,9.819696426
1784243903.074804,-0.007834572,-0.012097757,0.820248306,-0.000292438,0.000401921,0.002316311,0.117646366,-0.076089449,9.845714569
1784243903.076811,-0.007834307,-0.012097624,0.820248306,-0.000202645,0.000333345,0.002055405,0.097797237,-0.086806573,9.813347816
1784243903.078817,-0.007834307,-0.012097624,0.820248306,0.000062901,0.000284441,0.001342159,0.123143673,-0.068377756,9.822458267
1784243903.080814,-0.007833988,-0.012097757,0.820248306,0.000599834,0.000227555,0.000750787,0.128096715,-0.068304271,9.803184509
1784243903.082812,-0.007833988,-0.012097757,0.820248306,0.000571086,-0.000134784,0.000552197,0.116649508,-0.086183913,9.817853928
1784243903.084831,-0.007833988,-0.012097757,0.820248306,0.000403104,-0.000595813,0.000514505,0.133872017,-0.074103944,9.789254189
1784243903.086867,-0.007834027,-0.012097825,0.820248306,0.000805965,-0.000917451,0.000181081,0.143466875,-0.060302906,9.784420967
1784243903.088830,-0.007834027,-0.012097825,0.820248306,0.000976202,-0.000774441,0.000265023,0.111203000,-0.056715075,9.779032707
1784243903.090850,-0.007833416,-0.012097361,0.820248306,0.000744286,-0.000214449,0.000003216,0.143090606,-0.093667872,9.751477242
1784243903.092829,-0.007833416,-0.012097361,0.820248306,0.000667452,0.000109372,-0.001307043,0.129116908,-0.095615357,9.798526764
1784243903.094837,-0.007833416,-0.012097361,0.820248306,0.000518484,0.000094619,-0.002317252,0.139053330,-0.053586408,9.792977333
1784243903.096830,-0.007832815,-0.012097872,0.820248306,0.000117289,-0.000079172,-0.002368583,0.134898096,-0.061347138,9.820720673
1784243903.098830,-0.007832815,-0.012097872,0.820248306,-0.000213737,-0.000352010,-0.001973610,0.072497055,-0.063632846,9.813472748
1784243903.100870,-0.007832807,-0.012096498,0.820248306,0.000091090,-0.000267450,-0.001882001,0.098720685,-0.087828085,9.766267776
1784243903.102894,-0.007832807,-0.012096498,0.820248306,0.000749720,0.000058768,-0.001704786,0.150471076,-0.072718769,9.816627502
1784243903.104842,-0.007832807,-0.012096498,0.820248306,0.000411405,-0.000021407,-0.001145513,0.123973869,-0.075404018,9.800893784
1784243903.106878,-0.007833480,-0.012097015,0.820248306,-0.000417817,-0.000451845,-0.000686932,0.125035957,-0.061957598,9.798290253
1784243903.108851,-0.007833480,-0.012097015,0.820248306,-0.000440756,-0.000625031,-0.000784399,0.115089886,-0.066472888,9.821116447
1784243903.110838,-0.007833327,-0.012096979,0.820248306,-0.000359812,-0.000191174,-0.001357578,0.123472743,-0.080675215,9.786960602
1784243903.112843,-0.007833327,-0.012096979,0.820248306,-0.000771842,0.000180089,-0.001143760,0.125865191,-0.101313122,9.849596024
1784243903.114838,-0.007833327,-0.012096979,0.820248306,-0.000464801,-0.000170184,-0.000629453,0.122104265,-0.080429405,9.817894936
1784243903.116842,-0.007833606,-0.012097493,0.820248306,0.000172839,-0.000679593,-0.000616581,0.101882026,-0.086086027,9.767626762
1784243903.118847,-0.007833606,-0.012097493,0.820248306,0.000208905,-0.000472090,-0.000279729,0.085548319,-0.061060932,9.806328773
1784243903.120848,-0.007833292,-0.012096550,0.820248306,-0.000136710,0.000385495,-0.000103198,0.118196338,-0.034463674,9.787699699
1784243903.122843,-0.007833292,-0.012096550,0.820248306,-0.000440947,0.001120348,-0.000226792,0.145540252,-0.035837479,9.805650711
1784243903.124850,-0.007833292,-0.012096550,0.820248306,-0.000327155,0.000983879,0.000040998,0.141707838,-0.093939975,9.792273521
1784243903.126850,-0.007833729,-0.012097732,0.820248306,-0.000195676,0.000431967,0.000558568,0.125540093,-0.056257501,9.814914703
1784243903.128851,-0.007833729,-0.012097732,0.820248306,0.000010707,0.000104139,0.000376596,0.132871568,-0.043800220,9.814105988
1784243903.130864,-0.007832658,-0.012098447,0.820248306,0.000562810,0.000133743,-0.000205130,0.153643623,-0.072914451,9.775382996
1784243903.132856,-0.007832658,-0.012098447,0.820248306,0.001073485,0.000224144,-0.000303423,0.113776751,-0.065384835,9.796464920
1784243903.134856,-0.007832658,-0.012098447,0.820248306,0.001064843,0.000291559,0.000039567,0.121296100,-0.074444972,9.796861649
1784243903.136893,-0.007832005,-0.012097999,0.820248306,0.000881067,0.000683573,0.000453526,0.125433385,-0.104010664,9.788606644
1784243903.138874,-0.007832005,-0.012097999,0.820248306,0.000985472,0.001149894,0.000214922,0.122170500,-0.073827639,9.834527016
1784243903.140865,-0.007832081,-0.012098170,0.820248306,0.000983429,0.000968137,0.000092228,0.105728701,-0.062218752,9.806787491
1784243903.142864,-0.007832081,-0.012098170,0.820248306,0.000618163,0.000746557,0.000507223,0.157147631,-0.076067932,9.834546089
1784243903.144856,-0.007832081,-0.012098170,0.820248306,0.000105657,0.001077425,0.000216183,0.163957238,-0.071477413,9.806784630
1784243903.146858,-0.007832143,-0.012099495,0.820248306,0.000129291,0.001154731,-0.000411309,0.132789284,-0.051339243,9.803297043
1784243903.148870,-0.007832143,-0.012099495,0.820248306,0.000121840,0.000739460,-0.000239284,0.124282986,-0.049863871,9.800160408
1784243903.150870,-0.007831397,-0.012099436,0.820248306,-0.000518316,0.000368799,0.000372045,0.113039367,-0.051546961,9.805070877
1784243903.152869,-0.007831397,-0.012099436,0.820248306,-0.000457500,0.000275408,0.000440126,0.102544636,-0.064545497,9.824703217
1784243903.154866,-0.007831397,-0.012099436,0.820248306,0.000256629,0.000184919,0.000039366,0.116530821,-0.059662610,9.805917740
1784243903.156871,-0.007830826,-0.012099298,0.820248306,0.000705044,0.000208552,-0.000053629,0.092154108,-0.072263539,9.794605255
1784243903.158886,-0.007830826,-0.012099298,0.820248306,0.000523927,0.000192256,0.000365031,0.122481547,-0.087888345,9.794983864
1784243903.160877,-0.007831047,-0.012099498,0.820248306,0.000228037,0.000056491,0.000614914,0.154085979,-0.074591227,9.758336067
1784243903.162873,-0.007831047,-0.012099498,0.820248306,0.000467480,0.000117883,0.000275065,0.151657343,-0.051402654,9.778209686
1784243903.164892,-0.007831047,-0.012099498,0.820248306,0.000516398,0.000236621,-0.000080610,0.124355882,-0.046451513,9.761178017
1784243903.166884,-0.007829830,-0.012100086,0.820248306,0.000063502,0.000327392,-0.000178001,0.111531898,-0.066582330,9.779867172
1784243903.168884,-0.007829830,-0.012100086,0.820248306,-0.000410390,0.000414286,-0.000447633,0.097070090,-0.075319424,9.774415970
1784243903.170878,-0.007830006,-0.012098926,0.820248306,-0.000105019,0.000434907,-0.000697416,0.076523818,-0.065396950,9.802257538
1784243903.172915,-0.007830006,-0.012098926,0.820248306,0.000152361,0.000428897,-0.000446199,0.127905101,-0.082785293,9.823714256
1784243903.174888,-0.007830006,-0.012098926,0.820248306,-0.000077831,0.000424264,0.000512373,0.101035610,-0.080403663,9.789183617
1784243903.176886,-0.007830307,-0.012098177,0.820248306,0.000219489,0.000070459,0.001769075,0.137355715,-0.045906737,9.787196159
1784243903.178885,-0.007830307,-0.012098177,0.820248306,0.000583713,-0.000146237,0.001601924,0.159892753,-0.036879227,9.800277710
1784243903.180887,-0.007828834,-0.012099382,0.820248306,0.000295958,0.000140709,0.000362544,0.130134985,-0.048979092,9.791205406
1784243903.182887,-0.007828834,-0.012099382,0.820248306,-0.000147791,0.000529606,-0.000106459,0.119790100,-0.087037407,9.806194305
1784243903.184893,-0.007828834,-0.012099382,0.820248306,-0.000477192,0.000394792,0.000235508,0.097012438,-0.077800870,9.808473587
1784243903.186906,-0.007829593,-0.012098131,0.820248306,-0.000723242,-0.000331443,0.000174237,0.106014729,-0.075666524,9.807151794
1784243903.188896,-0.007829593,-0.012098131,0.820248306,-0.000246343,-0.000504046,-0.000445027,0.087755404,-0.064619318,9.798686028
1784243903.190903,-0.007829153,-0.012096496,0.820248306,0.000253677,0.000158985,-0.000638793,0.104182914,-0.079582959,9.794122696
1784243903.192898,-0.007829153,-0.012096496,0.820248306,-0.000105064,0.000720239,-0.000527936,0.121261686,-0.077958710,9.786975861
1784243903.194900,-0.007829153,-0.012096496,0.820248306,0.000065205,0.000873571,-0.000628434,0.147912964,-0.065951779,9.751660347
1784243903.196897,-0.007828881,-0.012098148,0.820248306,0.001218575,0.000883622,-0.000610318,0.125476316,-0.063650265,9.783486366
1784243903.198900,-0.007828881,-0.012098148,0.820248306,0.001767615,0.000819210,-0.000128635,0.104689509,-0.074673854,9.795947075
1784243903.200907,-0.007828290,-0.012097492,0.820248306,0.001230231,0.001069495,0.000366846,0.082503729,-0.052560303,9.813551903
1784243903.202908,-0.007828290,-0.012097492,0.820248306,0.000710118,0.001072889,0.000780753,0.083256245,-0.063847147,9.824240685
1784243903.204904,-0.007828290,-0.012097492,0.820248306,0.000653315,0.000713343,0.000846101,0.107802041,-0.078180142,9.779339790
1784243903.206903,-0.007828550,-0.012096774,0.820248306,0.000614752,0.000633593,0.000533690,0.126367837,-0.063302830,9.796041489
1784243903.208909,-0.007828550,-0.012096774,0.820248306,0.000172133,0.000758298,0.000577239,0.133358762,-0.078660473,9.800881386
1784243903.210912,-0.007828721,-0.012096807,0.820248306,-0.000167392,0.000886876,0.000356422,0.125779957,-0.075337984,9.788342476
1784243903.212912,-0.007828721,-0.012096807,0.820248306,0.000251670,0.000669364,-0.000130049,0.125899076,-0.064266138,9.806346893
1784243903.214911,-0.007828721,-0.012096807,0.820248306,0.000840047,-0.000015448,-0.000270299,0.109018989,-0.086511880,9.814705849
1784243903.216910,-0.007829072,-0.012096712,0.820248306,0.001050055,-0.000708744,-0.000572470,0.129710168,-0.082322165,9.818339348
1784243903.218919,-0.007829072,-0.012096712,0.820248306,0.000969184,-0.001173289,-0.001117677,0.135978520,-0.085751057,9.785145760
1784243903.220922,-0.007830258,-0.012097407,0.820248306,0.001022860,-0.001117381,-0.001440271,0.081702165,-0.083708338,9.784659386
1784243903.222923,-0.007830258,-0.012097407,0.820248306,0.001100480,-0.000773516,-0.001276388,0.102886699,-0.075524524,9.792801857
1784243903.224920,-0.007830258,-0.012097407,0.820248306,0.001083364,-0.000630658,-0.001085510,0.125618890,-0.088767268,9.786911964
1784243903.226916,-0.007831081,-0.012097577,0.820248306,0.000893308,-0.000236465,-0.000981227,0.129396960,-0.072330914,9.800020218
1784243903.228931,-0.007831081,-0.012097577,0.820248306,0.000555655,0.000069520,-0.000688848,0.145912021,-0.042124223,9.806956291
1784243903.230935,-0.007829477,-0.012099495,0.820248306,0.000594878,-0.000141080,-0.000730540,0.162195891,-0.069163747,9.799625397
1784243903.232928,-0.007829477,-0.012099495,0.820248306,0.000928048,-0.000497326,-0.000508833,0.142783120,-0.078768477,9.799097061
1784243903.234925,-0.007829477,-0.012099495,0.820248306,0.000938215,-0.000380452,0.000322323,0.096851319,-0.090420105,9.819152832
1784243903.236929,-0.007830217,-0.012099274,0.820248306,0.000766019,-0.000202825,0.000837782,0.093684696,-0.091393426,9.835731506
1784243903.238937,-0.007830217,-0.012099274,0.820248306,0.000926341,-0.000540501,0.000561275,0.097088382,-0.109522842,9.795716286
1784243903.240938,-0.007831284,-0.012097708,0.820248306,0.001096546,-0.000824175,0.000540235,0.106009677,-0.075301223,9.818809509
1784243903.242932,-0.007831284,-0.012097708,0.820248306,0.000406859,-0.000934825,0.000975446,0.141685396,-0.058148209,9.799675941
1784243903.244934,-0.007831284,-0.012097708,0.820248306,-0.000672525,-0.001022674,0.000551411,0.162402645,-0.052131679,9.798389435
1784243903.246936,-0.007830568,-0.012100051,0.820248306,-0.000986764,-0.000999110,-0.000189500,0.128420115,-0.042246219,9.792592049
1784243903.248941,-0.007830568,-0.012100051,0.820248306,-0.000813284,-0.000501854,-0.000473206,0.113463499,-0.054583509,9.790256500
1784243903.250940,-0.007829393,-0.012099338,0.820248306,-0.000668913,-0.000105020,-0.000481092,0.121233143,-0.078994542,9.806695938
1784243903.252940,-0.007829393,-0.012099338,0.820248306,-0.000531393,-0.000176043,-0.000524895,0.085009284,-0.068657801,9.804486275
1784243903.254942,-0.007829393,-0.012099338,0.820248306,-0.000464035,0.000061113,-0.000645507,0.122828104,-0.096805617,9.788202286
1784243903.256947,-0.007830921,-0.012099688,0.820248306,-0.000471890,0.000017615,-0.000590252,0.112263933,-0.078841396,9.801307678
1784243903.258951,-0.007830921,-0.012099688,0.820248306,-0.000479539,-0.000246491,-0.000804023,0.128141358,-0.101894386,9.801175117
1784243903.260946,-0.007831859,-0.012100295,0.820248306,0.000135629,0.000112392,-0.000955695,0.122391224,-0.092654116,9.835302353
1784243903.262950,-0.007831859,-0.012100295,0.820248306,0.001125349,0.000348446,-0.000812742,0.107839860,-0.074234337,9.791469574
1784243903.264949,-0.007831859,-0.012100295,0.820248306,0.001209977,0.000203063,-0.000675278,0.137992397,-0.066213205,9.806345940
1784243903.266953,-0.007832195,-0.012101578,0.820248306,0.000766553,0.000263042,-0.000322290,0.118794627,-0.059125751,9.789336205
1784243903.268959,-0.007832195,-0.012101578,0.820248306,0.000660174,0.000198618,-0.000426436,0.114616662,-0.070308007,9.794191360
1784243903.270957,-0.007831925,-0.012101371,0.820248306,0.000511250,0.000172226,-0.000791134,0.094308250,-0.079481915,9.797699928
1784243903.272957,-0.007831925,-0.012101371,0.820248306,0.000657991,0.000470692,-0.000476978,0.148304552,-0.067219108,9.803210258
1784243903.274965,-0.007831925,-0.012101371,0.820248306,0.001269829,0.000731914,0.000529155,0.131493434,-0.084867604,9.795012474
1784243903.276964,-0.007832897,-0.012103221,0.820248306,0.001097923,0.000728887,0.001584986,0.105992466,-0.077058107,9.813867569
1784243903.278962,-0.007832897,-0.012103221,0.820248306,0.000828276,0.000623785,0.001775688,0.122238800,-0.070856892,9.794644356
1784243903.280964,-0.007831980,-0.012104434,0.820248306,0.001145976,0.000999404,0.000654321,0.125733063,-0.078950286,9.792353630
1784243903.282967,-0.007831980,-0.012104434,0.820248306,0.000960425,0.001099534,-0.000489144,0.127621710,-0.069721892,9.814383507
1784243903.284972,-0.007831980,-0.012104434,0.820248306,0.000165967,0.000545518,-0.000658771,0.124262899,-0.088422880,9.803948402
1784243903.286973,-0.007832889,-0.012105701,0.820248306,-0.000340493,0.000193592,-0.000529214,0.102040522,-0.070245601,9.808078766
1784243903.288970,-0.007832889,-0.012105701,0.820248306,-0.000125383,0.000487567,-0.000214217,0.159692228,-0.053456966,9.800619125
1784243903.290980,-0.007831278,-0.012108014,0.820248306,0.000359957,0.000951386,-0.000181401,0.152334124,-0.031370979,9.795374870
1784243903.292981,-0.007831278,-0.012108014,0.820248306,0.000708153,0.000750572,-0.000359076,0.113062322,-0.086118840,9.815161705
1784243903.294975,-0.007831278,-0.012108014,0.820248306,0.000810480,0.000046278,-0.000221082,0.087841660,-0.093828395,9.810604095
1784243903.296975,-0.007832236,-0.012106804,0.820248306,0.000540541,-0.000518072,0.000041079,0.105961569,-0.078923076,9.824167252
1784243903.298980,-0.007832236,-0.012106804,0.820248306,0.000041700,-0.000422734,0.000360764,0.153338671,-0.059616137,9.796091080
1784243903.300978,-0.007832577,-0.012108405,0.820248306,0.000063336,0.000146323,0.000633150,0.124060810,-0.068233453,9.800489426
1784243903.302980,-0.007832577,-0.012108405,0.820248306,0.000494183,0.000589520,0.001301747,0.111853391,-0.039323471,9.789455414
1784243903.304978,-0.007832577,-0.012108405,0.820248306,0.000536405,0.000931652,0.002059266,0.091354057,-0.064188734,9.794656754
1784243903.306979,-0.007831710,-0.012107585,0.820248306,0.000514769,0.001238664,0.002087846,0.097007021,-0.078248844,9.808471680
1784243903.308987,-0.007831710,-0.012107585,0.820248306,0.000155807,0.001361788,0.001493800,0.155659661,-0.090544045,9.793653488
1784243903.310984,-0.007832770,-0.012110456,0.820248306,-0.000397515,0.001098075,0.000499005,0.137497544,-0.069003336,9.821570396
1784243903.312988,-0.007832770,-0.012110456,0.820248306,-0.000478537,0.000666396,0.000116468,0.104224592,-0.038422022,9.802455902
1784243903.314991,-0.007832770,-0.012110456,0.820248306,-0.000377686,0.000220442,0.000451077,0.129214272,-0.049962081,9.805094719
1784243903.316994,-0.007830751,-0.012110199,0.820248306,-0.000230685,-0.000032121,0.000514838,0.130247429,-0.075144649,9.816143990
1784243903.318995,-0.007830751,-0.012110199,0.820248306,-0.000154772,0.000181980,0.000274627,0.134453356,-0.063336357,9.786184311
1784243903.320991,-0.007829865,-0.012110719,0.820248306,-0.000209028,0.000231357,0.000062764,0.106016628,-0.076867320,9.786969185
1784243903.322991,-0.007829865,-0.012110719,0.820248306,0.000056932,0.000119265,0.000034447,0.140035093,-0.084443010,9.782917023
1784243903.325004,-0.007829865,-0.012110719,0.820248306,0.000393908,-0.000055041,0.000194047,0.145279571,-0.056942530,9.812688828
1784243903.327002,-0.007829430,-0.012112747,0.820248306,0.000039479,-0.000428981,0.000542659,0.122584142,-0.079783700,9.789206505
1784243903.329025,-0.007829430,-0.012112747,0.820248306,-0.000124271,-0.000324538,0.000816921,0.102560624,-0.065635011,9.788829803
1784243903.331045,-0.007828603,-0.012112004,0.820248306,0.000052814,0.000361543,0.000822017,0.123873182,-0.044282638,9.835166931
1784243903.333013,-0.007828603,-0.012112004,0.820248306,-0.000200467,0.000561252,0.000534622,0.144889906,-0.054039162,9.783117294
1784243903.335007,-0.007828603,-0.012112004,0.820248306,-0.000101861,0.000127933,0.000286378,0.118206516,-0.070757456,9.787915230
1784243903.337007,-0.007828840,-0.012111403,0.820248306,0.000241462,-0.000049879,0.000630238,0.125895098,-0.065108001,9.798718452
1784243903.339015,-0.007828840,-0.012111403,0.820248306,0.000221874,-0.000015177,0.000989533,0.127194136,-0.069144182,9.796901703
1784243903.341017,-0.007829001,-0.012111987,0.820248306,0.000063556,-0.000004350,0.000926034,0.126402825,-0.096969262,9.804791451
1784243903.343008,-0.007829001,-0.012111987,0.820248306,-0.000307336,-0.000192474,0.001004640,0.109605849,-0.076916486,9.787419319
1784243903.345014,-0.007829001,-0.012111987,0.820248306,-0.000545377,-0.000637624,0.001349067,0.111200936,-0.055920903,9.793383598
1784243903.347012,-0.007828277,-0.012111986,0.820248306,-0.000277950,-0.000388919,0.001315042,0.097596370,-0.066607602,9.808546066
1784243903.349016,-0.007828277,-0.012111986,0.820248306,0.000123673,0.000335319,0.000427123,0.113005057,-0.091433965,9.806609154
1784243903.351015,-0.007829032,-0.012112745,0.820248306,0.000555991,0.000358872,-0.000456976,0.127806082,-0.090051249,9.837566376
1784243903.353021,-0.007829032,-0.012112745,0.820248306,0.001499455,0.000218398,0.000018299,0.105519243,-0.080893219,9.786941528
1784243903.355020,-0.007829032,-0.012112745,0.820248306,0.002314783,0.000398464,0.001052278,0.114100061,-0.076106675,9.791463852
1784243903.357023,-0.007829300,-0.012112868,0.820248306,0.002387476,0.000683018,0.001191785,0.100963861,-0.085833251,9.796769142
1784243903.359025,-0.007829300,-0.012112868,0.820248306,0.002174377,0.001308823,0.001024547,0.116667822,-0.085634202,9.803510666
1784243903.361024,-0.007829423,-0.012113003,0.820248306,0.001388160,0.001863618,0.000559279,0.117438577,-0.095561266,9.811966896
1784243903.363026,-0.007829423,-0.012113003,0.820248306,0.000394581,0.001787003,0.000108679,0.132619008,-0.103241712,9.793550491
1784243903.365028,-0.007829423,-0.012113003,0.820248306,0.000536670,0.001611977,0.000088013,0.132150337,-0.068235189,9.786151886
1784243903.367028,-0.007829334,-0.012113293,0.820248306,0.001272501,0.001458991,0.000182132,0.121386558,-0.065625653,9.816643715
1784243903.369034,-0.007829334,-0.012113293,0.820248306,0.001226583,0.001135059,0.000699884,0.138411984,-0.070501439,9.778521538
1784243903.371039,-0.007828810,-0.012114385,0.820248306,0.000721901,0.000761162,0.000913077,0.129570618,-0.057586353,9.805496216
1784243903.373109,-0.007828810,-0.012114385,0.820248306,0.000608096,0.000417921,0.000436581,0.123096779,-0.074826896,9.784306526
1784243903.375053,-0.007828810,-0.012114385,0.820248306,0.000548209,0.000600270,-0.000016406,0.117096938,-0.088225968,9.789147377
1784243903.377044,-0.007829684,-0.012114132,0.820248306,0.000109303,0.001023699,-0.000074635,0.129959702,-0.063736372,9.787523270
1784243903.379070,-0.007829684,-0.012114132,0.820248306,-0.000050471,0.001060892,-0.000190518,0.130499557,-0.056133144,9.788469315
1784243903.381052,-0.007828212,-0.012114638,0.820248306,0.000263402,0.000689026,-0.000547254,0.112109110,-0.054226406,9.805500031
1784243903.383048,-0.007828212,-0.012114638,0.820248306,0.000308253,0.000114895,-0.000935477,0.118472338,-0.086390965,9.780642509
1784243903.385050,-0.007828212,-0.012114638,0.820248306,0.000215775,-0.000035890,-0.000585188,0.116148271,-0.092671834,9.785980225
1784243903.387045,-0.007829311,-0.012114404,0.820248246,0.000333657,0.000388702,0.000250923,0.107433148,-0.107434340,9.798430443
1784243903.389061,-0.007829311,-0.012114404,0.820248246,0.000494885,0.000879959,0.000409860,0.116601400,-0.092642598,9.781048775
1784243903.391065,-0.007829601,-0.012114218,0.820248246,0.000699617,0.000878902,0.000198850,0.106372058,-0.048124675,9.776842117
1784243903.393052,-0.007829601,-0.012114218,0.820248246,0.000679876,0.000286643,-0.000066744,0.151142806,-0.055158649,9.803289413
1784243903.395054,-0.007829601,-0.012114218,0.820248246,0.000194762,-0.000228956,-0.000387805,0.094706684,-0.045942064,9.805984497
1784243903.397058,-0.007827716,-0.012112660,0.820248365,-0.000043990,0.000057514,-0.000184580,0.121007487,-0.061422918,9.793357849
1784243903.399059,-0.007827716,-0.012112660,0.820248365,0.000038677,0.000639872,0.000218681,0.099105127,-0.090772808,9.801667213
1784243903.401063,-0.007828022,-0.012112168,0.820248365,-0.000408576,0.000891364,0.000221856,0.113115370,-0.081242152,9.822363853
1784243903.403061,-0.007828022,-0.012112168,0.820248365,-0.000948033,0.001347861,0.000062885,0.136266515,-0.098372854,9.795377731
1784243903.405066,-0.007828022,-0.012112168,0.820248365,-0.000906923,0.001693734,-0.000052160,0.118174754,-0.071818709,9.811222076
1784243903.407062,-0.007828342,-0.012110782,0.820248306,-0.000483994,0.001474257,-0.000264333,0.127707407,-0.064587653,9.785274506
1784243903.409069,-0.007828342,-0.012110782,0.820248306,-0.000194948,0.001189578,-0.000582091,0.100503549,-0.049139809,9.804177284
1784243903.411067,-0.007827140,-0.012108838,0.820248365,-0.000041978,0.000746722,-0.000471994,0.076769866,-0.080376193,9.829060555
1784243903.413073,-0.007827140,-0.012108838,0.820248365,0.000103041,0.000189644,-0.000374990,0.136854738,-0.088361286,9.772577286
1784243903.415145,-0.007827140,-0.012108838,0.820248365,-0.000059817,0.000003589,-0.000447941,0.120984808,-0.062817670,9.800522804
1784243903.417089,-0.007826959,-0.012109193,0.820248365,-0.000341283,-0.000042965,-0.000049552,0.137996286,-0.067398109,9.783921242
1784243903.419083,-0.007826959,-0.012109193,0.820248365,-0.000257598,-0.000168882,0.000060098,0.150469616,-0.075161718,9.782089233
1784243903.421082,-0.007826758,-0.012110252,0.820248365,0.000130420,-0.000242486,-0.000455112,0.128643364,-0.059836920,9.808618546
1784243903.423084,-0.007826758,-0.012110252,0.820248365,0.000359044,-0.000242522,-0.000667758,0.125407204,-0.069464222,9.782101631
1784243903.425093,-0.007826758,-0.012110252,0.820248365,0.000469861,-0.000333272,-0.000606641,0.109115772,-0.044105265,9.773731232
1784243903.427091,-0.007825679,-0.012110112,0.820248365,0.000242223,-0.000451161,-0.000382378,0.089215793,-0.018849753,9.786426544
1784243903.429092,-0.007825679,-0.012110112,0.820248365,-0.000028080,-0.000123152,-0.000018295,0.146064758,-0.068781883,9.774953842
1784243903.431085,-0.007825801,-0.012111822,0.820248365,0.000298615,0.000073380,0.000373894,0.143549889,-0.089537412,9.799924850
1784243903.433084,-0.007825801,-0.012111822,0.820248365,0.000461344,-0.000000178,0.000910998,0.138476074,-0.102722220,9.772934914
1784243903.435093,-0.007825801,-0.012111822,0.820248365,0.000332219,0.000330320,0.000744412,0.123894006,-0.082923956,9.787394524
1784243903.437092,-0.007825783,-0.012111938,0.820248365,0.000261044,0.000933147,0.000246022,0.120227218,-0.088755518,9.794974327
1784243903.439098,-0.007825783,-0.012111938,0.820248365,0.000205615,0.001170694,0.000477531,0.109216347,-0.070769653,9.805841446
1784243903.441099,-0.007825576,-0.012111867,0.820248365,0.000141588,0.000927251,0.001095120,0.118434839,-0.051123478,9.798801422
1784243903.443093,-0.007825576,-0.012111867,0.820248365,-0.000178110,0.000678086,0.001995489,0.086695164,-0.040866490,9.799733162
1784243903.445101,-0.007825576,-0.012111867,0.820248365,-0.000409684,0.000552437,0.002344830,0.122157939,-0.075952977,9.818372726
1784243903.447114,-0.007825669,-0.012111410,0.820248365,-0.000466934,0.000519787,0.001606977,0.101580068,-0.072358824,9.791027069
1784243903.449116,-0.007825669,-0.012111410,0.820248365,-0.000818088,0.000231453,0.000724509,0.077508494,-0.095014609,9.807001114
1784243903.451118,-0.007826515,-0.012109739,0.820248365,-0.000786430,-0.000108795,0.000261890,0.125453547,-0.063424870,9.814869881
1784243903.453112,-0.007826515,-0.012109739,0.820248365,-0.000507443,-0.000037207,0.000215892,0.142677188,-0.088115260,9.790518761
1784243903.455111,-0.007826515,-0.012109739,0.820248365,-0.000627924,0.000285323,0.000688826,0.140774488,-0.095428161,9.814229965
1784243903.457117,-0.007827573,-0.012111188,0.820248365,-0.000425062,0.000748150,0.001522483,0.154825613,-0.085979812,9.783369064
1784243903.459116,-0.007827573,-0.012111188,0.820248365,0.000337572,0.000991567,0.001660902,0.163278908,-0.051905073,9.827981949
1784243903.461115,-0.007826298,-0.012112896,0.820248365,0.000564254,0.000673552,0.000928072,0.127309546,-0.060127724,9.788888931
1784243903.463116,-0.007826298,-0.012112896,0.820248365,0.000125277,-0.000165791,0.000750905,0.125061110,-0.061353832,9.776326180
1784243903.465118,-0.007826298,-0.012112896,0.820248365,-0.000263541,-0.000383063,0.001039118,0.131168932,-0.074155293,9.801356316
1784243903.467118,-0.007825732,-0.012113493,0.820248365,-0.000466586,0.000072974,0.000729126,0.120633684,-0.092742041,9.787775993
1784243903.469118,-0.007825732,-0.012113493,0.820248365,-0.000455450,0.000096605,0.000646248,0.113415495,-0.094578616,9.807037354
1784243903.471120,-0.007826174,-0.012113096,0.820248365,-0.000411615,0.000182333,0.001091761,0.134472698,-0.060346894,9.806828499
1784243903.473150,-0.007826174,-0.012113096,0.820248365,-0.000144214,0.000173349,0.000910838,0.150882363,-0.076667145,9.804049492
1784243903.475123,-0.007826174,-0.012113096,0.820248365,0.000372809,-0.000194884,0.000488706,0.099321201,-0.071640842,9.820172310
1784243903.477122,-0.007825771,-0.012112652,0.820248365,0.001094126,-0.000183847,0.000995622,0.104712591,-0.073275916,9.788335800
1784243903.479124,-0.007825771,-0.012112652,0.820248365,0.001291807,-0.000265810,0.001941541,0.106363475,-0.084161259,9.803958893
1784243903.481128,-0.007826158,-0.012112456,0.820248365,0.000770198,-0.000152365,0.001980675,0.106328569,-0.048468076,9.825259209
1784243903.483129,-0.007826158,-0.012112456,0.820248365,0.000381101,0.000653333,0.001525798,0.127312094,-0.058891952,9.804141045
1784243903.485126,-0.007826158,-0.012112456,0.820248365,0.000495330,0.001183318,0.000978119,0.149124116,-0.071897820,9.829633713
1784243903.487128,-0.007825673,-0.012113927,0.820248365,0.000883251,0.001314352,0.000542099,0.141793698,-0.085562252,9.811158180
1784243903.489136,-0.007825673,-0.012113927,0.820248365,0.001255053,0.001283296,0.000151693,0.115844168,-0.080177225,9.793682098
1784243903.491155,-0.007826148,-0.012113120,0.820248365,0.001249629,0.000708112,-0.000533371,0.093512408,-0.070968695,9.799098969
1784243903.493146,-0.007826148,-0.012113120,0.820248365,0.000697556,-0.000157188,-0.000674754,0.126039475,-0.089805670,9.806180954
1784243903.495146,-0.007826148,-0.012113120,0.820248365,0.000516335,-0.000377168,-0.000576543,0.127322182,-0.055975620,9.835094452
1784243903.497146,-0.007824588,-0.012113470,0.820248365,0.000573276,0.000233954,-0.000410140,0.141803429,-0.048706047,9.794805527
1784243903.499146,-0.007824588,-0.012113470,0.820248365,0.000436801,0.000985837,-0.000088921,0.153725863,-0.064565361,9.798300743
1784243903.501151,-0.007824801,-0.012114695,0.820248365,0.000388652,0.001192919,-0.000163614,0.132537529,-0.073184416,9.788362503
1784243903.503145,-0.007824801,-0.012114695,0.820248365,0.000783798,0.000979707,-0.000309631,0.129596099,-0.093759313,9.788676262
1784243903.505155,-0.007824801,-0.012114695,0.820248365,0.001048445,0.000373990,-0.000310238,0.125718966,-0.079061575,9.808044434
1784243903.507149,-0.007824819,-0.012114634,0.820248365,0.000499294,-0.000236051,-0.000836302,0.131742194,-0.066288151,9.765091896
1784243903.509154,-0.007824819,-0.012114634,0.820248365,-0.000201974,-0.000154016,-0.001415650,0.109736986,-0.064939186,9.804084778
