time_sec,roll_rad,pitch_rad,yaw_rad,gyro_x,gyro_y,gyro_z,acc_x,acc_y,acc_z
1784243566.171123,-0.003971376,-0.009694841,0.882696688,-0.000399478,0.001373945,0.001092046,0.112865061,-0.068728097,9.764162064
1784243566.173056,-0.003971376,-0.009694841,0.882696688,-0.000133246,0.001031945,0.001722029,0.078745000,-0.031254075,9.785440445
1784243566.175065,-0.003971127,-0.009694334,0.882696688,-0.001183432,0.000944748,0.001439766,0.074671298,-0.032292213,9.812778473
1784243566.177059,-0.003971127,-0.009694334,0.882696688,-0.002235799,0.000959309,0.000746720,0.088699654,-0.025455315,9.771141052
1784243566.179043,-0.003970111,-0.009694313,0.882696688,-0.002357735,0.000457216,0.000528840,0.087673180,-0.035378449,9.782285690
1784243566.181058,-0.003970111,-0.009694313,0.882696688,-0.002011188,0.000300530,0.000733010,0.082650565,-0.043295838,9.770572662
1784243566.183088,-0.003970111,-0.009694313,0.882696688,-0.001242046,0.001030097,0.000345713,0.100572534,-0.044542555,9.787617683
1784243566.185047,-0.003970424,-0.009693593,0.882696688,-0.000012473,0.001502690,-0.000314782,0.127733424,-0.061950758,9.792464256
1784243566.187070,-0.003970424,-0.009693593,0.882696688,0.000765858,0.001055384,-0.000656127,0.109033369,-0.050024144,9.787143707
1784243566.189040,-0.003970877,-0.009693933,0.882696688,0.000693718,0.000160112,-0.000854827,0.111399859,-0.039355882,9.794836044
1784243566.191058,-0.003970877,-0.009693933,0.882696688,0.000514737,-0.000350380,-0.000403279,0.094692171,-0.011303408,9.786481857
1784243566.193077,-0.003970877,-0.009693933,0.882696688,0.000570143,-0.000098948,0.000687613,0.081818543,-0.035878863,9.800209045
1784243566.195070,-0.003971020,-0.009692716,0.882696688,0.000666241,0.000139939,0.001103628,0.083366729,-0.018495575,9.810185432
1784243566.197031,-0.003971020,-0.009692716,0.882696688,0.000571023,-0.000040695,0.000826793,0.089919634,-0.034168240,9.797089577
1784243566.199079,-0.003971281,-0.009692299,0.882696688,0.000462942,-0.000353409,0.000876777,0.092840232,-0.050131962,9.831510544
1784243566.201045,-0.003971281,-0.009692299,0.882696688,0.000259079,-0.000366202,0.001293277,0.100234658,-0.035961956,9.778706551
1784243566.203068,-0.003971281,-0.009692299,0.882696688,0.000259923,0.000054960,0.001581277,0.089185007,-0.057088006,9.808150291
1784243566.205067,-0.003971734,-0.009691792,0.882696688,0.000926613,0.000102269,0.001844849,0.079308845,-0.055782977,9.831461906
1784243566.207116,-0.003971734,-0.009691792,0.882696688,0.001445676,-0.000115727,0.002053557,0.078298204,-0.029612282,9.807420731
1784243566.209074,-0.003971254,-0.009690958,0.882696688,0.001195520,-0.000028789,0.001393639,0.047458652,-0.017724402,9.829434395
1784243566.211081,-0.003971254,-0.009690958,0.882696688,0.001068672,0.000054382,0.000515953,0.086710081,-0.037912004,9.825307846
1784243566.213140,-0.003971254,-0.009690958,0.882696688,0.001371493,0.000034285,0.000598820,0.108715184,-0.037640832,9.810534477
1784243566.215069,-0.003971247,-0.009692056,0.882696688,0.001250649,0.000081086,0.000045225,0.080265462,-0.014900256,9.814240456
1784243566.217095,-0.003971752,-0.009689351,0.882683814,0.000824032,0.000323906,-0.001512753,0.098948739,-0.032227475,9.759900093
1784243566.219106,-0.003964712,-0.009688794,0.882685483,0.000999325,0.000472798,-0.001870880,0.100511149,-0.048269335,9.807769775
1784243566.221076,-0.003957890,-0.009687252,0.882682443,0.001630860,0.000499740,-0.001463509,0.095224701,-0.078127272,9.794571877
1784243566.223074,-0.003958592,-0.009685907,0.882684708,0.001603043,0.000560294,-0.001113135,0.079108536,-0.075601004,9.783363342
1784243566.225072,-0.003967347,-0.009677932,0.882687926,0.000645749,0.000989948,-0.000442040,0.078109525,-0.045691188,9.800590515
1784243566.227078,-0.003973093,-0.009677056,0.882688224,-0.000395224,0.001271428,-0.000080238,0.075185083,-0.026515804,9.818644524
1784243566.229072,-0.003975126,-0.009675541,0.882693231,-0.000851000,0.001058464,0.000307844,0.077952974,-0.019468773,9.830798149
1784243566.231078,-0.003978768,-0.009672314,0.882697940,-0.001037333,0.001061974,0.000880503,0.077173792,-0.048008524,9.813128471
1784243566.233102,-0.003975464,-0.009672331,0.882698059,-0.000775329,0.000990237,0.000972964,0.104572766,-0.047326583,9.793882370
1784243566.235077,-0.003976170,-0.009672821,0.882696927,-0.000351009,0.000703905,0.000642248,0.094857953,-0.033805784,9.800235748
1784243566.237077,-0.003980353,-0.009681497,0.882691741,-0.000553682,-0.000090926,0.000036210,0.087900862,-0.052934170,9.793379784
1784243566.239123,-0.003981080,-0.009689447,0.882681012,-0.000723735,-0.001205812,-0.001040118,0.084968485,-0.035442527,9.796179771
1784243566.241084,-0.003978027,-0.009689197,0.882680297,-0.000353543,-0.001413120,-0.001531227,0.076419897,-0.037137851,9.797953606
1784243566.243069,-0.003975220,-0.009679941,0.882685840,0.000143352,-0.000385286,-0.000798957,0.077251881,-0.040907923,9.822589874
1784243566.245103,-0.003975220,-0.009679941,0.882685840,0.000492841,0.000972931,0.000171113,0.077251881,-0.040907923,9.822589874
1784243566.247064,-0.003975157,-0.009679107,0.882687211,0.000486924,0.001176212,0.000385606,0.080990978,-0.066826940,9.806286812
1784243566.249064,-0.003973794,-0.009685696,0.882687092,0.000453750,0.000246983,0.000156725,0.106414244,-0.043333821,9.796149254
1784243566.251087,-0.003968706,-0.009692102,0.882688224,0.000842005,-0.000705604,0.000187678,0.138568118,-0.017900182,9.816071510
1784243566.253081,-0.003968378,-0.009693419,0.882691085,0.000983632,-0.001039264,0.000410579,0.141405031,-0.007065964,9.799554825
1784243566.255068,-0.003966851,-0.009694058,0.882693648,0.000784503,-0.000793648,0.000665462,0.113067448,-0.012114269,9.804426193
1784243566.257054,-0.003965642,-0.009691666,0.882693052,0.000696972,-0.000361912,0.000617968,0.074558385,-0.042909738,9.793881416
1784243566.259159,-0.003969301,-0.009685275,0.882686853,0.000402922,0.000264726,-0.000010968,0.085098580,-0.060658105,9.813504219
1784243566.261064,-0.003970176,-0.009684439,0.882680953,0.000043773,0.000617006,-0.000830988,0.087345436,-0.062281556,9.785698891
1784243566.263100,-0.003973595,-0.009687703,0.882678926,-0.000498173,0.000065812,-0.001288895,0.093630604,-0.058283072,9.842220306
1784243566.265092,-0.003983047,-0.009684689,0.882634580,-0.000921071,-0.000553846,-0.001149202,0.067962348,-0.055879671,9.802459717
1784243566.267105,-0.003982132,-0.009683615,0.882634342,-0.000700354,-0.000490162,-0.000773780,0.088483356,-0.041346993,9.801077843
1784243566.269085,-0.003981953,-0.009684609,0.882630348,-0.000477291,-0.000334305,-0.000848582,0.099271223,-0.001718789,9.816585541
1784243566.271120,-0.003984604,-0.009688276,0.882634461,-0.000554026,-0.000543942,-0.000616426,0.107814781,-0.040895056,9.765680313
1784243566.273131,-0.003984604,-0.009688276,0.882634461,-0.000758051,-0.000896486,0.000110955,0.107814781,-0.040895056,9.765680313
1784243566.275092,-0.003983343,-0.009686107,0.882619441,-0.000484940,-0.000775226,-0.000114556,0.087552302,-0.044032797,9.802404404
1784243566.277089,-0.003974053,-0.009684572,0.882615566,-0.000028970,-0.000399681,-0.000601761,0.071012750,-0.037653547,9.817225456
1784243566.279106,-0.003975051,-0.009685867,0.882617235,-0.000007922,-0.000342388,-0.000362675,0.084093586,-0.034442894,9.783184052
1784243566.281209,-0.003977683,-0.009689001,0.882620275,-0.000249036,-0.000551424,0.000062417,0.093048699,-0.034707319,9.804262161
1784243566.283171,-0.003978156,-0.009693299,0.882616699,-0.000444040,-0.000899274,0.000009936,0.111314707,-0.046107091,9.799275398
1784243566.285149,-0.003977799,-0.009695398,0.882615805,-0.000385794,-0.001081181,-0.000298357,0.085188396,-0.054275360,9.797852516
1784243566.287113,-0.003979311,-0.009695699,0.882624209,-0.000324509,-0.000966894,0.000290792,0.072894335,-0.030912613,9.810993195
1784243566.289126,-0.003978815,-0.009698354,0.882633209,-0.000263824,-0.000924015,0.001405749,0.114686809,-0.027301176,9.794916153
1784243566.291126,-0.003976081,-0.009698628,0.882635772,0.000034646,-0.000875085,0.001821347,0.098348193,-0.041930974,9.802428246
1784243566.293122,-0.003973111,-0.009699567,0.882638812,0.000399465,-0.000676491,0.001710056,0.064571343,-0.052206334,9.796051979
1784243566.295123,-0.003970408,-0.009703027,0.882641137,0.000662937,-0.000747672,0.001609724,0.066620708,-0.067951873,9.801333427
1784243566.297114,-0.003969197,-0.009700216,0.882636845,0.000839958,-0.000616275,0.001032179,0.107885852,-0.034255128,9.776931763
1784243566.299128,-0.003969361,-0.009698601,0.882638335,0.000773878,-0.000176134,0.000558898,0.109384194,-0.024559947,9.733954430
1784243566.301122,-0.003970966,-0.009704666,0.882641852,0.000447008,-0.000431785,0.000752018,0.102621049,-0.024731264,9.770262718
1784243566.303148,-0.003974289,-0.009708342,0.882639110,-0.000047427,-0.000973473,0.000601487,0.099042423,-0.023382716,9.776095390
1784243566.305154,-0.003974565,-0.009704318,0.882629991,-0.000325809,-0.000679687,-0.000370694,0.097466096,-0.041798647,9.785391808
1784243566.307128,-0.003973222,-0.009701150,0.882629573,-0.000162148,0.000015364,-0.000913190,0.091293417,-0.032345951,9.790377617
1784243566.309152,-0.003969208,-0.009702245,0.882635593,0.000258247,0.000170160,-0.000280919,0.095071591,-0.055119708,9.772750854
1784243566.311160,-0.003967266,-0.009706212,0.882634163,0.000595374,-0.000220941,0.000104718,0.084726237,-0.054781169,9.806817055
1784243566.313152,-0.003963293,-0.009708073,0.882631242,0.000895901,-0.000574679,-0.000228407,0.071442053,-0.039838687,9.808691978
1784243566.315160,-0.003962078,-0.009708581,0.882626891,0.001063606,-0.000596614,-0.000668422,0.080476411,-0.035019744,9.807835579
1784243566.317128,-0.003967296,-0.009705377,0.882622957,0.000502598,-0.000262911,-0.001042262,0.086878493,-0.060798749,9.830092430
1784243566.319121,-0.003967447,-0.009704023,0.882623255,0.000004138,0.000105270,-0.001007165,0.094016865,-0.067292191,9.785223961
1784243566.321129,-0.003965243,-0.009706938,0.882622957,0.000142340,-0.000029452,-0.000730321,0.078585975,-0.041830629,9.823929787
1784243566.323136,-0.003965229,-0.009705571,0.882620215,0.000279070,-0.000180763,-0.000727451,0.088847585,-0.049314290,9.786681175
1784243566.325122,-0.003966366,-0.009701813,0.882615924,0.000149214,0.000163233,-0.001012024,0.084146567,-0.066346094,9.795982361
1784243566.327157,-0.003966041,-0.009703327,0.882622242,0.000106011,0.000283518,-0.000606214,0.092155322,-0.034664031,9.799777985
1784243566.329132,-0.003963616,-0.009703076,0.882628620,0.000323378,0.000130045,0.000410538,0.072458394,-0.032021821,9.778704643
1784243566.331128,-0.003963559,-0.009699620,0.882635474,0.000412832,0.000342749,0.001189033,0.078590721,-0.043819245,9.788498878
1784243566.333120,-0.003967994,-0.009698164,0.882638276,0.000026190,0.000468014,0.001520602,0.111229070,-0.017298287,9.780631065
1784243566.335124,-0.003967199,-0.009705842,0.882640183,-0.000208643,-0.000195210,0.001433085,0.094908871,-0.030161677,9.791739464
1784243566.337118,-0.003962798,-0.009704532,0.882638693,0.000182608,-0.000574660,0.001081972,0.099757202,-0.036588587,9.804705620
1784243566.339124,-0.003969316,-0.009702316,0.882637560,-0.000030858,-0.000178411,0.000612524,0.112150811,-0.051465511,9.795207024
1784243566.341128,-0.003973540,-0.009703843,0.882641315,-0.000749837,-0.000083877,0.000629595,0.097339801,-0.013310988,9.812025070
1784243566.343120,-0.003970229,-0.009706587,0.882651925,-0.000664132,-0.000332438,0.001435511,0.081774056,-0.039472088,9.801531792
1784243566.345131,-0.003967261,-0.009705813,0.882657945,-0.000112149,-0.000357684,0.002168672,0.089933500,-0.033653509,9.787678719
1784243566.347130,-0.003959611,-0.009707376,0.882654369,0.000654633,-0.000302144,0.001747018,0.089075394,-0.030900193,9.780073166
1784243566.349126,-0.003950341,-0.009706371,0.882646143,0.001631590,-0.000242219,0.000465823,0.080146529,-0.025565475,9.802067757
1784243566.351164,-0.003949860,-0.009702891,0.882639945,0.001841015,0.000131944,-0.000646989,0.067892835,-0.035421193,9.823960304
1784243566.353128,-0.003953832,-0.009695455,0.882639825,0.001074086,0.000770986,-0.000897474,0.087188646,-0.035655688,9.822182655
1784243566.355156,-0.003957987,-0.009692474,0.882641971,0.000206258,0.001200314,-0.000502984,0.111551464,-0.063996300,9.794229507
1784243566.357134,-0.003955941,-0.009695175,0.882634699,0.000111368,0.000934295,-0.000705373,0.086485907,-0.056297485,9.827878952
1784243566.359154,-0.003960349,-0.009699071,0.882629871,0.000020266,0.000275750,-0.001342834,0.080362231,-0.044836733,9.802392960
1784243566.361140,-0.003965619,-0.009699526,0.882633150,-0.000643285,-0.000093987,-0.001085481,0.082272485,0.001746692,9.800900459
1784243566.363137,-0.003964241,-0.009697584,0.882634819,-0.000871141,-0.000044872,-0.000444527,0.102670893,-0.017043157,9.823215485
1784243566.365191,-0.003965477,-0.009700460,0.882632852,-0.000766827,-0.000171786,-0.000339111,0.076754197,-0.046557151,9.798790932
1784243566.367142,-0.003968606,-0.009696503,0.882631600,-0.000869397,-0.000099106,-0.000460251,0.096726529,-0.028383289,9.790408134
1784243566.369182,-0.003961800,-0.009691251,0.882632613,-0.000396172,0.000504690,-0.000345990,0.120378852,-0.041052848,9.765243530
1784243566.371156,-0.003956614,-0.009691278,0.882630587,0.000524897,0.000722677,-0.000317228,0.073184632,-0.007142056,9.807110786
1784243566.373148,-0.003958405,-0.009694155,0.882626772,0.000503221,0.000296966,-0.000625565,0.080566503,-0.029850522,9.773796082
1784243566.375146,-0.003957789,-0.009692817,0.882629633,0.000180274,0.000078156,-0.000525232,0.087348193,-0.061449230,9.794670105
1784243566.377147,-0.003953704,-0.009695613,0.882633150,0.000522528,-0.000072573,0.000054276,0.094132580,-0.056652408,9.800984383
1784243566.379149,-0.003955258,-0.009700345,0.882633865,0.000623086,-0.000593868,0.000329498,0.124693707,-0.054222044,9.782199860
1784243566.381145,-0.003957231,-0.009694995,0.882633924,0.000215002,-0.000391023,0.000297802,0.088512197,-0.038687836,9.805130005
1784243566.383150,-0.003957352,-0.009688287,0.882638156,-0.000001953,0.000546407,0.000513913,0.094149217,-0.055305343,9.800545692
1784243566.385145,-0.003955663,-0.009688283,0.882639050,0.000089079,0.000866313,0.000723876,0.090072468,-0.055962291,9.837300301
1784243566.387150,-0.003952491,-0.009687584,0.882637084,0.000423100,0.000685039,0.000459757,0.095592640,-0.046449218,9.812707901
1784243566.389154,-0.003952917,-0.009686229,0.882637978,0.000522771,0.000644527,0.000267631,0.097259924,-0.058420908,9.792009354
1784243566.391159,-0.003953603,-0.009681433,0.882641494,0.000308166,0.000885886,0.000489758,0.103882290,-0.029876396,9.798475266
1784243566.393153,-0.003943223,-0.009678291,0.882641613,0.000859003,0.001234412,0.000599506,0.093718424,-0.017163096,9.793169022
1784243566.395159,-0.003943331,-0.009675080,0.882639945,0.001296096,0.001382031,0.000335936,0.084883347,-0.004603773,9.807137489
1784243566.397155,-0.003952224,-0.009672674,0.882639468,0.000275755,0.001414231,0.000105278,0.074218385,-0.035561729,9.769269943
1784243566.399162,-0.003958842,-0.009670736,0.882646263,-0.000903820,0.001348854,0.000513716,0.064069934,-0.056264032,9.800510406
1784243566.401167,-0.003956598,-0.009672586,0.882643878,-0.000952525,0.000987386,0.000666383,0.087582506,-0.040957484,9.810941696
1784243566.403173,-0.003954083,-0.009678478,0.882636428,-0.000395325,0.000147563,-0.000181416,0.128610045,-0.064557821,9.779446602
1784243566.405206,-0.003955620,-0.009680296,0.882638216,-0.000243215,-0.000463274,-0.000510598,0.104317240,-0.032017026,9.783667564
1784243566.407177,-0.003955778,-0.009682976,0.882640898,-0.000311925,-0.000640545,-0.000063228,0.085134953,-0.059155241,9.791096687
1784243566.409197,-0.003950154,-0.009685407,0.882644773,0.000125426,-0.000811824,0.000407630,0.090467282,-0.063687935,9.788830757
1784243566.411188,-0.003950229,-0.009681659,0.882640600,0.000467919,-0.000501998,0.000283757,0.098316662,-0.043395683,9.819454193
1784243566.413175,-0.003954059,-0.009676808,0.882639825,0.000036452,0.000219020,-0.000129738,0.101995908,-0.075055517,9.791459084
1784243566.415172,-0.003956066,-0.009675171,0.882639468,-0.000406590,0.000600119,-0.000179247,0.075020850,-0.078370564,9.802171707
1784243566.417172,-0.003960547,-0.009673472,0.882642448,-0.000624636,0.000586969,0.000054010,0.115867607,-0.040376067,9.804247856
1784243566.419178,-0.003961838,-0.009676620,0.882644594,-0.000733187,0.000251756,0.000402719,0.109914064,-0.012172597,9.818322182
1784243566.421184,-0.003958550,-0.009675048,0.882646978,-0.000395530,0.000075392,0.000603634,0.089517146,-0.029339848,9.811915398
1784243566.423179,-0.003956367,-0.009668808,0.882648289,0.000019576,0.000521507,0.000681262,0.083253764,-0.065892994,9.796879768
1784243566.425184,-0.003956482,-0.009667980,0.882645011,0.000087272,0.000797354,0.000358078,0.062758997,-0.051916618,9.821607590
1784243566.427186,-0.003957126,-0.009668305,0.882642984,0.000041644,0.000532679,-0.000096725,0.077143058,-0.052303717,9.787096977
1784243566.429188,-0.003953425,-0.009674430,0.882648468,0.000273092,-0.000134619,0.000165443,0.094489388,-0.065083563,9.788825989
1784243566.431188,-0.003953632,-0.009679702,0.882647276,0.000438841,-0.000873029,0.000409174,0.085823081,-0.039844602,9.783600807
1784243566.433201,-0.003953723,-0.009677498,0.882644355,0.000277555,-0.000864394,0.000011669,0.089117393,-0.064105928,9.787034035
1784243566.435192,-0.003953868,-0.009675880,0.882644117,0.000164955,-0.000390619,-0.000203089,0.088289380,-0.094247125,9.805669785
1784243566.437198,-0.003962816,-0.009671524,0.882639229,-0.000313150,0.000085561,-0.000485801,0.115285225,-0.053583398,9.772331238
1784243566.439198,-0.003971942,-0.009665826,0.882636368,-0.001272785,0.000710139,-0.000871695,0.148584858,-0.006748143,9.804944038
1784243566.441205,-0.003971568,-0.009658660,0.882642567,-0.001519131,0.001389708,-0.000410720,0.104713514,-0.034462895,9.811896324
1784243566.443251,-0.003975694,-0.009656757,0.882647514,-0.001394452,0.001698285,0.000448042,0.084408388,-0.044421438,9.799709320
1784243566.445232,-0.003982649,-0.009663825,0.882651985,-0.001802076,0.000957051,0.000977207,0.085094959,-0.025933595,9.781894684
1784243566.447241,-0.003980472,-0.009664193,0.882652402,-0.001667112,0.000162306,0.001055085,0.102033719,-0.036356602,9.767945290
1784243566.449209,-0.003978740,-0.009661799,0.882651985,-0.000982411,0.000227094,0.000773352,0.111475565,-0.070674382,9.788358688
1784243566.451229,-0.003975730,-0.009659166,0.882656276,-0.000391291,0.000505736,0.000822274,0.114545263,-0.040171221,9.777796745
1784243566.453214,-0.003978222,-0.009651110,0.882655561,-0.000263487,0.001126081,0.000841706,0.096090466,-0.043230213,9.800176620
1784243566.455235,-0.003984763,-0.009648100,0.882656991,-0.000820610,0.001604113,0.000674456,0.084976256,-0.034165412,9.805603027
1784243566.457213,-0.003989764,-0.009654666,0.882660031,-0.001382823,0.000926536,0.000799378,0.102383070,-0.004014739,9.818815231
1784243566.459237,-0.003985675,-0.009657068,0.882658541,-0.001072637,0.000066402,0.000690913,0.133606434,-0.021283906,9.796766281
1784243566.461216,-0.003979173,-0.009654200,0.882660687,-0.000062067,0.000079756,0.000544503,0.103859849,-0.031674601,9.799361229
1784243566.463210,-0.003972840,-0.009653648,0.882660031,0.000802692,0.000285758,0.000493298,0.107823126,-0.039208140,9.780487061
1784243566.465214,-0.003971903,-0.009654949,0.882655978,0.001050874,0.000154503,0.000038630,0.114909142,-0.046114929,9.793899536
1784243566.467217,-0.003975993,-0.009658231,0.882646382,0.000597989,-0.000146620,-0.000890452,0.123632953,-0.066442214,9.801398277
1784243566.469225,-0.003977197,-0.009658983,0.882643700,0.000123604,-0.000328983,-0.001477043,0.092401996,-0.050043542,9.819855690
1784243566.471224,-0.003980714,-0.009666095,0.882650137,-0.000227899,-0.000774395,-0.000823011,0.076026738,-0.033046398,9.790358543
1784243566.473248,-0.003979668,-0.009675031,0.882648885,-0.000345829,-0.001677002,-0.000241246,0.060880810,-0.023472358,9.794441223
1784243566.475230,-0.003979012,-0.009673157,0.882648826,-0.000152837,-0.001722808,-0.000264880,0.067763247,-0.046575703,9.817611694
1784243566.477260,-0.003980720,-0.009667296,0.882653058,-0.000129726,-0.000839165,0.000083861,0.088974707,-0.037368782,9.807827950
1784243566.479231,-0.003979255,-0.009664369,0.882653117,-0.000057915,-0.000124146,0.000356452,0.107007958,-0.030847538,9.803403854
1784243566.481230,-0.003980762,-0.009664329,0.882654071,-0.000044359,0.000110496,0.000336753,0.117186025,-0.045069698,9.768802643
1784243566.483226,-0.003978805,-0.009663709,0.882659674,0.000017716,0.000170658,0.000682905,0.120879866,-0.034161493,9.803396225
1784243566.485230,-0.003976528,-0.009661585,0.882657945,0.000318042,0.000356836,0.000755754,0.106798157,-0.047498416,9.814058304
1784243566.487235,-0.003980074,-0.009667288,0.882657111,0.000189249,0.000030778,0.000390507,0.090719797,-0.041026339,9.814980507
1784243566.489231,-0.003978509,-0.009675508,0.882660985,0.000050751,-0.000910563,0.000499524,0.069139682,-0.045137782,9.801931381
1784243566.491235,-0.003976889,-0.009678691,0.882664859,0.000258221,-0.001439533,0.000887186,0.051718026,-0.038626213,9.799715042
1784243566.493237,-0.003974989,-0.009677997,0.882666886,0.000450892,-0.001356575,0.001045906,0.092795700,-0.018161988,9.809300423
1784243566.495238,-0.003976771,-0.009681662,0.882665157,0.000356742,-0.001327286,0.000781898,0.124099612,-0.026284702,9.824073792
1784243566.497240,-0.003979713,-0.009681205,0.882661164,-0.000124332,-0.001082967,0.000174966,0.107702069,-0.048269112,9.794774055
1784243566.499243,-0.003987056,-0.009682157,0.882659078,-0.000852462,-0.000720808,-0.000284803,0.103186674,-0.014087691,9.784678459
1784243566.501243,-0.003992619,-0.009690557,0.882657468,-0.001499409,-0.001158799,-0.000443317,0.114943154,-0.007851249,9.768589973
1784243566.503243,-0.003989535,-0.009698787,0.882659197,-0.001396866,-0.001863592,-0.000307305,0.093972050,-0.034108698,9.781402588
1784243566.505266,-0.003983845,-0.009698824,0.882659674,-0.000556898,-0.001810078,-0.000077484,0.079494812,-0.044183310,9.775048256
1784243566.507246,-0.003981680,-0.009698255,0.882659495,0.000132309,-0.001339171,-0.000033896,0.071117990,-0.029933279,9.802478790
1784243566.509252,-0.003981035,-0.009696912,0.882659912,0.000291857,-0.000902431,-0.000002164,0.061172262,-0.033635318,9.836966515
1784243566.511255,-0.003977150,-0.009693214,0.882658780,0.000519659,-0.000315043,-0.000049578,0.117014572,-0.056554891,9.809077263
1784243566.513253,-0.003975976,-0.009689908,0.882652640,0.000778847,0.000276618,-0.000534353,0.102931142,-0.033531252,9.810108185
1784243566.515249,-0.003971330,-0.009692842,0.882648766,0.001017461,0.000258226,-0.001070450,0.107626684,-0.053727310,9.806396484
1784243566.517250,-0.003968082,-0.009694428,0.882650256,0.001313271,-0.000065684,-0.000939024,0.119730420,-0.054781642,9.806849480
1784243566.519256,-0.003968256,-0.009693345,0.882651865,0.001205350,-0.000030498,-0.000463197,0.103709899,-0.042584654,9.821708679
1784243566.521257,-0.003964903,-0.009689110,0.882651210,0.001094623,0.000338351,-0.000259116,0.092279091,-0.023960656,9.806572914
1784243566.523263,-0.003964735,-0.009693475,0.882647395,0.001011363,0.000285419,-0.000491328,0.071543269,-0.032150216,9.798430443
1784243566.525260,-0.003967300,-0.009702157,0.882639825,0.000544540,-0.000627844,-0.001135358,0.074238360,-0.030135687,9.825346947
1784243566.527269,-0.003968581,-0.009701967,0.882631302,0.000098871,-0.001092135,-0.001910456,0.084233284,-0.058772091,9.801857948
1784243566.529280,-0.003968754,-0.009700618,0.882633388,-0.000057235,-0.000752198,-0.001821196,0.115983948,-0.067726523,9.806762695
1784243566.531288,-0.003971023,-0.009700035,0.882631600,-0.000207227,-0.000416938,-0.001304445,0.129046127,-0.065878838,9.775403976
1784243566.533295,-0.003973993,-0.009704383,0.882630765,-0.000409728,-0.000476469,-0.001128407,0.125828013,-0.033316094,9.801611900
1784243566.535275,-0.003968055,-0.009708398,0.882629335,-0.000000146,-0.000831940,-0.000982968,0.070400856,-0.052309692,9.800092697
1784243566.537268,-0.003965050,-0.009707636,0.882628560,0.000643838,-0.000896743,-0.000857334,0.105935104,-0.045999944,9.793891907
1784243566.539308,-0.003968387,-0.009708101,0.882626355,0.000482862,-0.000702835,-0.000819624,0.091076247,-0.050270755,9.791159630
1784243566.541285,-0.003969911,-0.009709651,0.882627308,0.000020849,-0.000648518,-0.000684874,0.085667148,-0.051612418,9.800559998
1784243566.543280,-0.003966714,-0.009709216,0.882629216,0.000208078,-0.000598368,-0.000296990,0.074372783,-0.018943019,9.826313019
1784243566.545308,-0.003965549,-0.009708146,0.882630467,0.000527172,-0.000383923,0.000004912,0.103650168,-0.012355653,9.792310715
1784243566.547285,-0.003965871,-0.009709886,0.882631898,0.000361190,-0.000295181,0.000187733,0.105068095,-0.042506509,9.808259010
1784243566.549279,-0.003964249,-0.009713070,0.882635474,0.000272924,-0.000519869,0.000481822,0.111287594,-0.047536824,9.811370850
1784243566.551316,-0.003959408,-0.009713638,0.882639706,0.000642676,-0.000635343,0.000877539,0.126074806,-0.050315749,9.797469139
1784243566.553290,-0.003956995,-0.009713284,0.882644713,0.001097681,-0.000254041,0.001258961,0.082589708,-0.045802735,9.808216095
1784243566.555322,-0.003960530,-0.009704206,0.882645130,0.000858235,0.000679410,0.001286844,0.082449295,-0.020263201,9.808380127
1784243566.557292,-0.003962042,-0.009703879,0.882649243,0.000229024,0.001094667,0.001250804,0.071160331,-0.027572649,9.785457611
1784243566.559304,-0.003964710,-0.009707553,0.882654667,-0.000167214,0.000530443,0.001562803,0.059235908,-0.008892397,9.826363564
1784243566.561296,-0.003969109,-0.009706153,0.882653773,-0.000598510,0.000231048,0.001447502,0.074764572,-0.026287479,9.787262917
1784243566.563290,-0.003977986,-0.009702440,0.882647991,-0.001376848,0.000400580,0.000606753,0.091776237,-0.030461287,9.776493073
1784243566.565295,-0.003984936,-0.009701258,0.882637501,-0.002123285,0.000512002,-0.000655942,0.101587035,-0.036334954,9.765705109
1784243566.567295,-0.003983960,-0.009698905,0.882637024,-0.001962441,0.000619359,-0.001213500,0.109361418,-0.059087683,9.800984383
1784243566.569296,-0.003983113,-0.009699958,0.882640600,-0.001306749,0.000541901,-0.000662941,0.099540658,-0.054913659,9.798758507
1784243566.571301,-0.003987525,-0.009699619,0.882639706,-0.001192144,0.000345615,-0.000299325,0.113754243,-0.031619843,9.773817062
1784243566.573300,-0.003990546,-0.009700891,0.882637978,-0.001342428,0.000243356,-0.000395614,0.096648902,-0.033453945,9.810549736
1784243566.575297,-0.003992348,-0.009700856,0.882641256,-0.001272005,0.000147151,-0.000176766,0.099301130,-0.037856769,9.794833183
1784243566.577304,-0.003996314,-0.009701419,0.882644236,-0.001293606,0.000093860,0.000307572,0.089541875,-0.063492395,9.826043129
1784243566.579380,-0.004000294,-0.009706128,0.882647276,-0.001457443,-0.000267240,0.000640325,0.084700927,-0.055791553,9.822948456
1784243566.581311,-0.003994341,-0.009705905,0.882648289,-0.000925204,-0.000500440,0.000739519,0.113011226,-0.055416446,9.782179832
1784243566.583306,-0.003989522,-0.009701787,0.882651925,0.000066076,-0.000029082,0.000852417,0.102244332,-0.054452494,9.792040825
1784243566.585308,-0.003989342,-0.009700954,0.882646382,0.000391943,0.000357335,0.000482976,0.133218884,-0.054737903,9.776375771
1784243566.587309,-0.003991675,-0.009703583,0.882642150,0.000210675,0.000268577,-0.000312388,0.135490313,-0.050493713,9.805547714
1784243566.589306,-0.003988067,-0.009706813,0.882657826,0.000325335,-0.000077586,0.000551165,0.101872720,-0.047759123,9.796566010
1784243566.591318,-0.003985437,-0.009707371,0.882668674,0.000677816,-0.000320861,0.002191634,0.075012282,-0.042064078,9.800163269
1784243566.593323,-0.003991408,-0.009704303,0.882667899,0.000290482,-0.000106405,0.002286696,0.068212405,-0.047388349,9.805054665
1784243566.595315,-0.003998520,-0.009708175,0.882666171,-0.000661115,-0.000171744,0.001505215,0.096309058,-0.063289285,9.785252571
1784243566.597313,-0.004000694,-0.009711532,0.882667303,-0.001033314,-0.000601563,0.001060657,0.083544590,-0.040902559,9.810491562
1784243566.599314,-0.003992016,-0.009703387,0.882670462,-0.000229591,-0.000100301,0.001067979,0.109082647,-0.007992723,9.799070358
1784243566.601321,-0.003987908,-0.009701020,0.882671833,0.000703513,0.000639098,0.001075951,0.116133377,-0.020446382,9.773440361
1784243566.603325,-0.003986636,-0.009702407,0.882670283,0.000817311,0.000609752,0.000770813,0.141863346,-0.043775298,9.794387817
1784243566.605349,-0.003983857,-0.009704263,0.882667601,0.000807348,0.000303048,0.000276009,0.118376248,-0.057664830,9.773653984
1784243566.607356,-0.003984745,-0.009702999,0.882670641,0.000782052,0.000149927,0.000222794,0.059365816,-0.037351448,9.795695305
1784243566.609339,-0.003982795,-0.009703528,0.882671595,0.000709752,0.000127408,0.000437163,0.074148774,-0.036921874,9.834716797
1784243566.611330,-0.003981570,-0.009701386,0.882668912,0.000731330,0.000202633,0.000196817,0.097118884,-0.032481104,9.798899651
1784243566.613326,-0.003975775,-0.009704396,0.882667661,0.000999142,0.000129606,-0.000122999,0.076993532,-0.025620615,9.815514565
1784243566.615326,-0.003973386,-0.009707593,0.882673979,0.001279262,-0.000288257,0.000255884,0.099310793,-0.037780456,9.784074783
1784243566.617328,-0.003971184,-0.009705491,0.882680595,0.001250156,-0.000305374,0.001056628,0.078187957,-0.037777331,9.821714401
1784243566.619328,-0.003965741,-0.009701550,0.882683277,0.001433695,0.000167477,0.001390266,0.113540716,-0.046679191,9.812723160
1784243566.621334,-0.003963203,-0.009699430,0.882681847,0.001586979,0.000533051,0.001091913,0.116732039,-0.044295210,9.786738396
1784243566.623333,-0.003961456,-0.009703901,0.882683754,0.001422279,0.000316591,0.000835332,0.082903862,-0.058217850,9.789307594
1784243566.625330,-0.003961344,-0.009703083,0.882683635,0.001138390,0.000070120,0.000737920,0.059369829,-0.074909620,9.784693718
1784243566.627335,-0.003958723,-0.009692846,0.882682145,0.001121948,0.000718029,0.000419144,0.080643728,-0.059536166,9.789744377
1784243566.629337,-0.003953417,-0.009685178,0.882677197,0.001459327,0.001656229,-0.000134861,0.099487446,-0.022607012,9.792241096
1784243566.631339,-0.003951421,-0.009682523,0.882677197,0.001555531,0.001908666,-0.000432776,0.097299285,-0.018899187,9.778813362
1784243566.633339,-0.003946200,-0.009688554,0.882680774,0.001560045,0.001171769,-0.000077381,0.099832118,-0.030323491,9.805643082
1784243566.635343,-0.003940024,-0.009696542,0.882677972,0.001845240,-0.000086953,-0.000002571,0.109317981,-0.028324878,9.759487152
1784243566.637349,-0.003930775,-0.009692995,0.882670581,0.002351307,-0.000336517,-0.000702057,0.109716550,-0.069558345,9.760566711
1784243566.639346,-0.003927502,-0.009691687,0.882673979,0.002526923,0.000111186,-0.000793233,0.110861510,-0.045326248,9.816316605
1784243566.641347,-0.003925822,-0.009692479,0.882674754,0.002179896,0.000114927,-0.000284546,0.098119587,-0.060351439,9.809931755
1784243566.643350,-0.003928741,-0.009690634,0.882671595,0.001567564,0.000214291,-0.000365302,0.087234721,-0.069639713,9.812550545
1784243566.645351,-0.003932089,-0.009693483,0.882668018,0.000777159,0.000148278,-0.000732330,0.113716505,-0.033538874,9.791737556
1784243566.647355,-0.003937694,-0.009694595,0.882670462,-0.000054659,-0.000079479,-0.000603974,0.114836805,-0.051954325,9.796104431
1784243566.649348,-0.003937311,-0.009691661,0.882671893,-0.000404055,0.000145715,-0.000164897,0.101785555,-0.019773111,9.767603874
1784243566.651356,-0.003939359,-0.009687911,0.882676959,-0.000403138,0.000558005,0.000319221,0.096833251,-0.056620132,9.791572571
1784243566.653358,-0.003942800,-0.009690894,0.882680535,-0.000605784,0.000481677,0.000813888,0.108673580,-0.042021867,9.796608925
1784243566.655354,-0.003940556,-0.009697506,0.882673800,-0.000469832,-0.000274084,0.000376519,0.098486237,-0.030709689,9.799361229
1784243566.657361,-0.003938436,-0.009697356,0.882670641,-0.000132682,-0.000644345,-0.000410065,0.095517784,-0.015934423,9.806178093
1784243566.659433,-0.003934723,-0.009691522,0.882663548,0.000212530,-0.000069077,-0.000996268,0.090642184,-0.011343873,9.799478531
1784243566.661388,-0.003931707,-0.009694708,0.882662177,0.000606005,0.000131703,-0.001297939,0.073332727,-0.033431251,9.786317825
1784243566.663456,-0.003937854,-0.009701307,0.882660687,0.000194780,-0.000634788,-0.001144810,0.083253436,-0.029116275,9.791735649
1784243566.665387,-0.003941660,-0.009702285,0.882652462,-0.000572211,-0.001041369,-0.001484448,0.074974999,-0.010036871,9.769882202
1784243566.667376,-0.003936015,-0.009696626,0.882649481,-0.000398165,-0.000480834,-0.001834245,0.077599078,-0.050225463,9.809079170
1784243566.669375,-0.003935389,-0.009698464,0.882648528,0.000034218,-0.000132771,-0.001601520,0.110201053,-0.028044216,9.781456947
1784243566.671382,-0.003933042,-0.009699500,0.882638335,0.000219338,-0.000288805,-0.001921869,0.123127960,-0.071338601,9.797780037
1784243566.673380,-0.003930938,-0.009698614,0.882630885,0.000503230,-0.000095327,-0.002604587,0.095006853,-0.060088616,9.778547287
1784243566.675385,-0.003933426,-0.009693258,0.882629633,0.000387816,0.000477311,-0.002486286,0.076633938,-0.058448598,9.770021439
1784243566.677385,-0.003933867,-0.009684660,0.882628024,0.000161072,0.001163563,-0.002001692,0.073299639,-0.070471883,9.828672409
1784243566.679389,-0.003928391,-0.009680452,0.882627964,0.000537318,0.001585215,-0.001576039,0.097840495,-0.048469760,9.777727127
1784243566.681386,-0.003924325,-0.009678358,0.882632434,0.001042127,0.001581363,-0.000852130,0.078572340,-0.007995684,9.791419029
1784243566.683380,-0.003921103,-0.009676133,0.882629633,0.001191994,0.001456019,-0.000506317,0.082278535,0.001794389,9.794174194
1784243566.685391,-0.003918454,-0.009671609,0.882621408,0.001196533,0.001533141,-0.001120110,0.091656953,-0.039102916,9.794817924
1784243566.687388,-0.003918770,-0.009674221,0.882624090,0.001068474,0.001228432,-0.001190384,0.085011750,-0.069448806,9.789685249
1784243566.689389,-0.003923524,-0.009679447,0.882624507,0.000478396,0.000342188,-0.000650358,0.097292423,-0.056543209,9.779916763
1784243566.691391,-0.003927892,-0.009678306,0.882620692,-0.000272888,-0.000027210,-0.000707221,0.102423102,-0.040883295,9.773746490
1784243566.693390,-0.003929021,-0.009679756,0.882615566,-0.000581128,-0.000008579,-0.001125751,0.100635834,-0.039179746,9.789445877
1784243566.695392,-0.003926427,-0.009677094,0.882610261,-0.000334185,0.000108568,-0.001537630,0.068946056,-0.024881572,9.789058685
1784243566.697400,-0.003922894,-0.009676263,0.882609308,0.000080242,0.000207609,-0.001548402,0.081799455,0.001155038,9.821967125
1784243566.699394,-0.003926546,-0.009676996,0.882610738,-0.000037339,0.000047416,-0.001088863,0.081179842,0.022001687,9.789820671
1784243566.701399,-0.003925911,-0.009678302,0.882609487,-0.000231818,-0.000103998,-0.000772512,0.109602533,-0.037731819,9.821744919
1784243566.703401,-0.003928864,-0.009682260,0.882605135,-0.000392567,-0.000391653,-0.000940211,0.100242086,-0.032661255,9.818629265
1784243566.705408,-0.003926019,-0.009684899,0.882596314,-0.000364752,-0.000689555,-0.001586143,0.078875437,-0.058493238,9.772264481
1784243566.707407,-0.003924911,-0.009682507,0.882594764,0.000056677,-0.000552133,-0.001855516,0.107642680,-0.051979985,9.812685013
1784243566.709410,-0.003924446,-0.009675062,0.882593274,0.000207162,0.000230536,-0.001542746,0.073063083,-0.055822946,9.785278320
1784243566.711406,-0.003921874,-0.009672933,0.882589340,0.000353575,0.000819412,-0.001495252,0.101149149,-0.070186406,9.801352501
1784243566.713403,-0.003917193,-0.009677642,0.882590830,0.000866810,0.000432836,-0.001265981,0.100276500,-0.066737488,9.821998596
1784243566.715404,-0.003914419,-0.009678705,0.882589042,0.001256045,-0.000065932,-0.000937679,0.082981944,-0.051117249,9.798768044
1784243566.717409,-0.003915912,-0.009677898,0.882586837,0.001037689,-0.000080334,-0.000950093,0.086846277,-0.026299994,9.830313683
1784243566.719412,-0.003916933,-0.009678667,0.882591069,0.000624748,-0.000072523,-0.000562298,0.061827052,-0.056635551,9.793781281
1784243566.721410,-0.003917935,-0.009677581,0.882595181,0.000323273,-0.000033484,0.000153635,0.096722327,-0.028821712,9.789061546
1784243566.723411,-0.003915643,-0.009675790,0.882599592,0.000304040,0.000136678,0.000694345,0.119175673,-0.027749399,9.786847115
1784243566.725415,-0.003913403,-0.009671288,0.882603049,0.000509646,0.000492592,0.001035731,0.099900812,-0.027349558,9.765311241
1784243566.727416,-0.003906564,-0.009670292,0.882602692,0.000949284,0.000732740,0.000959850,0.086623996,-0.045886274,9.812703133
1784243566.729428,-0.003901393,-0.009673233,0.882599354,0.001464055,0.000404378,0.000450780,0.081190713,-0.050255552,9.806841850
1784243566.731421,-0.003900221,-0.009670838,0.882601202,0.001496181,0.000257977,0.000224315,0.104961514,-0.051453013,9.806408882
1784243566.733455,-0.003902687,-0.009665431,0.882610619,0.000981553,0.000745787,0.000928282,0.088421613,-0.045887016,9.809566498
1784243566.735427,-0.003909286,-0.009665607,0.882613957,0.000080142,0.000926173,0.001547613,0.117206350,-0.041667245,9.794378281
1784243566.737431,-0.003910899,-0.009671973,0.882615387,-0.000529173,0.000304425,0.001453115,0.088598385,-0.032333713,9.793514252
1784243566.739427,-0.003906800,-0.009666700,0.882620215,-0.000246003,0.000221078,0.001477747,0.078326799,-0.029386528,9.775589943
1784243566.741427,-0.003900809,-0.009659327,0.882624388,0.000511586,0.001017271,0.001681859,0.105170861,-0.033995248,9.808313370
1784243566.743427,-0.003896312,-0.009654558,0.882624090,0.001082581,0.001617185,0.001487710,0.086481236,-0.021175897,9.803445816
1784243566.745439,-0.003896750,-0.009654265,0.882624984,0.001059899,0.001574295,0.001126282,0.109559529,-0.042529024,9.803331375
1784243566.747434,-0.003900897,-0.009656466,0.882625341,0.000477522,0.001062842,0.000913566,0.101840898,-0.050847158,9.789820671
1784243566.749429,-0.003895990,-0.009653320,0.882627428,0.000416824,0.000883881,0.000832468,0.109455258,-0.052673150,9.780849457
1784243566.751436,-0.003892738,-0.009655190,0.882629693,0.000860248,0.000729478,0.000900393,0.094062723,-0.063282803,9.788389206
1784243566.753438,-0.003901382,-0.009655389,0.882628024,0.000386446,0.000447146,0.000694938,0.058710184,-0.057621222,9.748937607
1784243566.755435,-0.003905236,-0.009651612,0.882628024,-0.000442415,0.000625554,0.000402223,0.096349739,-0.060131293,9.782135010
1784243566.757437,-0.003898663,-0.009655585,0.882629216,-0.000073155,0.000491824,0.000387630,0.084052145,-0.038417313,9.775088310
1784243566.759440,-0.003891974,-0.009660939,0.882630527,0.000912218,-0.000225737,0.000446890,0.113118075,-0.047683466,9.765642166
1784243566.761457,-0.003896107,-0.009661393,0.882627964,0.000837118,-0.000558382,0.000237133,0.084309690,-0.053710967,9.783060074
1784243566.763446,-0.003903438,-0.009657520,0.882630706,-0.000133269,-0.000179528,0.000194645,0.094671384,-0.051488936,9.766944885
1784243566.765446,-0.003912345,-0.009651567,0.882632077,-0.001161587,0.000530250,0.000436376,0.098909959,-0.033749416,9.784995079
1784243566.767456,-0.003915407,-0.009642194,0.882628322,-0.001688574,0.001425670,0.000163640,0.088845074,-0.044876389,9.855751991
1784243566.769452,-0.003915644,-0.009643505,0.882633209,-0.001481688,0.001584187,0.000197816,0.094040066,-0.027087590,9.802071571
1784243566.771451,-0.003917483,-0.009647708,0.882635772,-0.001215404,0.000777803,0.000651004,0.104575112,-0.084087394,9.796784401
1784243566.773456,-0.003920536,-0.009648332,0.882636130,-0.001110493,0.000247201,0.000674441,0.079409771,-0.049717829,9.797428131
1784243566.775456,-0.003924484,-0.009651451,0.882637858,-0.001177791,-0.000065459,0.000637542,0.093270868,-0.016337739,9.803933144
1784243566.777451,-0.003927317,-0.009653179,0.882642984,-0.001373012,-0.000365642,0.000934959,0.078459367,-0.017803131,9.784629822
1784243566.779460,-0.003929685,-0.009656319,0.882646263,-0.001407013,-0.000586152,0.001260096,0.092904039,-0.046386108,9.808670044
1784243566.781474,-0.003929095,-0.009657103,0.882649243,-0.001141581,-0.000695038,0.001353291,0.090176679,-0.047844935,9.829730034
1784243566.783458,-0.003930311,-0.009654625,0.882653832,-0.000835626,-0.000380034,0.001495765,0.102317363,-0.012233469,9.777515411
1784243566.785460,-0.003923809,-0.009654141,0.882653654,-0.000213500,-0.000063538,0.001384053,0.080841169,-0.004177199,9.817448616
1784243566.787459,-0.003919458,-0.009658024,0.882651925,0.000488753,-0.000301093,0.000885268,0.066733100,-0.020964265,9.809256554
1784243566.789463,-0.003917738,-0.009657219,0.882650971,0.000675236,-0.000452312,0.000467358,0.068546839,-0.020837812,9.788188934
1784243566.791469,-0.003911960,-0.009651421,0.882649362,0.000999287,0.000119466,0.000167014,0.110707641,-0.057888240,9.818927765
1784243566.793474,-0.003913816,-0.009650626,0.882648110,0.000982288,0.000538841,-0.000070222,0.110046603,-0.041016012,9.778683662
1784243566.795470,-0.003915628,-0.009651651,0.882651389,0.000457790,0.000379790,0.000096536,0.089043871,-0.032364897,9.797100067
1784243566.797472,-0.003918922,-0.009655386,0.882649839,-0.000018359,-0.000076937,0.000197918,0.064472616,-0.023095828,9.798033714
1784243566.799472,-0.003920096,-0.009656660,0.882644176,-0.000327788,-0.000424296,-0.000342010,0.091897242,-0.058180209,9.767796516
1784243566.801477,-0.003925669,-0.009649394,0.882635355,-0.000706320,0.000101371,-0.001236698,0.105012208,-0.047405459,9.804192543
1784243566.803474,-0.003925283,-0.009651526,0.882635057,-0.000856584,0.000462748,-0.001527353,0.097219989,-0.060762454,9.806341171
1784243566.805493,-0.003922298,-0.009653131,0.882637501,-0.000377733,0.000120931,-0.000965300,0.089434855,-0.036878876,9.801107407
1784243566.807486,-0.003922755,-0.009651831,0.882632077,-0.000116517,0.000054960,-0.000897955,0.105405182,-0.013503499,9.824585915
1784243566.809480,-0.003927910,-0.009652531,0.882625639,-0.000484621,0.000070684,-0.001463188,0.110624678,-0.029463798,9.791311264
1784243566.811488,-0.003934551,-0.009656687,0.882628918,-0.001155859,-0.000277153,-0.001281887,0.106102385,-0.032116331,9.794428825
1784243566.813484,-0.003938260,-0.009664676,0.882629514,-0.001560497,-0.000984426,-0.000664806,0.085800759,-0.040426109,9.802425385
1784243566.815484,-0.003933838,-0.009663100,0.882626176,-0.001108645,-0.001108969,-0.000663202,0.069422886,-0.058607798,9.805431366
1784243566.817484,-0.003931649,-0.009660790,0.882628500,-0.000267473,-0.000647905,-0.000549835,0.075356372,-0.050190359,9.808181763
1784243566.819486,-0.003932211,-0.009665018,0.882635593,0.000013902,-0.000708751,0.000234036,0.095999092,-0.015682617,9.769865036
1784243566.821506,-0.003927063,-0.009662671,0.882638991,0.000328353,-0.000646704,0.000878051,0.103397213,-0.034210354,9.778720856
1784243566.823493,-0.003927081,-0.009661445,0.882634342,0.000527273,-0.000218325,0.000555017,0.110065483,-0.040056497,9.769721985
1784243566.825490,-0.003931992,-0.009661094,0.882630825,-0.000015260,-0.000039959,-0.000151495,0.116987526,-0.021204725,9.815580368
1784243566.827491,-0.003931425,-0.009657297,0.882629335,-0.000336550,0.000285844,-0.000448350,0.110845365,-0.009890235,9.810715675
1784243566.829509,-0.003929495,-0.009660741,0.882629216,-0.000103837,0.000264728,-0.000430631,0.091948062,-0.015325997,9.790039062
1784243566.831500,-0.003926013,-0.009671090,0.882626772,0.000290132,-0.000742699,-0.000477049,0.075252756,-0.020307941,9.827651978
1784243566.833496,-0.003924574,-0.009669099,0.882625639,0.000472927,-0.001097050,-0.000581122,0.067315809,-0.047370490,9.804156303
1784243566.835497,-0.003928380,-0.009662666,0.882624090,0.000112020,-0.000216246,-0.000597223,0.089640342,-0.056636248,9.806809425
1784243566.837502,-0.003925037,-0.009658383,0.882622480,0.000122134,0.000584681,-0.000643734,0.097220212,-0.061165906,9.800061226
1784243566.839546,-0.003920889,-0.009657335,0.882619262,0.000668287,0.000803129,-0.000805157,0.093722835,-0.054718088,9.781718254
1784243566.841506,-0.003920498,-0.009658369,0.882616520,0.000791043,0.000587692,-0.000997483,0.100202940,-0.075423256,9.783385277
1784243566.843506,-0.003919334,-0.009655526,0.882613957,0.000773032,0.000539570,-0.001083000,0.128787547,-0.050188087,9.774607658
1784243566.845507,-0.003917026,-0.009647571,0.882615089,0.000892487,0.001113507,-0.000888969,0.115070961,-0.031869207,9.806544304
1784243566.847507,-0.003919648,-0.009648406,0.882616222,0.000633444,0.001353804,-0.000496435,0.092719175,-0.024439806,9.810156822
1784243566.849533,-0.003920992,-0.009651035,0.882623255,0.000200907,0.000808973,0.000200316,0.060602657,-0.045120753,9.814924240
1784243566.851513,-0.003925426,-0.009652287,0.882622957,-0.000241462,0.000324110,0.000598888,0.068966255,-0.022695821,9.796695709
1784243566.853515,-0.003928756,-0.009648765,0.882618606,-0.000721060,0.000301335,0.000114607,0.105114460,-0.040114079,9.786755562
1784243566.855520,-0.003927525,-0.009647155,0.882614732,-0.000688068,0.000480050,-0.000471165,0.101392768,-0.088021569,9.788685799
1784243566.857551,-0.003927909,-0.009647850,0.882610023,-0.000268152,0.000426203,-0.000934393,0.100749865,-0.102922544,9.806073189
1784243566.859532,-0.003928150,-0.009651808,0.882612705,-0.000057825,0.000007256,-0.000822822,0.128669202,-0.057606652,9.809978485
1784243566.861531,-0.003929627,-0.009650440,0.882612288,-0.000157088,-0.000171107,-0.000434358,0.118652299,-0.031575348,9.821792603
1784243566.863522,-0.003928198,-0.009646635,0.882613301,-0.000113992,0.000310459,-0.000274138,0.114199795,-0.029624259,9.807454109
1784243566.865520,-0.003926532,-0.009646369,0.882616282,0.000133011,0.000585515,0.000077175,0.092934132,-0.044527490,9.799267769
1784243566.867526,-0.003934369,-0.009648473,0.882619321,-0.000289084,0.000323517,0.000473984,0.105377942,-0.018986773,9.776577950
1784243566.869528,-0.003939331,-0.009649190,0.882618904,-0.001048774,0.000066972,0.000527297,0.075267196,-0.019383408,9.823621750
1784243566.871531,-0.003932789,-0.009649755,0.882614553,-0.000659885,-0.000036983,0.000062644,0.046796810,-0.035611659,9.825731277
1784243566.873527,-0.003928509,-0.009648940,0.882611811,0.000184072,-0.000135761,-0.000437554,0.095751740,0.000907230,9.768627167
1784243566.875537,-0.003930302,-0.009650489,0.882613003,0.000236736,-0.000275979,-0.000424129,0.128103986,-0.030657075,9.801632881
1784243566.877536,-0.003936782,-0.009654583,0.882616222,-0.000395808,-0.000463435,-0.000000699,0.125247747,-0.082880802,9.778878212
1784243566.879534,-0.003943687,-0.009653706,0.882623911,-0.001199405,-0.000436963,0.000741372,0.120598882,-0.058668993,9.784856796
1784243566.881537,-0.003942563,-0.009651585,0.882629395,-0.001257549,-0.000118262,0.001428884,0.094136447,-0.019437270,9.797188759
1784243566.883540,-0.003936390,-0.009650971,0.882630944,-0.000485337,0.000107670,0.001515797,0.088492960,-0.043297451,9.760267258
1784243566.885545,-0.003934125,-0.009654140,0.882625520,0.000147410,-0.000083943,0.000837115,0.082963638,-0.054503795,9.770949364
1784243566.887539,-0.003927670,-0.009651376,0.882624209,0.000718482,-0.000115506,0.000144909,0.062676646,-0.023892440,9.787265778
1784243566.889538,-0.003916857,-0.009644839,0.882625520,0.001719168,0.000518400,0.000096529,0.074880287,-0.015647696,9.803022385
1784243566.891544,-0.003912535,-0.009641693,0.882631898,0.002284769,0.001032743,0.000584820,0.091006644,-0.019714622,9.778801918
1784243566.893546,-0.003919240,-0.009637031,0.882637143,0.001392687,0.001257846,0.001208406,0.143420115,-0.062698513,9.806372643
1784243566.895550,-0.003924405,-0.009632706,0.882636011,0.000093955,0.001503923,0.001156658,0.130215436,-0.043886177,9.767925262
1784243566.897541,-0.003917607,-0.009639210,0.882630289,0.000172931,0.001010702,0.000376718,0.096101336,-0.043144360,9.788071632
1784243566.899545,-0.003913537,-0.009645055,0.882627308,0.000856137,-0.000038546,-0.000320673,0.065652475,-0.037393782,9.790320396
1784243566.901553,-0.003915397,-0.009646354,0.882634342,0.000776342,-0.000514011,0.000038464,0.084988914,-0.033660218,9.797535896
1784243566.903550,-0.003915426,-0.009643174,0.882631838,0.000435094,-0.000281576,0.000338971,0.055230483,-0.044549752,9.807302475
1784243566.905559,-0.003917180,-0.009645775,0.882628798,0.000187173,-0.000198047,-0.000128560,0.083969705,-0.040689286,9.842772484
1784243566.907594,-0.003917654,-0.009649461,0.882633686,-0.000035487,-0.000571823,0.000033812,0.125955015,-0.022587286,9.804820061
1784243566.909575,-0.003917390,-0.009656074,0.882636487,-0.000056937,-0.001118056,0.000547935,0.133051157,-0.030224660,9.794914246
1784243566.911566,-0.003913300,-0.009656888,0.882636368,0.000255834,-0.001319428,0.000581101,0.126100883,-0.010898960,9.799066544
1784243566.913559,-0.003911432,-0.009658949,0.882641077,0.000578456,-0.001035942,0.000734172,0.072753519,-0.042966228,9.805088043
1784243566.915562,-0.003912909,-0.009657317,0.882640898,0.000435571,-0.000663358,0.000846007,0.075651273,-0.025978198,9.805198669
1784243566.917568,-0.003917852,-0.009655071,0.882646620,-0.000173744,-0.000278934,0.000999512,0.085401133,-0.036385532,9.802003860
1784243566.919565,-0.003919162,-0.009658488,0.882650137,-0.000603856,-0.000342568,0.001362171,0.091304414,-0.031043401,9.796214104
1784243566.921570,-0.003917417,-0.009657150,0.882647812,-0.000409620,-0.000390966,0.001067554,0.107793733,-0.039440248,9.813213348
1784243566.923569,-0.003916497,-0.009654704,0.882647812,-0.000100165,0.000005385,0.000620926,0.110852592,-0.047422968,9.796128273
1784243566.925570,-0.003923730,-0.009648757,0.882642984,-0.000485723,0.000607693,0.000133872,0.107712872,-0.047373183,9.794781685
1784243566.927570,-0.003932763,-0.009643483,0.882642806,-0.001415265,0.001251564,-0.000238881,0.115892172,-0.040182106,9.776900291
1784243566.929566,-0.003934620,-0.009647954,0.882646620,-0.001721798,0.001010999,0.000081917,0.092612140,-0.032579415,9.820864677
1784243566.931582,-0.003930307,-0.009658041,0.882641733,-0.001088210,-0.000251449,-0.000014013,0.083735339,-0.025617832,9.802967072
1784243566.933574,-0.003922915,-0.009663428,0.882635772,-0.000048063,-0.001317265,-0.000751709,0.090975158,-0.021989403,9.783719063
1784243566.935574,-0.003922532,-0.009665522,0.882632792,0.000444028,-0.001551635,-0.001160153,0.075657316,-0.025930505,9.798474312
1784243566.937574,-0.003920597,-0.009665178,0.882640123,0.000461122,-0.001328242,-0.000553455,0.081170864,-0.016874935,9.775224686
1784243566.939581,-0.003917895,-0.009667048,0.882643759,0.000635398,-0.001152014,0.000340145,0.111790717,-0.045086551,9.780900955
1784243566.941584,-0.003917067,-0.009673397,0.882644117,0.000705154,-0.001398124,0.000519599,0.112278901,-0.041943856,9.779128075
1784243566.943586,-0.003919715,-0.009676618,0.882644713,0.000430629,-0.001608685,0.000451068,0.125961155,-0.058912866,9.809518814
1784243566.945588,-0.003914542,-0.009675322,0.882645249,0.000525564,-0.001243280,0.000404503,0.091663755,-0.038238786,9.799306870
1784243566.947588,-0.003912198,-0.009670386,0.882645369,0.000907421,-0.000494258,0.000337665,0.076770268,-0.045619886,9.792968750
1784243566.949588,-0.003912074,-0.009669037,0.882644713,0.000842267,0.000055542,0.000216244,0.081992678,-0.019104352,9.835287094
1784243566.951589,-0.003914058,-0.009666864,0.882642984,0.000485808,0.000280180,-0.000000044,0.087914623,-0.050799299,9.808189392
1784243566.953592,-0.003910017,-0.009666242,0.882640541,0.000514730,0.000351493,-0.000284026,0.084572904,-0.031370148,9.791275024
1784243566.955593,-0.003910912,-0.009665930,0.882635117,0.000607360,0.000278228,-0.000744212,0.092805251,0.018287593,9.787117958
1784243566.957592,-0.003913807,-0.009664607,0.882639825,0.000005903,0.000337074,-0.000592493,0.125384271,-0.032055493,9.814175606
1784243566.959595,-0.003912892,-0.009666177,0.882637322,-0.000307538,0.000251387,-0.000283914,0.110670418,-0.061424233,9.812178612
1784243566.961597,-0.003908992,-0.009672796,0.882625699,0.000093506,-0.000369046,-0.001162388,0.090871125,-0.067290097,9.790601730
1784243566.963599,-0.003909179,-0.009672563,0.882620335,0.000350955,-0.000729436,-0.002000462,0.090503491,-0.059754860,9.802753448
1784243566.965600,-0.003911279,-0.009673323,0.882625520,0.000142312,-0.000598695,-0.001472163,0.092425019,-0.047835529,9.824353218
1784243566.967604,-0.003915602,-0.009678841,0.882622957,-0.000285249,-0.000861682,-0.000891168,0.085716814,-0.047167785,9.805521011
1784243566.969603,-0.003911682,-0.009680165,0.882614315,-0.000197109,-0.001087817,-0.001406170,0.104572035,-0.045306172,9.824829102
1784243566.971606,-0.003908705,-0.009680977,0.882618308,0.000321549,-0.000936126,-0.001345615,0.097855419,-0.045515269,9.803300858
1784243566.973605,-0.003908921,-0.009684352,0.882623732,0.000479353,-0.000901111,-0.000345526,0.062797546,-0.049991224,9.802791595
1784243566.975633,-0.003908828,-0.009685918,0.882623136,0.000395592,-0.000925576,0.000075553,0.084984705,-0.034098644,9.796189308
1784243566.977619,-0.003913406,-0.009680486,0.882624686,-0.000020947,-0.000434038,0.000131853,0.083280772,-0.025253147,9.815522194
1784243566.979614,-0.003914820,-0.009674611,0.882623374,-0.000427279,0.000429461,0.000121364,0.089410350,-0.003129779,9.780699730
1784243566.981618,-0.003907749,-0.009677563,0.882617235,0.000067659,0.000513327,-0.000429613,0.090731144,-0.004157416,9.796834946
1784243566.983618,-0.003898685,-0.009680577,0.882617652,0.001000407,0.000009503,-0.000706869,0.087717906,-0.029351830,9.816844940
1784243566.985614,-0.003900684,-0.009675499,0.882619679,0.001069710,0.000185597,-0.000347184,0.112380698,-0.033845585,9.774248123
1784243566.987619,-0.003902982,-0.009677096,0.882617652,0.000470901,0.000429871,-0.000248010,0.091261089,-0.033817019,9.808301926
1784243566.989615,-0.003897458,-0.009675526,0.882611275,0.000539751,0.000371928,-0.000753932,0.051946118,-0.056178756,9.810362816
1784243566.991618,-0.003897068,-0.009678411,0.882606924,0.000787612,0.000184588,-0.001285451,0.119269289,-0.055684529,9.808636665
1784243566.993623,-0.003895967,-0.009680360,0.882606447,0.000730391,-0.000113862,-0.001258746,0.105276942,-0.099421784,9.809687614
1784243566.995624,-0.003896545,-0.009677130,0.882599533,0.000621306,0.000084535,-0.001417601,0.098683253,-0.088123798,9.807960510
1784243566.997620,-0.003897381,-0.009675742,0.882597864,0.000471493,0.000392370,-0.001622785,0.090947069,-0.061422084,9.784361839
1784243566.999625,-0.003901847,-0.009682029,0.882595420,0.000101445,-0.000030526,-0.001451348,0.064082608,-0.052921996,9.834605217
1784243567.001627,-0.003909765,-0.009684836,0.882595301,-0.000768324,-0.000638780,-0.001220772,0.080876067,-0.077460364,9.789630890
1784243567.003636,-0.003910445,-0.009681749,0.882598102,-0.000998784,-0.000512361,-0.000706003,0.084629565,-0.064054810,9.787927628
1784243567.005649,-0.003910956,-0.009680146,0.882606328,-0.000658483,-0.000123191,0.000231070,0.074045993,-0.048269976,9.792500496
1784243567.007634,-0.003914173,-0.009678192,0.882608294,-0.000718380,0.000109968,0.000858793,0.099645101,-0.047199745,9.784910202
1784243567.009633,-0.003919680,-0.009681021,0.882607043,-0.001107316,-0.000018566,0.000682058,0.057763249,-0.058000818,9.804079056
1784243567.011637,-0.003921270,-0.009685495,0.882610798,-0.001286769,-0.000510079,0.000677620,0.059479985,-0.027534457,9.801138878
1784243567.013637,-0.003918603,-0.009682241,0.882624090,-0.000873759,-0.000537996,0.001651887,0.074220814,-0.032705810,9.808741570
1784243567.015639,-0.003909300,-0.009682075,0.882634461,0.000170834,-0.000245023,0.002797802,0.091673538,-0.036945779,9.806488991
1784243567.017647,-0.003905104,-0.009685629,0.882633209,0.001037951,-0.000458743,0.002655580,0.088569902,-0.034179613,9.801123619
1784243567.019640,-0.003909310,-0.009689538,0.882633567,0.000746078,-0.000888369,0.001881062,0.093589470,-0.063471004,9.815734863
1784243567.021642,-0.003914274,-0.009689991,0.882633507,-0.000078691,-0.000943201,0.001389506,0.096273497,-0.064785793,9.806763649
1784243567.023642,-0.003915200,-0.009685135,0.882629871,-0.000310661,-0.000373490,0.000764619,0.096983388,-0.042466611,9.817217827
1784243567.025651,-0.003914014,-0.009679563,0.882633209,-0.000059905,0.000449556,0.000547009,0.105888791,-0.049202446,9.803284645
1784243567.027648,-0.003916278,-0.009681434,0.882628739,-0.000098689,0.000619985,0.000313532,0.097086906,-0.035975762,9.786325455
1784243567.029657,-0.003922835,-0.009683984,0.882626474,-0.000656374,0.000194199,-0.000239547,0.100823544,-0.023513822,9.791341782
1784243567.031659,-0.003919748,-0.009681073,0.882624507,-0.000716451,0.000167166,-0.000459813,0.071425714,-0.042399269,9.790741920
1784243567.033655,-0.003917114,-0.009675242,0.882620394,-0.000103598,0.000645146,-0.000742821,0.081764504,-0.041168548,9.788070679
1784243567.035654,-0.003914968,-0.009678696,0.882624507,0.000282944,0.000559468,-0.000536311,0.093499929,-0.036314134,9.777353287
1784243567.037652,-0.003918571,-0.009684828,0.882635593,0.000119969,-0.000260429,0.000638157,0.115539379,-0.069309115,9.778059006
1784243567.039658,-0.003923354,-0.009687415,0.882640719,-0.000468407,-0.000799096,0.001565531,0.097368039,-0.048651610,9.804177284
1784243567.041660,-0.003932321,-0.009687031,0.882642150,-0.001270263,-0.000733520,0.001593207,0.075145669,-0.030474320,9.808307648
1784243567.043663,-0.003937100,-0.009686666,0.882647932,-0.001870623,-0.000505803,0.001650450,0.101937823,-0.004387001,9.808949471
1784243567.045667,-0.003930872,-0.009684855,0.882649660,-0.001276331,-0.000243153,0.001712380,0.110561602,-0.035230063,9.783204079
1784243567.047704,-0.003929013,-0.009691118,0.882649481,-0.000375692,-0.000360411,0.001359380,0.153093100,-0.039770104,9.841050148
1784243567.049831,-0.003933191,-0.009691846,0.882650435,-0.000426498,-0.000617870,0.001045986,0.092319950,-0.020396048,9.809285164
1784243567.051735,-0.003933100,-0.009688647,0.882654250,-0.000585064,-0.000283798,0.001091172,0.076831669,-0.039056271,9.814979553
1784243567.053700,-0.003926602,-0.009683323,0.882652640,0.000026344,0.000258826,0.000946393,0.083013944,-0.047622588,9.811344147
1784243567.055699,-0.003925269,-0.009680950,0.882663250,0.000560475,0.000596400,0.001292038,0.079308160,-0.019819509,9.814657211
1784243567.057709,-0.003927056,-0.009679100,0.882670522,0.000312992,0.000629430,0.002155401,0.076783955,-0.042674940,9.819887161
1784243567.059692,-0.003928228,-0.009677729,0.882667005,-0.000046569,0.000589295,0.001826963,0.087758131,0.009366177,9.790642738
1784243567.061703,-0.003926844,-0.009681697,0.882667601,-0.000021463,0.000253743,0.001135154,0.087292671,-0.027944963,9.808783531
1784243567.063689,-0.003920814,-0.009685746,0.882666945,0.000408274,-0.000356342,0.000828365,0.093968764,-0.033324063,9.797099113
1784243567.065686,-0.003925210,-0.009682758,0.882667065,0.000328744,-0.000328348,0.000570777,0.085912846,-0.032651789,9.780059814
1784243567.067689,-0.003934688,-0.009681731,0.882664800,-0.000701903,0.000009184,0.000275037,0.101951547,-0.042678934,9.775077820
1784243567.069688,-0.003933764,-0.009683830,0.882660985,-0.001094184,-0.000089118,-0.000212531,0.102864102,-0.040139388,9.794374466
1784243567.071692,-0.003928713,-0.009688642,0.882665932,-0.000390665,-0.000534369,-0.000080830,0.096738763,-0.065471254,9.776272774
1784243567.073692,-0.003926774,-0.009691787,0.882670283,0.000227996,-0.000953302,0.000574360,0.120780416,-0.081857435,9.769016266
1784243567.075708,-0.003931771,-0.009694626,0.882670879,-0.000006271,-0.001123339,0.000762495,0.083930679,-0.047481462,9.789824486
1784243567.077697,-0.003934721,-0.009695115,0.882665157,-0.000535504,-0.001113142,0.000213758,0.070524678,-0.042416394,9.794776917
1784243567.079771,-0.003936973,-0.009695059,0.882661641,-0.000737412,-0.000907931,-0.000473427,0.080158502,-0.023849944,9.812837601
1784243567.081706,-0.003932172,-0.009694841,0.882669628,-0.000361093,-0.000643842,-0.000033869,0.109391123,-0.019642282,9.798546791
1784243567.083700,-0.003929603,-0.009697851,0.882673144,0.000217127,-0.000655604,0.000755037,0.099383935,-0.029097864,9.823134422
1784243567.085705,-0.003922307,-0.009704255,0.882667303,0.000798496,-0.001110012,0.000370771,0.078510575,-0.050125681,9.793389320
1784243567.087732,-0.003922139,-0.009707382,0.882666945,0.001113759,-0.001474326,-0.000162246,0.087448902,-0.052143790,9.809077263
1784243567.089702,-0.003930833,-0.009708060,0.882666767,0.000261804,-0.001352513,-0.000152964,0.087958016,-0.083588876,9.819635391
1784243567.091734,-0.003930876,-0.009705629,0.882659018,-0.000407570,-0.000864167,-0.000649504,0.126474068,-0.055169579,9.786230087
1784243567.093708,-0.003931913,-0.009701785,0.882660031,-0.000313329,-0.000191144,-0.000936329,0.152619615,-0.004801743,9.839032173
1784243567.095711,-0.003940084,-0.009695589,0.882666767,-0.000786714,0.000550893,-0.000151887,0.101006120,-0.006672537,9.817003250
1784243567.097707,-0.003941656,-0.009697978,0.882665634,-0.001262457,0.000661774,0.000272555,0.091232486,-0.036879614,9.797970772
1784243567.099708,-0.003939950,-0.009705381,0.882658660,-0.000947779,-0.000176783,-0.000361010,0.123555623,-0.035136424,9.809668541
1784243567.101709,-0.003942146,-0.009702933,0.882652700,-0.000732329,-0.000461538,-0.001145692,0.149911851,-0.047748268,9.771505356
1784243567.103712,-0.003941058,-0.009706380,0.882652640,-0.000589515,-0.000203726,-0.001245408,0.082447916,-0.058269337,9.797377586
1784243567.105719,-0.003941748,-0.009711904,0.882647097,-0.000382936,-0.000557216,-0.001284800,0.091780439,-0.030022861,9.777839661
1784243567.107739,-0.003939903,-0.009712231,0.882641137,-0.000231490,-0.000812304,-0.001710621,0.094919913,-0.029669199,9.785467148
1784243567.109722,-0.003932846,-0.009708569,0.882642150,0.000408918,-0.000376534,-0.001583279,0.089619964,-0.021638658,9.799860001
1784243567.111722,-0.003927751,-0.009712848,0.882643878,0.001124571,-0.000316965,-0.000968049,0.112570979,-0.052507084,9.814928055
1784243567.113721,-0.003927399,-0.009717252,0.882639885,0.001207379,-0.000770715,-0.000866312,0.071467787,-0.035988282,9.834272385
1784243567.115722,-0.003929318,-0.009717716,0.882630289,0.000784115,-0.000839416,-0.001549683,0.111413598,-0.074810967,9.803126335
1784243567.117719,-0.003931973,-0.009726256,0.882630527,0.000363676,-0.001160015,-0.001760368,0.110430807,-0.046394113,9.778201103
1784243567.119723,-0.003935346,-0.009729106,0.882629037,-0.000036063,-0.001557873,-0.001373360,0.132474825,-0.040547457,9.798434258
1784243567.121742,-0.003941789,-0.009729519,0.882619202,-0.000700065,-0.001353616,-0.001757185,0.119160958,-0.027460409,9.809266090
1784243567.123764,-0.003938929,-0.009734164,0.882614851,-0.000786340,-0.001279882,-0.002235154,0.106725432,-0.015751015,9.823226929
1784243567.125739,-0.003932753,-0.009733952,0.882619560,0.000016857,-0.001187484,-0.001606960,0.083185248,-0.033707175,9.807396889
1784243567.127736,-0.003935339,-0.009735248,0.882626116,0.000239976,-0.000994814,-0.000409080,0.090286121,-0.039686251,9.816332817
1784243567.129758,-0.003937571,-0.009735452,0.882620692,-0.000174763,-0.000880023,-0.000223465,0.097486168,-0.075582720,9.810729980
1784243567.131750,-0.003938283,-0.009739392,0.882618427,-0.000332193,-0.000920302,-0.000684417,0.089540035,-0.065938495,9.791954994
1784243567.133738,-0.003939010,-0.009740470,0.882616222,-0.000212955,-0.001007492,-0.000803544,0.082240149,-0.037314340,9.812305450
1784243567.135749,-0.003940379,-0.009738818,0.882607400,-0.000175150,-0.000689730,-0.001339576,0.101625368,-0.031169279,9.795327187
1784243567.137755,-0.003941985,-0.009738650,0.882606983,-0.000327732,-0.000367081,-0.001603486,0.112517186,-0.058200214,9.796508789
1784243567.139840,-0.003942664,-0.009736499,0.882607341,-0.000385778,-0.000100482,-0.001163667,0.071696438,-0.055967860,9.808140755
1784243567.141773,-0.003937791,-0.009736531,0.882609308,0.000005254,0.000070065,-0.000680241,0.071180180,-0.026200151,9.781431198
1784243567.143757,-0.003936521,-0.009739553,0.882607222,0.000358385,-0.000219304,-0.000510785,0.077340491,-0.034534715,9.808282852
1784243567.145753,-0.003942783,-0.009739192,0.882605016,-0.000142848,-0.000402268,-0.000659164,0.108051732,-0.055540804,9.808627129
1784243567.147750,-0.003939202,-0.009738258,0.882605672,-0.000287423,-0.000161168,-0.000566251,0.069715723,-0.033601470,9.816799164
1784243567.149750,-0.003940402,-0.009737685,0.882603705,-0.000049042,0.000028763,-0.000497939,0.063385613,-0.037549455,9.816321373
1784243567.151753,-0.003943460,-0.009733651,0.882604420,-0.000325613,0.000333973,-0.000447960,0.093514837,-0.033359647,9.802927017
1784243567.153762,-0.003944356,-0.009730713,0.882606626,-0.000543721,0.000752715,-0.000121655,0.104260094,-0.036115445,9.793055534
1784243567.155773,-0.003940264,-0.009730469,0.882607341,-0.000217198,0.000800541,0.000115394,0.077041216,-0.059591923,9.804087639
1784243567.157762,-0.003934346,-0.009732733,0.882602334,0.000631125,0.000327922,-0.000219227,0.052332211,-0.062757656,9.789696693
1784243567.159791,-0.003927062,-0.009734111,0.882601917,0.001465074,-0.000126256,-0.000535471,0.113451689,-0.055892412,9.785316467
1784243567.161777,-0.003931531,-0.009732197,0.882607281,0.001261622,-0.000056710,-0.000060888,0.112287410,-0.077440284,9.793247223
1784243567.163805,-0.003940300,-0.009733953,0.882612288,0.000262377,-0.000035193,0.000662414,0.096894875,-0.050459962,9.807303429
1784243567.165781,-0.003941630,-0.009739490,0.882615566,-0.000253764,-0.000525005,0.001060489,0.073527619,-0.016898023,9.792253494
1784243567.167787,-0.003939676,-0.009738186,0.882617712,-0.000247436,-0.000686630,0.001135556,0.130804196,-0.029817902,9.804778099
1784243567.169802,-0.003937759,-0.009734221,0.882625341,-0.000019550,-0.000160580,0.001483012,0.106654875,-0.024007905,9.787306786
1784243567.171785,-0.003938494,-0.009730755,0.882631600,0.000075206,0.000383632,0.002025743,0.112491921,-0.025267554,9.764888763
1784243567.173790,-0.003933863,-0.009734580,0.882633686,0.000194316,0.000313889,0.002039511,0.091425993,-0.020762555,9.799418449
1784243567.175822,-0.003931689,-0.009741999,0.882631838,0.000473269,-0.000473636,0.001504187,0.080302045,-0.051390808,9.779036522
1784243567.177823,-0.003933161,-0.009741820,0.882632494,0.000443229,-0.000900278,0.001024399,0.097136147,-0.066287436,9.827377319
1784243567.179796,-0.003935241,-0.009738078,0.882640183,0.000138743,-0.000455942,0.001310450,0.103465617,-0.064776033,9.792422295
1784243567.181791,-0.003942304,-0.009735063,0.882640541,-0.000514203,0.000124501,0.001501529,0.089265339,-0.050374940,9.809089661
1784243567.183802,-0.003948691,-0.009732058,0.882638037,-0.001242303,0.000464279,0.000953895,0.082336225,-0.031287353,9.783650398
1784243567.185799,-0.003940534,-0.009728403,0.882636130,-0.000741219,0.000755676,0.000394366,0.099461608,-0.024837283,9.790882111
1784243567.187786,-0.003941390,-0.009731501,0.882637560,-0.000109154,0.000639429,0.000256127,0.128447607,-0.037976470,9.822208405
1784243567.189796,-0.003943969,-0.009732775,0.882637858,-0.000375969,0.000219606,0.000314864,0.113340303,-0.027287105,9.795363426
1784243567.191802,-0.003939629,-0.009733329,0.882639349,-0.000153152,0.000035265,0.000358994,0.089715317,-0.051181231,9.795636177
1784243567.193790,-0.003932636,-0.009738520,0.882638991,0.000657230,-0.000375669,0.000336475,0.073804095,-0.066795364,9.814799309
1784243567.195797,-0.003932835,-0.009744057,0.882636845,0.000937096,-0.001012228,0.000083024,0.087012149,-0.088012472,9.813329697
1784243567.197796,-0.003938746,-0.009748880,0.882637024,0.000435990,-0.001450575,-0.000066487,0.101560108,-0.072111182,9.819272995
1784243567.199808,-0.003943237,-0.009746967,0.882643998,-0.000214349,-0.001266616,0.000440708,0.083946750,-0.008954236,9.790521622
1784243567.201802,-0.003946951,-0.009747976,0.882650256,-0.000704268,-0.000864987,0.001226851,0.111271717,-0.013314335,9.787379265
1784243567.203809,-0.003945738,-0.009749713,0.882651150,-0.000755550,-0.000825143,0.001383434,0.136927173,-0.005315192,9.813458443
1784243567.205818,-0.003943074,-0.009751854,0.882657826,-0.000359828,-0.000872895,0.001515815,0.107423216,-0.036790881,9.756291389
1784243567.207833,-0.003942738,-0.009755136,0.882656872,-0.000072414,-0.001014892,0.001485292,0.100292087,-0.067830168,9.786572456
1784243567.209817,-0.003941817,-0.009756174,0.882654369,0.000012665,-0.001041235,0.000849527,0.100880779,-0.058625508,9.751214981
1784243567.211812,-0.003943020,-0.009751104,0.882656634,-0.000010036,-0.000484867,0.000606072,0.097325176,-0.052232124,9.803706169
1784243567.213812,-0.003944460,-0.009749689,0.882660031,-0.000116171,0.000080966,0.000826610,0.098894842,-0.033463616,9.807863235
1784243567.215825,-0.003942538,-0.009749163,0.882664204,0.000019845,0.000184107,0.001112250,0.098312169,-0.045457423,9.794336319
1784243567.217819,-0.003939108,-0.009745632,0.882663786,0.000392483,0.000419838,0.001068939,0.080487058,-0.034530450,9.802010536
1784243567.219822,-0.003946558,-0.009748721,0.882668674,0.000028310,0.000346098,0.001089165,0.099036679,-0.021807088,9.806593895
1784243567.221819,-0.003952078,-0.009751553,0.882668436,-0.000856600,-0.000151031,0.001118497,0.076616064,-0.021405164,9.790433884
1784243567.223823,-0.003952402,-0.009746986,0.882663310,-0.001078705,-0.000045554,0.000457172,0.132203072,-0.026581777,9.788212776
1784243567.225818,-0.003953200,-0.009741627,0.882654607,-0.000925681,0.000589518,-0.000616695,0.126988098,-0.012206650,9.792334557
1784243567.227822,-0.003952081,-0.009740874,0.882649720,-0.000743489,0.000907294,-0.001381639,0.089633957,-0.019907229,9.808389664
1784243567.229821,-0.003954934,-0.009743998,0.882649004,-0.000744904,0.000560831,-0.001382719,0.071718998,-0.018199835,9.789553642
1784243567.231829,-0.003951693,-0.009745871,0.882652104,-0.000514740,0.000068634,-0.000842921,0.062876493,-0.043694336,9.799243927
1784243567.233827,-0.003949194,-0.009747112,0.882645607,-0.000020100,-0.000237019,-0.000846009,0.062488481,-0.076341435,9.791412354
1784243567.235827,-0.003950891,-0.009752348,0.882635593,-0.000003674,-0.000684542,-0.001734597,0.087670706,-0.072177432,9.790566444
1784243567.237826,-0.003953364,-0.009756085,0.882631481,-0.000246378,-0.001116803,-0.002220454,0.084525287,-0.071362086,9.807606697
1784243567.239832,-0.003949874,-0.009759287,0.882634819,-0.000062212,-0.001297134,-0.001670482,0.060727160,-0.074027754,9.784253120
1784243567.241834,-0.003947955,-0.009760616,0.882637680,0.000325883,-0.001254126,-0.000799111,0.103738032,-0.041552000,9.802435875
1784243567.243834,-0.003953755,-0.009763704,0.882640302,-0.000005810,-0.001197950,-0.000201268,0.101114810,-0.036920249,9.785875320
1784243567.245838,-0.003961612,-0.009764118,0.882637203,-0.000914839,-0.001093398,-0.000163591,0.086996228,-0.015389944,9.807967186
1784243567.247835,-0.003963674,-0.009762848,0.882629335,-0.001410267,-0.000798613,-0.000856733,0.063460648,-0.030067658,9.835198402
1784243567.249836,-0.003962530,-0.009764691,0.882629871,-0.001158023,-0.000681911,-0.001126578,0.079145990,-0.072468460,9.783833504
1784243567.251865,-0.003962989,-0.009763873,0.882632852,-0.000794864,-0.000567369,-0.000582584,0.090981260,-0.057504907,9.800528526
1784243567.253852,-0.003972474,-0.009763023,0.882636905,-0.001162131,-0.000334669,0.000066263,0.095736988,-0.036393762,9.784528732
1784243567.255855,-0.003979288,-0.009765306,0.882634163,-0.001864969,-0.000374012,0.000139946,0.124898382,-0.036395807,9.795315742
1784243567.257850,-0.003979316,-0.009764448,0.882629335,-0.001795016,-0.000225193,-0.000418224,0.133483171,-0.065520532,9.843109131
1784243567.259859,-0.003976557,-0.009763129,0.882631063,-0.001091208,0.000126287,-0.000515574,0.064960852,-0.020763204,9.784150124
1784243567.261863,-0.003974366,-0.009763666,0.882634103,-0.000455774,0.000143703,-0.000046072,0.097479261,-0.040073574,9.794817924
1784243567.263859,-0.003976680,-0.009768790,0.882629216,-0.000358241,-0.000286883,-0.000158390,0.093789577,-0.049733289,9.773681641
1784243567.265855,-0.003979945,-0.009769506,0.882620692,-0.000665139,-0.000609614,-0.001035143,0.115037166,-0.073373176,9.783411026
1784243567.267857,-0.003977460,-0.009765777,0.882614255,-0.000465609,-0.000200647,-0.001777899,0.090931647,-0.062759615,9.783457756
1784243567.269865,-0.003972010,-0.009763423,0.882614613,0.000277227,0.000303065,-0.001703131,0.107135221,-0.058922216,9.781704903
1784243567.271868,-0.003972501,-0.009760493,0.882622361,0.000543909,0.000577111,-0.000692872,0.122437708,-0.054291863,9.796093941
1784243567.273872,-0.003974454,-0.009758545,0.882618248,0.000288108,0.000891480,-0.000263865,0.087604649,-0.040782604,9.786285400
1784243567.275880,-0.003978252,-0.009754227,0.882614195,-0.000130386,0.001217863,-0.000745444,0.089289621,-0.048967473,9.800132751
1784243567.277864,-0.003979108,-0.009755420,0.882612407,-0.000421660,0.001076504,-0.000935893,0.064091407,-0.017288845,9.801208496
1784243567.279864,-0.003978739,-0.009756194,0.882611752,-0.000348849,0.000627029,-0.000841438,0.090684459,-0.045763135,9.788049698
1784243567.281864,-0.003976549,-0.009756730,0.882614791,-0.000078856,0.000367257,-0.000446974,0.086237438,-0.041337322,9.803764343
1784243567.283866,-0.003975975,-0.009758737,0.882617354,0.000134414,0.000086512,0.000056527,0.076850638,-0.039716903,9.781798363
1784243567.285869,-0.003972973,-0.009760866,0.882618010,0.000343238,-0.000225583,0.000260342,0.093968138,-0.032923792,9.803826332
1784243567.287876,-0.003967737,-0.009758212,0.882621408,0.000769738,-0.000150245,0.000465096,0.082833335,-0.023211088,9.844227791
1784243567.289869,-0.003975347,-0.009755985,0.882622302,0.000360341,0.000200279,0.000632813,0.105253808,-0.065256529,9.793767929
1784243567.291874,-0.003982642,-0.009751108,0.882621586,-0.000749064,0.000628032,0.000483887,0.094602399,-0.018496223,9.790021896
1784243567.293869,-0.003981980,-0.009749413,0.882624388,-0.001033646,0.000897226,0.000502354,0.098588146,-0.021394718,9.812423706
1784243567.295894,-0.003977414,-0.009751300,0.882628024,-0.000432960,0.000632868,0.000803355,0.095675200,-0.040123716,9.805128098
1784243567.297900,-0.003980429,-0.009748626,0.882632196,-0.000175403,0.000531670,0.001113113,0.105701134,-0.065678447,9.789281845
1784243567.299899,-0.003982367,-0.009745123,0.882627845,-0.000434557,0.000826070,0.000798555,0.135798827,-0.062953353,9.792914391
1784243567.301886,-0.003983881,-0.009745085,0.882629335,-0.000552741,0.000842891,0.000387896,0.091739587,-0.030750638,9.817288399
1784243567.303882,-0.003987307,-0.009743371,0.882635415,-0.000732291,0.000725842,0.000791887,0.114953019,-0.004531467,9.805822372
1784243567.305899,-0.003988386,-0.009749177,0.882639885,-0.000831699,0.000243035,0.001282595,0.091346413,-0.026659183,9.809691429
1784243567.307888,-0.003990459,-0.009756465,0.882640958,-0.000837256,-0.000683388,0.001312042,0.090817213,-0.033773117,9.802921295
1784243567.309925,-0.003983635,-0.009756235,0.882636130,-0.000311000,-0.000946140,0.000704820,0.083664387,-0.031041056,9.809657097
1784243567.311907,-0.003979552,-0.009757317,0.882636309,0.000510738,-0.000745854,0.000193136,0.112574443,-0.015295126,9.811579704
1784243567.313895,-0.003981317,-0.009759175,0.882637680,0.000491872,-0.000757939,0.000251762,0.120137006,-0.022798344,9.781948090
1784243567.315899,-0.003979073,-0.009759174,0.882636726,0.000352527,-0.000692948,0.000222475,0.059440669,-0.067866243,9.802224159
1784243567.317890,-0.003974907,-0.009759389,0.882640123,0.000811365,-0.000634421,0.000328455,0.078363560,-0.062633604,9.788377762
1784243567.319895,-0.003977261,-0.009760937,0.882643580,0.000836366,-0.000698325,0.000711456,0.099263892,-0.041392762,9.788085938
1784243567.321915,-0.003978975,-0.009757445,0.882642686,0.000334873,-0.000377521,0.000702860,0.123821467,-0.050769940,9.802395821
1784243567.323903,-0.003981665,-0.009755916,0.882644117,-0.000045268,0.000127215,0.000553670,0.100409411,-0.057177681,9.800539017
1784243567.325900,-0.003977019,-0.009754616,0.882643998,0.000110018,0.000345923,0.000498999,0.114440948,-0.046668436,9.809586525
1784243567.327903,-0.003974034,-0.009758648,0.882650018,0.000634134,0.000120953,0.000764564,0.125178128,-0.052324660,9.766520500
1784243567.329922,-0.003975046,-0.009757826,0.882654786,0.000635110,-0.000076820,0.001282164,0.087843783,-0.057842668,9.790660858
1784243567.331920,-0.003976577,-0.009758585,0.882656932,0.000294676,-0.000053674,0.001406895,0.088660255,-0.026576988,9.802965164
1784243567.333908,-0.003977698,-0.009762849,0.882656336,-0.000047143,-0.000429569,0.001134386,0.084567942,-0.032625001,9.778713226
1784243567.336005,-0.003979159,-0.009761213,0.882654905,-0.000293792,-0.000539888,0.000684056,0.102516785,-0.032038540,9.789942741
1784243567.337936,-0.003984136,-0.009761271,0.882664025,-0.000652169,-0.000280438,0.001025522,0.102807887,-0.043014750,9.820807457
1784243567.339920,-0.003987822,-0.009756718,0.882673025,-0.001057427,0.000103797,0.001979155,0.117844246,-0.061964184,9.812181473
1784243567.341947,-0.003986465,-0.009756458,0.882679701,-0.000918120,0.000398129,0.002494120,0.105593830,-0.072604537,9.818377495
1784243567.343924,-0.003988867,-0.009757309,0.882681668,-0.000565908,0.000288736,0.002398513,0.089341067,-0.044103481,9.809130669
1784243567.345926,-0.003983926,-0.009755741,0.882679403,-0.000071886,0.000300132,0.001734040,0.099952839,-0.019238930,9.821853638
1784243567.347934,-0.003973456,-0.009756235,0.882678688,0.000939879,0.000356509,0.001070763,0.060492076,-0.016509090,9.824074745
1784243567.349919,-0.003968322,-0.009757330,0.882680178,0.001692462,0.000215870,0.000839311,0.073432922,-0.022508854,9.825393677
1784243567.351929,-0.003966135,-0.009759190,0.882682443,0.001732258,-0.000044311,0.000867584,0.101847023,-0.011182727,9.819664955
1784243567.353940,-0.003965870,-0.009760285,0.882686555,0.001325936,-0.000320259,0.001067525,0.137269527,-0.014670895,9.805330276
1784243567.355928,-0.003968985,-0.009759966,0.882688522,0.000669952,-0.000373299,0.001195381,0.093312688,-0.049950108,9.805062294
1784243567.357923,-0.003970227,-0.009755181,0.882679701,0.000217544,0.000079190,0.000406761,0.106862418,-0.044559449,9.778658867
1784243567.359928,-0.003971676,-0.009753278,0.882677436,-0.000001690,0.000517399,-0.000455789,0.110018082,-0.042051833,9.798403740
1784243567.361930,-0.003971048,-0.009751673,0.882679403,-0.000057043,0.000614976,-0.000345093,0.121935323,-0.058762550,9.795619011
1784243567.363929,-0.003976376,-0.009750961,0.882678628,-0.000242069,0.000704954,-0.000156266,0.098389335,-0.039579883,9.786751747
1784243567.365957,-0.003974394,-0.009750692,0.882677674,-0.000286959,0.000680755,-0.000217634,0.092836536,-0.052187346,9.805495262
1784243567.367935,-0.003972382,-0.009753148,0.882676542,0.000129290,0.000370519,-0.000299361,0.078939252,-0.051910549,9.791584969
1784243567.369958,-0.003969246,-0.009749698,0.882671177,0.000507918,0.000361575,-0.000664450,0.086655684,-0.046851780,9.759345055
1784243567.371943,-0.003966447,-0.009746785,0.882671058,0.000769194,0.000696758,-0.000856325,0.092162050,-0.035826672,9.774216652
1784243567.373938,-0.003969259,-0.009745229,0.882674634,0.000576635,0.000779308,-0.000383852,0.113794304,-0.028061595,9.777425766
1784243567.375968,-0.003973770,-0.009743582,0.882683098,-0.000054148,0.000751196,0.000536727,0.114646144,-0.030459160,9.798033714
1784243567.377949,-0.003975473,-0.009746353,0.882683694,-0.000461291,0.000515378,0.001007673,0.095041454,-0.018578283,9.800782204
1784243567.379941,-0.003969577,-0.009753020,0.882683218,-0.000057407,-0.000218288,0.000753024,0.085266098,-0.009587965,9.814280510
1784243567.381955,-0.003965491,-0.009753307,0.882683992,0.000635929,-0.000631065,0.000568828,0.104232602,-0.037548356,9.805599213
1784243567.383951,-0.003960830,-0.009747697,0.882692218,0.001040313,-0.000088263,0.001016840,0.107067496,-0.064320013,9.784808159
1784243567.385943,-0.003958589,-0.009745578,0.882693470,0.001210015,0.000470281,0.001380026,0.093138054,-0.027517686,9.801171303
1784243567.387946,-0.003959763,-0.009746524,0.882692695,0.000878218,0.000435758,0.001045711,0.064327270,-0.033564273,9.821278572
1784243567.389947,-0.003962597,-0.009750174,0.882689953,0.000289363,0.000020028,0.000528661,0.073751733,-0.035292432,9.795273781
1784243567.391955,-0.003958715,-0.009750712,0.882685423,0.000277060,-0.000267659,-0.000118035,0.102029309,0.001198391,9.779395103
1784243567.393949,-0.003950895,-0.009746216,0.882684052,0.000906895,0.000091296,-0.000494705,0.083678663,0.004229983,9.764152527
1784243567.395957,-0.003950997,-0.009747239,0.882678151,0.001094360,0.000320273,-0.000859976,0.073706642,-0.000895429,9.809841156
1784243567.397951,-0.003951363,-0.009746622,0.882675409,0.000666982,0.000151729,-0.001219096,0.112136550,-0.017230295,9.769422531
1784243567.399958,-0.003946892,-0.009744245,0.882668674,0.000665654,0.000259926,-0.001533087,0.102421544,-0.076459214,9.799071312
1784243567.401968,-0.003947759,-0.009735459,0.882668674,0.000725119,0.000948961,-0.001577812,0.111295819,-0.047066607,9.808236122
1784243567.403961,-0.003949851,-0.009732668,0.882670641,0.000351571,0.001487756,-0.001015142,0.106375046,-0.047695793,9.779534340
1784243567.405996,-0.003944600,-0.009733212,0.882662892,0.000489706,0.001249077,-0.001131609,0.096850686,-0.055266708,9.790236473
1784243567.407985,-0.003942819,-0.009737414,0.882655382,0.000857825,0.000590324,-0.001868596,0.095972210,-0.052268926,9.811326027
1784243567.410008,-0.003943498,-0.009739497,0.882651985,0.000726342,0.000004861,-0.002099826,0.123492323,-0.040499240,9.807842255
1784243567.411986,-0.003942016,-0.009736038,0.882651091,0.000580889,0.000098103,-0.001814162,0.106212579,-0.023141213,9.792244911
1784243567.413983,-0.003943326,-0.009736059,0.882653654,0.000422269,0.000398150,-0.001207710,0.096203826,-0.033419579,9.806515694
1784243567.415989,-0.003942521,-0.009738178,0.882659674,0.000265334,0.000236317,-0.000298754,0.071965680,-0.033579338,9.809629440
1784243567.417985,-0.003946446,-0.009731911,0.882664144,-0.000045633,0.000353759,0.000490773,0.077573761,-0.016482726,9.789569855
1784243567.419984,-0.003948927,-0.009728405,0.882660508,-0.000501544,0.000823755,0.000417847,0.088329732,-0.016722459,9.803925514
1784243567.421989,-0.003951719,-0.009727284,0.882658601,-0.000726881,0.000915659,-0.000069749,0.107924633,-0.029896345,9.793996811
1784243567.423991,-0.003952640,-0.009727046,0.882653952,-0.000803000,0.000748114,-0.000498331,0.117215052,-0.004413953,9.785202026
1784243567.425992,-0.003953550,-0.009724354,0.882651985,-0.000730728,0.000732677,-0.000809751,0.079441071,-0.010259707,9.793198586
1784243567.427987,-0.003954111,-0.009723234,0.882655084,-0.000661063,0.000736038,-0.000513006,0.105990753,-0.040697541,9.804236412
1784243567.429989,-0.003953366,-0.009718435,0.882650256,-0.000499799,0.000882506,-0.000494423,0.106996894,-0.068929978,9.803159714
1784243567.432003,-0.003952388,-0.009714703,0.882647276,-0.000252232,0.001224339,-0.000894560,0.081724398,-0.043916725,9.796571732
1784243567.433994,-0.003947148,-0.009713694,0.882641852,0.000214355,0.001182509,-0.001223325,0.085891604,-0.072030410,9.773081779
1784243567.435990,-0.003947548,-0.009714190,0.882638812,0.000460743,0.000865057,-0.001464575,0.105717249,-0.065551251,9.771348953
1784243567.437990,-0.003951403,-0.009714358,0.882635832,0.000134207,0.000692254,-0.001478335,0.125486910,-0.062350895,9.789770126
1784243567.440042,-0.003954679,-0.009711107,0.882631660,-0.000299642,0.000820913,-0.001559459,0.082038552,-0.056331836,9.777662277
1784243567.442046,-0.003954243,-0.009710283,0.882626772,-0.000416910,0.000877272,-0.001744812,0.105321437,-0.058238592,9.814882278
1784243567.444008,-0.003947264,-0.009713517,0.882613659,0.000272845,0.000571748,-0.002494300,0.089159571,-0.059315089,9.806342125
1784243567.446009,-0.003945949,-0.009718559,0.882619083,0.000841659,-0.000051837,-0.002338403,0.048363693,-0.055265453,9.814399719
1784243567.448053,-0.003949746,-0.009723533,0.882626593,0.000506911,-0.000920648,-0.000820292,0.075692587,-0.023220483,9.795353889
1784243567.450010,-0.003952377,-0.009727198,0.882629037,-0.000006687,-0.001459445,0.000087161,0.100178622,-0.038430698,9.810971260
1784243567.452003,-0.003955984,-0.009723425,0.882630765,-0.000425543,-0.001057072,0.000355450,0.139145404,-0.044754371,9.810968399
1784243567.454000,-0.003952391,-0.009725234,0.882630348,-0.000346828,-0.000424886,0.000354824,0.111560002,-0.024312798,9.821383476
1784243567.456008,-0.003946247,-0.009730583,0.882632613,0.000372735,-0.000583679,0.000388073,0.075764753,-0.014950878,9.829480171
1784243567.458012,-0.003943361,-0.009734314,0.882638037,0.000873412,-0.001115521,0.000807079,0.082538500,-0.013480192,9.799457550
1784243567.460008,-0.003946159,-0.009733194,0.882636726,0.000628739,-0.001062860,0.000861078,0.088771999,-0.016779082,9.811098099
1784243567.462005,-0.003945210,-0.009731851,0.882633924,0.000329771,-0.000605783,0.000342951,0.099203542,-0.045516618,9.801060677
1784243567.464008,-0.003945698,-0.009732323,0.882632971,0.000291708,-0.000364963,0.000001377,0.083177060,-0.072577432,9.791906357
1784243567.466007,-0.003937202,-0.009735853,0.882640779,0.000783078,-0.000523427,0.000455529,0.107280180,-0.045620106,9.801068306
1784243567.468017,-0.003929843,-0.009738529,0.882644176,0.001609429,-0.000735684,0.001075407,0.115127474,-0.027370518,9.803882599
1784243567.470013,-0.003930514,-0.009736904,0.882643402,0.001583690,-0.000538128,0.000968341,0.072874300,-0.032691743,9.809187889
1784243567.472023,-0.003933567,-0.009734457,0.882642210,0.000899668,-0.000115166,0.000583961,0.065110683,-0.008233009,9.786024094
1784243567.474016,-0.003931429,-0.009739333,0.882639706,0.000522571,-0.000329552,0.000174863,0.089879125,-0.036919601,9.806037903
1784243567.476041,-0.003926661,-0.009750763,0.882640004,0.000779842,-0.001428088,-0.000019254,0.075022355,-0.039147742,9.831115723
1784243567.478019,-0.003918776,-0.009752199,0.882644117,0.001402657,-0.002001721,0.000274531,0.074752703,-0.064376280,9.787915230
1784243567.480025,-0.003914529,-0.009753829,0.882652164,0.001826167,-0.001756520,0.001015699,0.087709896,-0.067815460,9.807183266
1784243567.482027,-0.003917231,-0.009757773,0.882660270,0.001446005,-0.001662234,0.001842898,0.104249850,-0.036601558,9.798432350
1784243567.484023,-0.003908989,-0.009753385,0.882661998,0.001500058,-0.001180369,0.001997035,0.114028268,-0.008383099,9.782034874
1784243567.486026,-0.003901102,-0.009748141,0.882661760,0.002252741,-0.000203513,0.001536285,0.112899885,-0.027621208,9.780117035
1784243567.488031,-0.003902031,-0.009754633,0.882663369,0.002106402,-0.000186472,0.001213712,0.079492338,-0.043392316,9.789847374
1784243567.490027,-0.003900648,-0.009760720,0.882662177,0.001557640,-0.000942925,0.000919579,0.113406993,-0.056245357,9.835079193
1784243567.492031,-0.003895028,-0.009761299,0.882668018,0.001613103,-0.001140577,0.000978776,0.099821001,-0.067595854,9.817506790
1784243567.494028,-0.003897151,-0.009756405,0.882670105,0.001516538,-0.000528450,0.001242517,0.087849475,-0.058608230,9.772272110
1784243567.496029,-0.003896767,-0.009751881,0.882672846,0.001088786,0.000264534,0.001237445,0.125104666,-0.056146819,9.800121307
1784243567.498029,-0.003900245,-0.009748346,0.882675707,0.000650683,0.000861245,0.001287811,0.102631293,-0.058998268,9.800530434
1784243567.500032,-0.003907515,-0.009747962,0.882668972,-0.000194328,0.001017609,0.000672250,0.104476273,-0.053356752,9.822983742
1784243567.502043,-0.003912827,-0.009751335,0.882673025,-0.000997352,0.000539013,0.000310481,0.106383994,-0.008009103,9.806241035
1784243567.504038,-0.003914055,-0.009753782,0.882676840,-0.001241941,0.000056268,0.000768802,0.099059515,-0.020005703,9.805259705
1784243567.506041,-0.003910545,-0.009752747,0.882682383,-0.000820406,0.000003560,0.001195562,0.055320829,-0.036947135,9.809144020
1784243567.508053,-0.003909530,-0.009749748,0.882684886,-0.000294204,0.000143346,0.001417534,0.061256364,-0.066913828,9.791024208
1784243567.510046,-0.003916570,-0.009748579,0.882681906,-0.000632655,0.000256504,0.001000496,0.101149678,-0.068966530,9.818845749
1784243567.512044,-0.003919705,-0.009748530,0.882685184,-0.001151313,0.000269544,0.000750025,0.095451362,-0.057695944,9.819360733
1784243567.514045,-0.003918161,-0.009748611,0.882692575,-0.000844220,0.000231342,0.001272403,0.097296290,-0.054081198,9.811764717
1784243567.516046,-0.003929665,-0.009752726,0.882701337,-0.001184996,-0.000080712,0.002029557,0.084270522,-0.020482967,9.772962570
1784243567.518050,-0.003932956,-0.009756700,0.882697463,-0.001905190,-0.000640288,0.001820359,0.068337798,-0.036672257,9.810055733
1784243567.520050,-0.003934416,-0.009755594,0.882695496,-0.001755229,-0.000690685,0.000930899,0.093359150,-0.007940942,9.820125580
1784243567.522053,-0.003937764,-0.009751825,0.882697821,-0.001604781,-0.000172413,0.000701285,0.083327495,-0.022047464,9.805679321
1784243567.524051,-0.003935859,-0.009752292,0.882695496,-0.001333398,0.000113513,0.000515709,0.086213499,-0.044768382,9.782223701
1784243567.526058,-0.003938382,-0.009752498,0.882692277,-0.001083473,0.000053580,0.000000019,0.066953473,-0.040603988,9.798371315
1784243567.528058,-0.003936232,-0.009748640,0.882695198,-0.000845847,0.000205209,-0.000031495,0.067404084,-0.041810531,9.778188705
1784243567.530063,-0.003930091,-0.009750021,0.882701278,-0.000078421,0.000233390,0.000577847,0.092021756,-0.046660405,9.785803795
1784243567.532061,-0.003927757,-0.009747093,0.882695615,0.000518384,0.000275054,0.000444265,0.094077639,-0.025575176,9.778318405
1784243567.534066,-0.003925510,-0.009741207,0.882692873,0.000688657,0.000797889,-0.000246433,0.078207284,-0.037624709,9.800194740
1784243567.536066,-0.003923746,-0.009732985,0.882694960,0.000779179,0.001535904,-0.000224161,0.125478387,-0.061607599,9.811294556
1784243567.538070,-0.003921277,-0.009730408,0.882689118,0.000934287,0.001911914,-0.000425316,0.122344777,-0.062320188,9.791111946
1784243567.540076,-0.003918284,-0.009736244,0.882687151,0.001127997,0.001232666,-0.000847815,0.096041270,-0.048481740,9.782656670
1784243567.542073,-0.003920055,-0.009737260,0.882686973,0.000903257,0.000433364,-0.000760739,0.104185984,-0.042374179,9.791221619
1784243567.544073,-0.003918582,-0.009733348,0.882684767,0.000638511,0.000536250,-0.000711700,0.100517198,-0.048221640,9.801045418
1784243567.546076,-0.003921077,-0.009730638,0.882681787,0.000394615,0.000864958,-0.000873213,0.112238862,-0.042665269,9.817681313
1784243567.548078,-0.003923669,-0.009727908,0.882679701,-0.000073153,0.001035438,-0.000973667,0.100083508,-0.046881545,9.802398682
1784243567.550083,-0.003922665,-0.009724172,0.882674575,-0.000177758,0.001229967,-0.001190494,0.082904153,-0.056594528,9.813079834
1784243567.552084,-0.003921865,-0.009726821,0.882680595,-0.000006443,0.000969708,-0.000808742,0.097076029,-0.036061615,9.798428535
1784243567.554080,-0.003918834,-0.009725780,0.882687747,0.000295400,0.000611118,0.000299083,0.107683592,-0.049225438,9.803287506
1784243567.556089,-0.003921624,-0.009723601,0.882686615,0.000266859,0.000679542,0.000620166,0.076548897,-0.063983113,9.792401314
1784243567.558082,-0.003921452,-0.009723089,0.882694960,0.000099462,0.000568424,0.000943200,0.081595793,-0.054658253,9.795157433
1784243567.560086,-0.003916777,-0.009719665,0.882694483,0.000484623,0.000571782,0.001215906,0.084305741,-0.051716004,9.817594528
1784243567.562088,-0.003913084,-0.009715686,0.882687509,0.000916065,0.000921007,0.000369736,0.106231913,-0.020151746,9.812887192
1784243567.564096,-0.003913178,-0.009711827,0.882686377,0.000887142,0.001197334,-0.000283216,0.099309020,-0.000609834,9.786554337
1784243567.566098,-0.003908624,-0.009713190,0.882691562,0.000932492,0.001032845,0.000069565,0.088866070,-0.010767989,9.784684181
1784243567.568094,-0.003905867,-0.009714411,0.882692039,0.001105810,0.000532856,0.000432979,0.120795235,-0.002102862,9.831846237
1784243567.570099,-0.003902436,-0.009715986,0.882679582,0.001144345,0.000158872,-0.000493891,0.089231342,-0.016295532,9.805273056
1784243567.572107,-0.003901558,-0.009718886,0.882678926,0.001117573,-0.000184535,-0.001241796,0.099791020,-0.071074612,9.802690506
1784243567.574097,-0.003902866,-0.009715689,0.882679880,0.000864376,-0.000113731,-0.000882630,0.099151388,-0.086760230,9.804382324
1784243567.576119,-0.003906658,-0.009712694,0.882674336,0.000359610,0.000339387,-0.000962237,0.102421150,-0.076462395,9.799519539
1784243567.578108,-0.003907730,-0.009715385,0.882675767,0.000060030,0.000290540,-0.000986129,0.068081848,-0.058955852,9.793770790
1784243567.580188,-0.003905541,-0.009720420,0.882674754,0.000250983,-0.000291425,-0.000680996,0.072467670,-0.029111842,9.810555458
1784243567.582116,-0.003905636,-0.009719589,0.882669926,0.000321154,-0.000495991,-0.000890840,0.090987816,-0.021484205,9.775652885
1784243567.584109,-0.003904973,-0.009718183,0.882668495,0.000196441,-0.000192917,-0.001077574,0.093614310,-0.064490572,9.769998550
1784243567.586108,-0.003905106,-0.009718151,0.882665992,0.000104613,-0.000027115,-0.001051449,0.107137404,-0.058499690,9.785293579
1784243567.588111,-0.003904937,-0.009717691,0.882668495,0.000162841,0.000018664,-0.000761859,0.103572764,-0.055419721,9.799655914
1784243567.590111,-0.003907518,-0.009716583,0.882671058,0.000042500,0.000123663,-0.000207770,0.123742983,-0.017446918,9.842062950
1784243567.592118,-0.003913026,-0.009716505,0.882672369,-0.000515446,0.000169668,0.000122753,0.099231087,-0.044893779,9.776407242
1784243567.594120,-0.003914875,-0.009718476,0.882676303,-0.000833674,0.000021685,0.000452923,0.083407298,-0.016554285,9.789126396
1784243567.596117,-0.003914268,-0.009717934,0.882679045,-0.000649503,-0.000055159,0.000784542,0.077991515,-0.017543377,9.811979294
1784243567.598117,-0.003916638,-0.009716505,0.882681489,-0.000621840,0.000052556,0.000936606,0.082713932,-0.035906252,9.802451134
1784243567.600123,-0.003918175,-0.009718323,0.882683218,-0.000747903,-0.000028949,0.000974052,0.089186691,-0.020295387,9.800764084
1784243567.602125,-0.003919173,-0.009717501,0.882686913,-0.000713357,-0.000090129,0.001073729,0.098012395,-0.034144543,9.779164314
1784243567.604124,-0.003921232,-0.009712927,0.882688344,-0.000719237,0.000333725,0.001130852,0.099672966,-0.007363615,9.790545464
1784243567.606130,-0.003919554,-0.009709482,0.882693350,-0.000540996,0.000819970,0.001264003,0.124728993,-0.013922049,9.785596848
1784243567.608133,-0.003919204,-0.009713385,0.882697463,-0.000290680,0.000649811,0.001538790,0.100343019,-0.026596105,9.784594536
1784243567.610131,-0.003922808,-0.009717552,0.882691741,-0.000473831,0.000012243,0.001013455,0.066193029,-0.028164046,9.814591408
1784243567.612139,-0.003924882,-0.009723071,0.882690549,-0.000735086,-0.000646618,0.000268431,0.087631412,-0.037329283,9.804688454
1784243567.614136,-0.003927199,-0.009725685,0.882691741,-0.000853244,-0.001040251,0.000195632,0.087522201,-0.045891415,9.811807632
1784243567.616133,-0.003928147,-0.009723000,0.882692933,-0.000861351,-0.000770870,0.000308287,0.078488886,-0.051107448,9.805488586
1784243567.618134,-0.003925476,-0.009723456,0.882689834,-0.000449763,-0.000487363,0.000102676,0.072839938,-0.074605517,9.780673981
1784243567.620142,-0.003921106,-0.009727710,0.882685542,0.000207504,-0.000750340,-0.000428245,0.082096055,-0.051420163,9.779935837
1784243567.622144,-0.003920201,-0.009726373,0.882686436,0.000507015,-0.000743651,-0.000543419,0.109511718,-0.047364388,9.790299416
1784243567.624143,-0.003919561,-0.009722290,0.882685959,0.000532505,-0.000108390,-0.000353339,0.092648216,-0.029863032,9.816846848
1784243567.626143,-0.003915090,-0.009724990,0.882696867,0.000799654,0.000077628,0.000451902,0.089229435,-0.055521544,9.776777267
1784243567.628153,-0.003912573,-0.009725127,0.882701576,0.001061667,-0.000167673,0.001379482,0.107682906,-0.013261979,9.786481857
1784243567.630143,-0.003898288,-0.009723657,0.882697701,0.001908948,-0.000059264,0.001046955,0.121147029,-0.013815646,9.777074814
1784243567.632148,-0.003889829,-0.009718413,0.882694244,0.002929563,0.000414774,0.000247949,0.096514657,-0.044239990,9.815413475
1784243567.634148,-0.003886423,-0.009716230,0.882690489,0.002932359,0.000821980,-0.000316899,0.099705242,-0.039835606,9.820375443
1784243567.636150,-0.003891154,-0.009715369,0.882694304,0.002043980,0.000819141,-0.000226018,0.085457593,0.003676354,9.775809288
1784243567.638152,-0.003887059,-0.009714542,0.882694960,0.001322190,0.000672002,0.000146142,0.074687466,-0.030138252,9.824897766
1784243567.640154,-0.003884873,-0.009717197,0.882696331,0.001264294,0.000326774,0.000254208,0.102152772,-0.062064659,9.791542053
1784243567.642159,-0.003885364,-0.009716650,0.882701874,0.001040736,0.000093242,0.000657677,0.113297880,-0.069264472,9.775815964
1784243567.644188,-0.003889574,-0.009712351,0.882704556,0.000557538,0.000412106,0.001026023,0.111769333,-0.044444997,9.816772461
1784243567.646165,-0.003887899,-0.009711554,0.882707417,0.000350797,0.000661934,0.001114169,0.090712711,-0.043513790,9.786719322
1784243567.648162,-0.003885649,-0.009707198,0.882701159,0.000527050,0.000844060,0.000583193,0.092286453,-0.025523566,9.774282455
1784243567.650161,-0.003883387,-0.009704015,0.882701695,0.000693751,0.001139312,0.000034883,0.102953859,-0.032946572,9.790834427
1784243567.652174,-0.003888628,-0.009701290,0.882705569,0.000305956,0.001229691,0.000319910,0.073643796,-0.007065134,9.795454979
1784243567.654166,-0.003894511,-0.009700859,0.882709861,-0.000612510,0.001066739,0.000796041,0.078162402,-0.041221119,9.801964760
1784243567.656164,-0.003897030,-0.009699211,0.882707894,-0.001100634,0.000876517,0.000745647,0.094467230,-0.068095297,9.771322250
1784243567.658170,-0.003892904,-0.009698226,0.882708311,-0.000623147,0.000802617,0.000439842,0.095264174,-0.074978828,9.792798042
1784243567.660172,-0.003891235,-0.009699812,0.882709444,0.000011105,0.000528375,0.000432915,0.097882107,-0.044088718,9.791653633
1784243567.662177,-0.003885037,-0.009703303,0.882708788,0.000542523,0.000040300,0.000354166,0.102421790,-0.039272692,9.799309731
1784243567.664173,-0.003881892,-0.009708053,0.882717252,0.001052699,-0.000535564,0.000783165,0.117607579,-0.045695104,9.793007851
1784243567.666174,-0.003887751,-0.009707985,0.882725656,0.000611845,-0.000716086,0.001709488,0.114978783,-0.004327972,9.777130127
1784243567.668175,-0.003893574,-0.009706953,0.882727921,-0.000444692,-0.000387141,0.001970510,0.079224892,-0.027771525,9.798913002
1784243567.670178,-0.003900966,-0.009708972,0.882728934,-0.001323231,-0.000287339,0.001672311,0.093282878,-0.053022239,9.796075821
1784243567.672180,-0.003904040,-0.009707851,0.882728219,-0.001674075,-0.000270533,0.001256654,0.107945740,-0.064077504,9.812159538
1784243567.674180,-0.003902955,-0.009707284,0.882730246,-0.001240439,-0.000050063,0.001010263,0.099469952,-0.023150362,9.805686951
1784243567.676213,-0.003898809,-0.009704385,0.882728875,-0.000434903,0.000231594,0.000778067,0.115150183,-0.026785837,9.784607887
1784243567.678189,-0.003898984,-0.009704776,0.882729530,-0.000101557,0.000386067,0.000517970,0.104856849,-0.024010347,9.790892601
1784243567.680188,-0.003902462,-0.009711618,0.882733107,-0.000372976,-0.000163930,0.000666968,0.098966636,-0.028844103,9.788166046
1784243567.682191,-0.003910311,-0.009712559,0.882728994,-0.001040957,-0.000647530,0.000449370,0.094884835,0.005617369,9.800936699
1784243567.684191,-0.003915529,-0.009710507,0.882726967,-0.001773924,-0.000454870,-0.000085591,0.098039776,-0.031091491,9.790840149
1784243567.686192,-0.003917002,-0.009706757,0.882728457,-0.001871382,0.000002435,-0.000093757,0.126332864,-0.067226373,9.780774117
1784243567.688195,-0.003918277,-0.009705906,0.882728577,-0.001417452,0.000419027,0.000046007,0.115087226,-0.068925358,9.787923813
1784243567.690201,-0.003923540,-0.009707154,0.882730603,-0.001343670,0.000383073,0.000181628,0.084955938,-0.037567861,9.780026436
1784243567.692204,-0.003922374,-0.009708730,0.882729352,-0.001256470,0.000087086,0.000188718,0.081598215,-0.054639176,9.792468071
1784243567.694233,-0.003920429,-0.009707202,0.882725060,-0.000630665,-0.000059946,-0.000238085,0.083250217,-0.026304873,9.837483406
1784243567.696207,-0.003921286,-0.009706092,0.882717252,-0.000316373,0.000017229,-0.000999500,0.110686354,-0.024113702,9.794934273
1784243567.698206,-0.003921387,-0.009706374,0.882720113,-0.000359386,0.000109392,-0.001067016,0.085447751,-0.031559709,9.816379547
1784243567.700204,-0.003918751,-0.009709578,0.882727981,-0.000143290,-0.000120654,-0.000052407,0.094323568,-0.041771121,9.787182808
1784243567.702204,-0.003916005,-0.009713026,0.882726610,0.000265209,-0.000541165,0.000396886,0.101727612,-0.023877893,9.777888298
1784243567.704211,-0.003912864,-0.009715658,0.882719576,0.000583307,-0.000841525,-0.000286644,0.102357522,-0.007458525,9.799065590
1784243567.706213,-0.003907915,-0.009715412,0.882715583,0.000962837,-0.000808833,-0.000963470,0.080129825,-0.063692428,9.808099747
1784243567.708215,-0.003905628,-0.009716618,0.882707536,0.001277016,-0.000658986,-0.001527976,0.086808220,-0.070269160,9.775784492
1784243567.710209,-0.003899382,-0.009721422,0.882701814,0.001592846,-0.000892082,-0.002049293,0.079367600,-0.016918713,9.784636497
1784243567.712226,-0.003898513,-0.009724585,0.882701695,0.001639463,-0.001189227,-0.001888513,0.093946613,-0.036335789,9.779596329
1784243567.714219,-0.003898647,-0.009724785,0.882704258,0.001223214,-0.001116283,-0.001210883,0.109944701,-0.012741019,9.772141457
1784243567.716221,-0.003900260,-0.009721803,0.882694602,0.000745234,-0.000643294,-0.001365041,0.109667771,-0.034379877,9.791278839
1784243567.718217,-0.003903582,-0.009719710,0.882687032,0.000183874,-0.000094231,-0.002162511,0.092486806,-0.044105574,9.803753853
1784243567.720221,-0.003906430,-0.009725744,0.882683456,-0.000305016,-0.000307901,-0.002331814,0.078702129,-0.034834590,9.784969330
1784243567.722228,-0.003906298,-0.009727567,0.882679284,-0.000411739,-0.000755673,-0.002221708,0.094044432,-0.029079376,9.767087936
1784243567.724223,-0.003904961,-0.009724576,0.882678390,-0.000248651,-0.000509599,-0.001957407,0.085942954,-0.027956327,9.812817574
1784243567.726226,-0.003897060,-0.009721711,0.882674873,0.000397880,-0.000012262,-0.001726152,0.078300051,-0.030003009,9.799347878
1784243567.728225,-0.003892137,-0.009724765,0.882675290,0.001135555,-0.000049369,-0.001469228,0.105456524,-0.048256263,9.797014236
1784243567.730226,-0.003890176,-0.009726614,0.882674098,0.001271299,-0.000397052,-0.001122020,0.118151784,-0.074836791,9.794613838
1784243567.732230,-0.003888955,-0.009724211,0.882671893,0.001139879,-0.000250763,-0.001047740,0.099665985,-0.043387499,9.815870285
1784243567.734230,-0.003890250,-0.009723776,0.882668495,0.000847759,0.000056801,-0.001137235,0.092932522,-0.044540208,9.801060677
1784243567.736232,-0.003894169,-0.009729005,0.882665992,0.000285836,-0.000237244,-0.001223924,0.112314343,-0.038827211,9.781838417
1784243567.738236,-0.003903178,-0.009733583,0.882667363,-0.000652305,-0.000789728,-0.000964869,0.094066709,-0.024850963,9.802534103
1784243567.740270,-0.003906476,-0.009732719,0.882663071,-0.001294785,-0.000777892,-0.000900139,0.078464270,-0.015738208,9.809302330
1784243567.742253,-0.003900502,-0.009736725,0.882658482,-0.000767463,-0.000777457,-0.001266639,0.082519569,-0.013629631,9.820528030
1784243567.744244,-0.003898934,-0.009739068,0.882658064,-0.000079346,-0.001034066,-0.001263802,0.113049440,-0.013877500,9.800380707
1784243567.746241,-0.003901546,-0.009742993,0.882658720,-0.000157467,-0.001216969,-0.000901598,0.112982169,-0.020082185,9.790925980
1784243567.748244,-0.003896837,-0.009744109,0.882660449,-0.000013707,-0.001155270,-0.000491916,0.121425748,-0.098853663,9.826745033
1784243567.750243,-0.003890024,-0.009740970,0.882659137,0.000729407,-0.000630344,-0.000334193,0.106697842,-0.094390631,9.792685509
1784243567.752280,-0.003892046,-0.009746480,0.882653773,0.000852012,-0.000618419,-0.000709422,0.074735969,-0.064103201,9.812576294
1784243567.754256,-0.003897604,-0.009746144,0.882654250,0.000196804,-0.000872578,-0.000841005,0.086021550,-0.022472689,9.797609329
1784243567.756255,-0.003898591,-0.009744260,0.882658005,-0.000204209,-0.000558338,-0.000320197,0.101287946,-0.023395568,9.773856163
1784243567.758251,-0.003893293,-0.009742998,0.882663310,0.000119176,-0.000193942,0.000367820,0.084240548,-0.021124886,9.800306320
1784243567.760251,-0.003891046,-0.009740348,0.882664502,0.000572686,0.000124160,0.000707206,0.097855575,-0.047945481,9.766970634
1784243567.762257,-0.003895413,-0.009737356,0.882662237,0.000272673,0.000473786,0.000448650,0.126305357,-0.068659283,9.793316841
1784243567.764261,-0.003899757,-0.009732940,0.882658780,-0.000377252,0.000897120,-0.000064384,0.121736683,-0.038951121,9.782294273
1784243567.766263,-0.003895889,-0.009732950,0.882655740,-0.000292270,0.001001834,-0.000492527,0.105771571,-0.058638245,9.807260513
1784243567.768270,-0.003891196,-0.009738557,0.882664859,0.000483124,0.000363143,0.000059213,0.060550869,-0.050797984,9.794263840
1784243567.770269,-0.003889583,-0.009741742,0.882669330,0.000899800,-0.000319629,0.000965153,0.062929824,-0.040031154,9.788061142
1784243567.772269,-0.003886779,-0.009738035,0.882669508,0.000958338,-0.000198644,0.001014415,0.121779799,-0.032937221,9.818649292
1784243567.774268,-0.003885334,-0.009739062,0.882671535,0.000931200,0.000089232,0.000888838,0.105847701,-0.055200446,9.764690399
1784243567.776292,-0.003889962,-0.009740034,0.882665217,0.000402743,-0.000016897,0.000361545,0.100214653,-0.034904238,9.819063187
1784243567.778281,-0.003893842,-0.009739463,0.882663548,-0.000287804,0.000018628,-0.000275165,0.121597104,-0.048158355,9.817205429
1784243567.780281,-0.003890907,-0.009743193,0.882668197,-0.000270289,-0.000145636,0.000000891,0.112294093,-0.040202886,9.786313057
1784243567.782277,-0.003885284,-0.009750652,0.882667482,0.000386720,-0.000866664,0.000271875,0.114537373,-0.039828189,9.792593956
1784243567.784273,-0.003882980,-0.009754679,0.882669210,0.000829857,-0.001372326,0.000270767,0.111621387,-0.058175992,9.794714928
1784243567.786282,-0.003884769,-0.009759139,0.882667482,0.000648775,-0.001536828,0.000198087,0.100536808,-0.046445690,9.803297043
1784243567.788277,-0.003887230,-0.009757849,0.882666171,0.000177338,-0.001327802,-0.000052136,0.046040379,-0.025976760,9.795306206
1784243567.790276,-0.003885275,-0.009753350,0.882671177,0.000092554,-0.000569112,0.000220664,0.074367188,-0.022634448,9.778318405
1784243567.792280,-0.003882855,-0.009754954,0.882676423,0.000371111,-0.000220732,0.000852042,0.113293022,-0.030902591,9.799823761
1784243567.794278,-0.003885084,-0.009757152,0.882677019,0.000262704,-0.000393793,0.001020292,0.127569422,-0.039029039,9.782747269
1784243567.796282,-0.003888210,-0.009757627,0.882679284,-0.000194677,-0.000442572,0.000944120,0.124980845,-0.031287000,9.769794464
1784243567.798278,-0.003884102,-0.009757037,0.882681966,-0.000073466,-0.000231794,0.001017086,0.121910080,-0.057746165,9.841801643
1784243567.800283,-0.003880538,-0.009757050,0.882682025,0.000467555,-0.000046241,0.000926725,0.088226892,-0.062013619,9.809462547
1784243567.802290,-0.003886144,-0.009760690,0.882688224,0.000206126,-0.000283533,0.001110506,0.092555277,-0.037891354,9.811863899
1784243567.804288,-0.003892729,-0.009761886,0.882688284,-0.000672117,-0.000520978,0.001242936,0.059216678,-0.013502008,9.781500816
1784243567.806293,-0.003892619,-0.009763978,0.882685781,-0.000929639,-0.000586428,0.000744906,0.066492364,-0.003916914,9.806675911
1784243567.808293,-0.003889566,-0.009766717,0.882687747,-0.000558840,-0.000802897,0.000508407,0.094657011,-0.050386705,9.801025391
1784243567.810298,-0.003887894,-0.009764068,0.882692516,-0.000177904,-0.000640789,0.000825476,0.087974809,-0.047082063,9.789382935
1784243567.812297,-0.003886746,-0.009762471,0.882695615,0.000066976,-0.000180801,0.001130518,0.107101455,-0.059999380,9.807251930
1784243567.814296,-0.003892225,-0.009766591,0.882693052,-0.000228201,-0.000269591,0.000862225,0.127376601,-0.053519599,9.804622650
1784243567.816332,-0.003892331,-0.009770256,0.882685065,-0.000535706,-0.000688612,-0.000093521,0.125157386,-0.052083377,9.795662880
1784243567.818304,-0.003889709,-0.009769635,0.882678330,-0.000212746,-0.000638008,-0.001075750,0.078811415,-0.024245679,9.807903290
1784243567.820303,-0.003893815,-0.009768496,0.882675052,-0.000245937,-0.000276255,-0.001464976,0.065860368,-0.057132073,9.793332100
1784243567.822317,-0.003893747,-0.009768480,0.882677794,-0.000453642,-0.000122723,-0.001099563,0.053956993,-0.039906632,9.786706924
1784243567.824304,-0.003897008,-0.009767852,0.882682264,-0.000535649,-0.000176825,-0.000310676,0.084714733,-0.057303589,9.783486366
1784243567.826302,-0.003900898,-0.009766726,0.882682860,-0.000865453,-0.000140444,0.000119599,0.109408833,-0.054255500,9.814465523
1784243567.828305,-0.003902510,-0.009766218,0.882683754,-0.000958564,0.000065904,0.000199613,0.111317635,-0.044868134,9.814077377
1784243567.830355,-0.003902158,-0.009760643,0.882690191,-0.000734723,0.000516742,0.000639127,0.127651364,-0.032303270,9.781894684
1784243567.832314,-0.003896535,-0.009758574,0.882698059,-0.000120218,0.000891425,0.001429631,0.127443001,-0.046511207,9.827084541
1784243567.834311,-0.003890125,-0.009763170,0.882703304,0.000736423,0.000512440,0.001930315,0.106918596,-0.038037173,9.806496620
1784243567.836317,-0.003887855,-0.009762899,0.882700503,0.001125818,0.000117316,0.001571949,0.097807892,-0.011137349,9.820559502
1784243567.838320,-0.003885891,-0.009762184,0.882691681,0.001017359,0.000145553,0.000355276,0.056838121,-0.021428820,9.829419136
1784243567.840326,-0.003886819,-0.009762408,0.882688582,0.000721049,0.000132579,-0.000549642,0.045431420,-0.039393950,9.792978287
1784243567.842332,-0.003882477,-0.009757672,0.882694662,0.000758989,0.000402179,-0.000196005,0.090905599,-0.026996464,9.794896126
1784243567.844325,-0.003879882,-0.009748720,0.882693052,0.001009990,0.001207592,0.000155622,0.122695774,-0.033612523,9.785917282
1784243567.846334,-0.003884480,-0.009745451,0.882688224,0.000578756,0.001697490,-0.000329861,0.121014953,-0.061769132,9.779009819
1784243567.848335,-0.003890465,-0.009744891,0.882685423,-0.000246510,0.001592351,-0.000759123,0.088275820,-0.020795444,9.809727669
1784243567.850336,-0.003895055,-0.009745060,0.882676721,-0.000849634,0.001283338,-0.001325860,0.077977516,-0.056864779,9.796932220
1784243567.852334,-0.003899182,-0.009745779,0.882673502,-0.001218550,0.000877695,-0.001775719,0.090310328,-0.075058669,9.812968254
1784243567.854332,-0.003899305,-0.009745149,0.882677138,-0.001054810,0.000626431,-0.001272119,0.122531094,-0.047070440,9.788520813
1784243567.856332,-0.003890977,-0.009749719,0.882675707,-0.000088833,0.000181495,-0.000779004,0.106684297,-0.020938952,9.796743393
1784243567.858336,-0.003887064,-0.009749159,0.882673502,0.000724498,-0.000123384,-0.000816633,0.104942694,-0.053222600,9.803258896
1784243567.860335,-0.003884246,-0.009748888,0.882669389,0.000941279,-0.000016342,-0.001023326,0.108530298,-0.053284489,9.805503845
1784243567.862341,-0.003885441,-0.009750960,0.882664859,0.000790099,-0.000132025,-0.001337937,0.112781644,-0.036659919,9.791267395
1784243567.864333,-0.003889147,-0.009753760,0.882661581,0.000243788,-0.000409919,-0.001514743,0.104359016,-0.027229356,9.803424835
1784243567.866335,-0.003891991,-0.009756618,0.882660389,-0.000263820,-0.000666617,-0.001409348,0.085610531,-0.019737840,9.791798592
1784243567.868344,-0.003890413,-0.009756621,0.882657528,-0.000342864,-0.000712980,-0.001295220,0.107758000,-0.006590259,9.793249130
1784243567.870344,-0.003893967,-0.009754694,0.882653236,-0.000450655,-0.000420901,-0.001426964,0.074455529,-0.012210881,9.824563026
1784243567.872343,-0.003895710,-0.009755440,0.882650971,-0.000692175,-0.000224586,-0.001487186,0.080474794,-0.035032462,9.809628487
1784243567.874357,-0.003892105,-0.009749267,0.882647991,-0.000359776,0.000128383,-0.001438820,0.106548943,-0.033354674,9.778729439
1784243567.876393,-0.003892450,-0.009744722,0.882645071,-0.000023202,0.000744815,-0.001455590,0.125585705,-0.054681499,9.782197952
1784243567.878367,-0.003894970,-0.009746458,0.882643104,-0.000198103,0.000819983,-0.001398350,0.107381158,-0.037528191,9.797084808
1784243567.880410,-0.003896993,-0.009744029,0.882644832,-0.000436334,0.000729950,-0.001032701,0.073964760,-0.053369254,9.816678047
1784243567.882375,-0.003900844,-0.009739986,0.882644892,-0.000715392,0.000970601,-0.000620377,0.094873644,-0.068434894,9.818395615
1784243567.884380,-0.003905437,-0.009739183,0.882643402,-0.000991650,0.001040032,-0.000537331,0.088623941,-0.028889930,9.813261986
1784243567.886369,-0.003911971,-0.009739613,0.882641137,-0.001376617,0.000787603,-0.000641279,0.051732365,-0.036081523,9.819906235
1784243567.888370,-0.003916713,-0.009737158,0.882635593,-0.001747003,0.000588342,-0.000988010,0.079457469,-0.046099164,9.792519569
1784243567.890393,-0.003919782,-0.009737096,0.882633686,-0.001781447,0.000476533,-0.001221988,0.098202854,-0.017646292,9.790030479
1784243567.892370,-0.003919636,-0.009734416,0.882632494,-0.001498325,0.000533981,-0.001102346,0.097637460,-0.025856465,9.811496735
1784243567.894400,-0.003914651,-0.009735998,0.882628739,-0.000804603,0.000481354,-0.001141302,0.097092129,-0.035934433,9.780497551
1784243567.896377,-0.003912481,-0.009736538,0.882633507,-0.000157893,0.000223066,-0.000773543,0.098427311,-0.038064297,9.762552261
1784243567.898371,-0.003909964,-0.009742411,0.882638514,0.000218041,-0.000273818,0.000106256,0.078546196,-0.046602402,9.801931381
1784243567.900372,-0.003903707,-0.009744035,0.882634759,0.000763705,-0.000707178,0.000169557,0.094044201,-0.028675936,9.773367882
1784243567.902380,-0.003900822,-0.009742430,0.882626474,0.001168888,-0.000513336,-0.000702121,0.090411425,-0.030996928,9.791282654
1784243567.904379,-0.003903643,-0.009742526,0.882630289,0.000830804,-0.000296509,-0.000814211,0.097663686,-0.061212990,9.805890083
1784243567.906398,-0.003903754,-0.009739844,0.882628322,0.000385378,-0.000067065,-0.000462542,0.086133622,-0.049451496,9.810886383
1784243567.908390,-0.003907075,-0.009741237,0.882626891,0.000060784,0.000012301,-0.000567880,0.078341588,-0.027648734,9.783222198
1784243567.910402,-0.003909454,-0.009740410,0.882634521,-0.000323242,-0.000058269,0.000004297,0.090962566,-0.023304665,9.779676437
1784243567.912389,-0.003908250,-0.009737217,0.882634461,-0.000310245,0.000228596,0.000513731,0.069576874,-0.044829115,9.820763588
1784243567.914388,-0.003905921,-0.009737311,0.882634103,-0.000011764,0.000293786,0.000342953,0.091856673,-0.060121495,9.788854599
1784243567.916390,-0.003905647,-0.009741805,0.882637858,0.000145134,-0.000181709,0.000486309,0.084474914,-0.039033186,9.797950745
1784243567.918390,-0.003912170,-0.009740492,0.882642210,-0.000336408,-0.000379675,0.000915556,0.090475887,-0.024814505,9.803875923
1784243567.920387,-0.003918474,-0.009736167,0.882647276,-0.001132929,0.000074445,0.001303090,0.128774047,-0.049889565,9.795681953
1784243567.922390,-0.003919461,-0.009737727,0.882647812,-0.001316588,0.000240547,0.001332392,0.114084885,-0.040257685,9.790798187
1784243567.924390,-0.003915478,-0.009740728,0.882649004,-0.000749164,-0.000058442,0.001099787,0.091351420,-0.029051244,9.767982483
1784243567.926396,-0.003913479,-0.009739924,0.882647097,-0.000134740,-0.000115321,0.000751034,0.107199900,-0.053143233,9.788018227
1784243567.928397,-0.003911995,-0.009741142,0.882648647,0.000205121,-0.000083710,0.000515259,0.086640283,-0.045352459,9.800601006
1784243567.930398,-0.003907488,-0.009742249,0.882657766,0.000630311,-0.000193239,0.001101220,0.069621876,-0.005262883,9.801290512
1784243567.932404,-0.003909736,-0.009741662,0.882654428,0.000616386,-0.000177551,0.001203171,0.080044284,-0.032856859,9.819505692
1784243567.934400,-0.003909902,-0.009742335,0.882644713,0.000283312,-0.000208780,-0.000004989,0.107237525,-0.049604062,9.794317245
1784243567.936401,-0.003909981,-0.009736207,0.882643342,0.000189095,0.000144079,-0.000756429,0.128454700,-0.038325854,9.808307648
1784243567.938407,-0.003912369,-0.009735702,0.882647753,-0.000023162,0.000702800,-0.000345646,0.115574844,-0.028602501,9.787285805
1784243567.940410,-0.003912644,-0.009736226,0.882656455,-0.000184313,0.000655707,0.000637033,0.089705631,-0.054094382,9.764234543
1784243567.942448,-0.003912541,-0.009738585,0.882654190,-0.000141615,0.000280455,0.000899963,0.110832162,-0.049205273,9.794771194
1784243567.944413,-0.003918522,-0.009741348,0.882649481,-0.000488589,-0.000037299,0.000188067,0.078569494,-0.045607913,9.788039207
1784243567.946417,-0.003923245,-0.009745512,0.882648289,-0.001068322,-0.000391692,-0.000259539,0.084272355,-0.055626821,9.800533295
1784243567.948413,-0.003925021,-0.009749721,0.882648885,-0.001150158,-0.000853739,-0.000225174,0.075354233,-0.051422954,9.792481422
1784243567.950409,-0.003922840,-0.009750259,0.882652760,-0.000737808,-0.000945539,0.000144959,0.097513504,-0.071719587,9.834516525
1784243567.952416,-0.003921770,-0.009752117,0.882659078,-0.000310017,-0.000854119,0.000794769,0.114931546,-0.043506652,9.805124283
1784243567.954417,-0.003919392,-0.009752978,0.882659256,0.000020506,-0.000768176,0.001015562,0.116291389,-0.044225868,9.777773857
1784243567.956417,-0.003915998,-0.009746358,0.882657290,0.000413507,-0.000127804,0.000620261,0.105916455,-0.047362905,9.796572685
1784243567.958422,-0.003919647,-0.009743469,0.882652998,0.000323410,0.000578631,0.000026147,0.098365180,-0.039770659,9.813650131
1784243567.960419,-0.003921920,-0.009743416,0.882651269,-0.000126807,0.000647317,-0.000391703,0.075940296,-0.038997080,9.808252335
1784243567.962424,-0.003921058,-0.009741819,0.882655919,-0.000186242,0.000582700,-0.000082552,0.077843286,-0.030060856,9.808313370
1784243567.964423,-0.003917275,-0.009742336,0.882663310,0.000238462,0.000472820,0.000756816,0.066786945,-0.018918049,9.773404121
1784243567.966426,-0.003909792,-0.009748230,0.882664502,0.000994943,-0.000114585,0.001131497,0.093321539,-0.049880158,9.795199394
1784243567.968429,-0.003903258,-0.009745529,0.882666290,0.001730075,-0.000326174,0.001026857,0.098784856,-0.045679025,9.761607170
1784243567.970429,-0.003905752,-0.009737260,0.882668197,0.001588842,0.000480720,0.000991011,0.080406897,-0.040836878,9.806900978
1784243567.972435,-0.003905637,-0.009740144,0.882664621,0.000994783,0.000716059,0.000601117,0.114216127,-0.064653650,9.818884850
1784243567.974432,-0.003909479,-0.009745318,0.882655323,0.000572713,0.000045961,-0.000427712,0.102906384,-0.036968682,9.789463043
1784243567.976461,-0.003910435,-0.009740781,0.882658780,0.000197252,0.000059634,-0.000705168,0.123959020,-0.041578602,9.769727707
1784243567.978444,-0.003907463,-0.009739359,0.882657528,0.000252536,0.000494710,-0.000362847,0.101693548,-0.061331503,9.815309525
1784243567.980447,-0.003907854,-0.009739324,0.882654250,0.000326741,0.000508073,-0.000566402,0.080903932,-0.072377346,9.830908775
1784243567.982442,-0.003911726,-0.009739517,0.882652402,-0.000054730,0.000360843,-0.000770412,0.088899039,-0.044450309,9.795677185
1784243567.984441,-0.003913446,-0.009738418,0.882653356,-0.000387366,0.000270406,-0.000630196,0.130997062,-0.050890539,9.806437492
1784243567.986439,-0.003913858,-0.009736002,0.882653832,-0.000393141,0.000380859,-0.000346173,0.136237234,-0.062635139,9.810401917
1784243567.988440,-0.003910813,-0.009735936,0.882651865,-0.000052584,0.000530819,-0.000336900,0.083438076,-0.050659139,9.796529770
1784243567.990448,-0.003908610,-0.009736205,0.882654190,0.000374092,0.000457481,-0.000222568,0.071115233,-0.030765612,9.793506622
1784243567.992449,-0.003907221,-0.009739379,0.882655263,0.000518415,0.000098646,0.000057326,0.103265457,-0.042950556,9.810945511
1784243567.994445,-0.003907101,-0.009742185,0.882653773,0.000459887,-0.000303441,0.000007456,0.072942786,-0.026477516,9.817297935
