time_sec,roll_rad,pitch_rad,yaw_rad,gyro_x,gyro_y,gyro_z,acc_x,acc_y,acc_z
1784244385.333245,-0.007369120,0.000656140,-0.157010928,-0.000490131,0.000993535,0.001586649,-0.014508081,-0.059340440,9.807587624
1784244385.335154,-0.007365910,0.000659033,-0.157011554,-0.000135770,0.000916042,0.001271616,0.012661123,-0.077898562,9.785079002
1784244385.337165,-0.007369288,0.000665683,-0.157008693,-0.000235005,0.001259203,0.001079879,0.020187685,-0.048501436,9.796034813
1784244385.339204,-0.007366530,0.000669355,-0.157014608,-0.000322753,0.001673566,0.000580056,0.006608079,-0.058990989,9.783400536
1784244385.341197,-0.007367235,0.000675969,-0.157017365,-0.000204971,0.001975789,-0.000162857,-0.010803088,-0.049559906,9.811689377
1784244385.343188,-0.007364258,0.000679372,-0.157012358,0.000004828,0.002118084,0.000035826,-0.008132338,-0.050979625,9.817511559
1784244385.345194,-0.007361859,0.000676853,-0.157006621,0.000312166,0.001586564,0.000754929,-0.021569181,-0.048589598,9.820652962
1784244385.347184,-0.007362917,0.000674982,-0.157012060,0.000262663,0.000846639,0.000572368,-0.016403059,-0.029813033,9.817190170
1784244385.349178,-0.007362460,0.000675775,-0.157011062,0.000031045,0.000545701,0.000115457,-0.009628057,-0.063896008,9.809357643
1784244385.351163,-0.007366437,0.000676065,-0.157009840,-0.000336085,0.000469837,0.000234381,0.007413139,-0.063784167,9.825963020
1784244385.353185,-0.007365841,0.000678413,-0.157020032,-0.000473986,0.000525817,-0.000436334,-0.003482485,-0.074778445,9.816467285
1784244385.355182,-0.007359235,0.000678866,-0.157024100,0.000150376,0.000632993,-0.001284458,-0.007886129,-0.068389080,9.807985306
1784244385.357185,-0.007353570,0.000683291,-0.157026023,0.000948937,0.000847926,-0.001341392,0.000335802,-0.057214044,9.796855927
1784244385.359242,-0.007353210,0.000689912,-0.157027662,0.001063932,0.001350524,-0.001219216,-0.034599233,-0.089799650,9.779576302
1784244385.361210,-0.007356114,0.000689651,-0.157033592,0.000566308,0.001400604,-0.001403674,-0.028594173,-0.076359242,9.768909454
1784244385.363203,-0.007357961,0.000689384,-0.157035276,0.000090445,0.000988330,-0.001540729,0.003382623,-0.068939067,9.738947868
1784244385.365216,-0.007360479,0.000692241,-0.157034039,-0.000218696,0.000918589,-0.001151830,-0.016369192,-0.067945987,9.760904312
1784244385.367192,-0.007353206,0.000696909,-0.157039970,0.000175194,0.001204863,-0.001154488,-0.013080906,-0.054665040,9.777581215
1784244385.369175,-0.007348463,0.000699224,-0.157045364,0.000878464,0.001357692,-0.001607368,-0.012943508,-0.080633461,9.774724960
1784244385.371196,-0.007350061,0.000697898,-0.157043338,0.000788386,0.001058219,-0.001398979,-0.007150136,-0.117396243,9.830536842
1784244385.373208,-0.007350048,0.000697348,-0.157043695,0.000466684,0.000642724,-0.000905691,-0.045700841,-0.079419583,9.789047241
1784244385.375205,-0.007346106,0.000703647,-0.157041594,0.000653026,0.000785484,-0.000543186,-0.014083846,-0.098750263,9.804196358
1784244385.377190,-0.007347935,0.000704972,-0.157042742,0.000663713,0.001017158,-0.000332747,-0.009891646,-0.083403170,9.843752861
1784244385.379183,-0.007352111,0.000704707,-0.157045767,0.000089887,0.000834321,-0.000525313,-0.007628620,-0.045282699,9.834585190
1784244385.381175,-0.007356310,0.000708175,-0.157050356,-0.000488730,0.000848290,-0.000899703,-0.009108406,-0.058478530,9.802667618
1784244385.383158,-0.007355496,0.000707614,-0.157051787,-0.000585469,0.000818301,-0.001063840,-0.016919443,-0.073605113,9.801665306
1784244385.385241,-0.007352663,0.000704651,-0.157051623,-0.000119023,0.000356692,-0.000860076,-0.014928072,-0.057892229,9.793698311
1784244385.387190,-0.007347821,0.000706161,-0.157059655,0.000494612,0.000164223,-0.001161695,-0.017619941,-0.057044491,9.805358887
1784244385.389159,-0.007342772,0.000707299,-0.157067716,0.001036112,0.000278413,-0.001939460,-0.019176831,-0.076927938,9.768914223
1784244385.391213,-0.007338734,0.000709356,-0.157068834,0.001375611,0.000395313,-0.002036606,-0.048215244,-0.063392036,9.807977676
1784244385.393180,-0.007341587,0.000714402,-0.157071576,0.001082804,0.000772071,-0.001745573,-0.041756704,-0.049109150,9.804040909
1784244385.395185,-0.007341980,0.000719970,-0.157074034,0.000509687,0.001194963,-0.001623563,-0.037170317,-0.078677423,9.795338631
1784244385.397192,-0.007342494,0.000720222,-0.157072797,0.000250732,0.001175679,-0.001265474,-0.019169345,-0.074437313,9.796727180
1784244385.399180,-0.007349392,0.000720927,-0.157071561,-0.000320918,0.000912223,-0.000753883,-0.007492322,-0.072880797,9.808852196
1784244385.401166,-0.007351450,0.000725700,-0.157073513,-0.000841999,0.001028741,-0.000596264,-0.012008163,-0.037892487,9.811314583
1784244385.403207,-0.007345253,0.000730653,-0.157072753,-0.000332313,0.001410242,-0.000514478,0.000930037,-0.043507881,9.821602821
1784244385.405185,-0.007338328,0.000730523,-0.157072291,0.000577858,0.001393367,-0.000293218,-0.015287752,-0.048673261,9.821105003
1784244385.407174,-0.007332224,0.000726726,-0.157071874,0.001234519,0.000787280,-0.000153403,-0.016802862,-0.063769050,9.804419518
1784244385.409176,-0.007327086,0.000723135,-0.157067984,0.001600145,0.000003545,0.000181039,0.006337065,-0.044208884,9.784391403
1784244385.411178,-0.007322308,0.000720684,-0.157062754,0.001776297,-0.000478422,0.000749962,-0.019580361,-0.071702465,9.790915489
1784244385.413197,-0.007315571,0.000725360,-0.157066822,0.002075461,-0.000198078,0.000626651,-0.039400645,-0.076923601,9.804761887
1784244385.415187,-0.007315891,0.000734492,-0.157073781,0.002013144,0.000662235,-0.000290353,-0.027233034,-0.072205298,9.812424660
1784244385.417179,-0.007317409,0.000739255,-0.157079428,0.001407548,0.001295668,-0.001067544,0.012991525,-0.086132951,9.808339119
1784244385.419225,-0.007316430,0.000740490,-0.157076284,0.001124322,0.001463221,-0.000949137,-0.014365165,-0.086481035,9.780514717
1784244385.421196,-0.007312708,0.000738311,-0.157075286,0.001273427,0.001110702,-0.000413664,0.005993428,-0.071642622,9.799459457
1784244385.423234,-0.007312160,0.000737218,-0.157080993,0.001217843,0.000589330,-0.000621021,0.004980074,-0.081867456,9.789977074
1784244385.425203,-0.007316909,0.000738341,-0.157084808,0.000657340,0.000541100,-0.001095990,-0.009298472,-0.074973606,9.791353226
1784244385.427243,-0.007315822,0.000738842,-0.157083318,0.000285175,0.000610582,-0.000953961,0.008290801,-0.066788308,9.805768967
1784244385.429205,-0.007313576,0.000734161,-0.157081261,0.000370010,0.000222944,-0.000455231,0.003214042,-0.078375235,9.806137085
1784244385.431198,-0.007314076,0.000735741,-0.157078952,0.000323985,0.000013382,-0.000037521,-0.007642042,-0.084194295,9.824920654
1784244385.433199,-0.007316162,0.000738397,-0.157077417,0.000060191,0.000295403,0.000232728,-0.031307381,-0.075680025,9.804327965
1784244385.435219,-0.007313269,0.000740961,-0.157078803,0.000067501,0.000500251,0.000177191,-0.045417279,-0.092076361,9.804209709
1784244385.437203,-0.007308405,0.000745929,-0.157077000,0.000544599,0.000806276,0.000156407,0.014277840,-0.092701100,9.784537315
1784244385.439194,-0.007310624,0.000751205,-0.157069623,0.000586888,0.001352837,0.000738294,-0.015019205,-0.027911250,9.799270630
1784244385.441197,-0.007312769,0.000749095,-0.157063603,0.000141674,0.001268383,0.001447576,-0.010671088,-0.038386311,9.815348625
1784244385.443198,-0.007306663,0.000747167,-0.157052487,0.000371149,0.000641363,0.002214736,-0.009346041,-0.039785609,9.820720673
1784244385.445198,-0.007301061,0.000747275,-0.157048330,0.000956203,0.000342848,0.002648786,-0.013003330,-0.045947470,9.811710358
1784244385.447201,-0.007295514,0.000740828,-0.157051355,0.001345237,-0.000174337,0.002006513,-0.015256060,-0.084391892,9.803391457
1784244385.449206,-0.007291504,0.000739733,-0.157050371,0.001735692,-0.000730918,0.001321170,-0.010546696,-0.065673180,9.808896065
1784244385.451204,-0.007299764,0.000737946,-0.157050774,0.001082888,-0.000821396,0.001002688,-0.016932437,-0.037333593,9.804589272
1784244385.453224,-0.007309584,0.000739090,-0.157053530,-0.000438131,-0.000640496,0.000517667,0.007263126,-0.041967854,9.782613754
1784244385.455209,-0.007309935,0.000738255,-0.157056808,-0.001165253,-0.000439605,-0.000033246,0.014559171,-0.067380361,9.814737320
1784244385.457205,-0.007311248,0.000738250,-0.157056630,-0.001117673,-0.000372697,-0.000235536,-0.016027622,-0.074471205,9.795832634
1784244385.459237,-0.007313607,0.000741965,-0.157054052,-0.001081237,-0.000074421,0.000015631,0.006049303,-0.066743672,9.803525925
1784244385.461218,-0.007314871,0.000746732,-0.157054111,-0.001051142,0.000466929,0.000182363,-0.008918703,-0.080386676,9.795802116
1784244385.463215,-0.007313539,0.000745643,-0.157049671,-0.000761256,0.000587645,0.000429089,-0.042621661,-0.083999857,9.797538757
1784244385.465218,-0.007314004,0.000743393,-0.157051638,-0.000430236,0.000027099,0.000479041,-0.037145104,-0.076046877,9.803424835
1784244385.467223,-0.007309443,0.000744383,-0.157053307,0.000030418,-0.000237081,0.000101391,0.000807621,-0.094221897,9.770615578
1784244385.469221,-0.007306831,0.000740831,-0.157052115,0.000620149,-0.000289609,0.000044082,-0.015024160,-0.063919224,9.822353363
1784244385.471230,-0.007316632,0.000744633,-0.157049760,0.000074775,-0.000139031,0.000272614,-0.024868852,-0.025586296,9.805105209
1784244385.473224,-0.007323263,0.000745213,-0.157051995,-0.001060873,0.000196055,0.000204505,-0.012283790,-0.061141949,9.804888725
1784244385.475229,-0.007319169,0.000741302,-0.157051831,-0.001026262,-0.000144221,0.000008588,0.011808209,-0.071456991,9.825917244
1784244385.477235,-0.007314970,0.000734081,-0.157049030,-0.000266275,-0.000924110,0.000207052,-0.029390229,-0.064605743,9.818748474
1784244385.479226,-0.007313575,0.000739157,-0.157050699,0.000185239,-0.000932400,0.000228226,-0.016280288,-0.094702587,9.806015015
1784244385.481236,-0.007314828,0.000744185,-0.157053977,0.000144462,-0.000103943,-0.000167479,-0.051219337,-0.089730009,9.799736977
1784244385.483234,-0.007314073,0.000738591,-0.157052740,0.000071492,-0.000113143,-0.000260659,-0.051164210,-0.085647494,9.792590141
1784244385.485247,-0.007318408,0.000739722,-0.157049373,-0.000115350,-0.000679144,0.000119428,-0.012119053,-0.083247244,9.825818062
1784244385.487244,-0.007317070,0.000739162,-0.157046020,-0.000211948,-0.000750796,0.000542692,-0.013580639,-0.056683246,9.810296059
1784244385.489241,-0.007314389,0.000737034,-0.157046393,0.000025639,-0.000804765,0.000598790,-0.013700212,-0.066948198,9.804850578
1784244385.491241,-0.007319936,0.000738657,-0.157053411,-0.000268091,-0.000690736,-0.000064252,-0.015879218,-0.061547097,9.805330276
1784244385.493245,-0.007323893,0.000740536,-0.157053202,-0.000840039,-0.000262044,-0.000509810,-0.017028654,-0.047414124,9.773140907
1784244385.495244,-0.007321802,0.000743029,-0.157052234,-0.000806211,0.000024077,-0.000292270,-0.016322285,-0.061496835,9.799055099
1784244385.497250,-0.007317568,0.000738987,-0.157051250,-0.000225527,-0.000169796,-0.000080997,0.007370932,-0.109001815,9.757975578
1784244385.499245,-0.007315162,0.000731264,-0.157051384,0.000426655,-0.000871035,-0.000002050,-0.005906513,-0.092385158,9.776449203
1784244385.501253,-0.007310908,0.000728812,-0.157051474,0.000903106,-0.001273456,-0.000016139,-0.014694412,-0.077427037,9.768018723
1784244385.503252,-0.007312439,0.000732783,-0.157054454,0.000842841,-0.000823039,-0.000221478,-0.034926798,-0.078706168,9.795338631
1784244385.505250,-0.007317580,0.000736339,-0.157054812,0.000187793,-0.000164228,-0.000388245,-0.019247595,-0.079107702,9.823596001
1784244385.507258,-0.007315103,0.000740792,-0.157061800,-0.000017171,0.000350432,-0.000779884,0.016876217,-0.061560165,9.811190605
1784244385.509263,-0.007316810,0.000738492,-0.157069370,-0.000004743,0.000528609,-0.001553427,0.004831171,-0.055584621,9.811666489
1784244385.511260,-0.007316013,0.000736876,-0.157067075,-0.000110168,0.000241787,-0.001487635,-0.005752180,-0.077793218,9.803442955
1784244385.513258,-0.007317313,0.000738998,-0.157062382,-0.000114700,0.000206962,-0.000608238,-0.018028080,-0.089850575,9.819942474
1784244385.515266,-0.007315419,0.000740708,-0.157057896,-0.000007534,0.000395506,0.000178176,-0.017789161,-0.068917230,9.837113380
1784244385.517271,-0.007316185,0.000741221,-0.157063037,0.000107131,0.000428563,0.000082630,-0.009545488,-0.057570502,9.801775932
1784244385.519267,-0.007315712,0.000745282,-0.157071874,0.000013601,0.000604083,-0.000889002,-0.013707799,-0.030228719,9.807774544
1784244385.521263,-0.007316422,0.000751900,-0.157071680,-0.000050920,0.001143676,-0.001233491,-0.019651080,-0.042776011,9.755683899
1784244385.523294,-0.007321179,0.000752986,-0.157076538,-0.000407871,0.001358453,-0.001215155,-0.007823423,-0.066272914,9.762269020
1784244385.525323,-0.007326519,0.000749587,-0.157080397,-0.001036054,0.000854576,-0.001476839,-0.027301455,-0.079229601,9.792204857
1784244385.527287,-0.007336933,0.000745703,-0.157079980,-0.001877917,0.000147451,-0.001308942,-0.021615347,-0.091812290,9.787198067
1784244385.529290,-0.007338787,0.000749634,-0.157080323,-0.002161663,0.000059307,-0.000949055,-0.012514938,-0.080798179,9.797140121
1784244385.531280,-0.007338487,0.000749868,-0.157087579,-0.001640819,0.000278448,-0.001207649,0.014706247,-0.055682492,9.807640076
1784244385.533294,-0.007334224,0.000748210,-0.157088205,-0.000885188,0.000110158,-0.001415313,-0.015425742,-0.060704622,9.812061310
1784244385.535296,-0.007329295,0.000748799,-0.157084838,-0.000046992,-0.000001970,-0.000844006,-0.005191031,-0.066374548,9.834900856
1784244385.537408,-0.007330298,0.000752232,-0.157089427,0.000206394,0.000263843,-0.000697224,0.022983851,-0.115195066,9.781711578
1784244385.539307,-0.007333719,0.000754306,-0.157096118,-0.000039322,0.000646322,-0.001275895,0.005392644,-0.083779514,9.806105614
1784244385.541297,-0.007340041,0.000758593,-0.157100201,-0.000579413,0.000982623,-0.001661599,-0.016609002,-0.046838738,9.817530632
1784244385.543322,-0.007337329,0.000760928,-0.157102898,-0.000666751,0.001168657,-0.001671646,-0.013012204,-0.083607398,9.815055847
1784244385.545305,-0.007328038,0.000762230,-0.157104284,0.000297568,0.001093999,-0.001497984,-0.017570987,-0.091816321,9.780477524
1784244385.547304,-0.007326383,0.000764569,-0.157112360,0.000928615,0.001042595,-0.001732607,-0.000882984,-0.086081542,9.763045311
1784244385.549310,-0.007326992,0.000762119,-0.157114074,0.000789412,0.000795726,-0.001923697,-0.007486510,-0.072429657,9.808407784
1784244385.551330,-0.007328107,0.000756281,-0.157111511,0.000499431,0.000055514,-0.001344253,-0.012182644,-0.055480253,9.764575958
1784244385.553305,-0.007335037,0.000753948,-0.157112420,-0.000182400,-0.000514977,-0.000868901,-0.045142524,-0.070860021,9.781481743
1784244385.555333,-0.007336548,0.000748753,-0.157115743,-0.000733169,-0.000999553,-0.000920222,-0.053527683,-0.058296908,9.794107437
1784244385.557340,-0.007334183,0.000743667,-0.157117963,-0.000503354,-0.001538803,-0.001047903,-0.028448865,-0.062243883,9.799934387
1784244385.559313,-0.007333883,0.000743183,-0.157113552,-0.000205962,-0.001504272,-0.000614827,-0.011667930,-0.048480783,9.787485123
1784244385.561329,-0.007342153,0.000741672,-0.157104596,-0.000711777,-0.001241986,0.000459013,-0.010101040,-0.065297745,9.818314552
1784244385.563339,-0.007344785,0.000743542,-0.157100961,-0.001259167,-0.000886659,0.001187770,-0.033099648,-0.074421249,9.819578171
1784244385.565317,-0.007339082,0.000743296,-0.157102883,-0.000643908,-0.000652200,0.000980013,-0.012292018,-0.061612170,9.808023453
1784244385.567327,-0.007335363,0.000740584,-0.157103553,0.000235587,-0.000790266,0.000538800,-0.000497502,-0.051833380,9.797787666
1784244385.569312,-0.007337163,0.000744354,-0.157107100,0.000248452,-0.000451431,0.000110520,0.012705897,-0.072682016,9.807529449
1784244385.571318,-0.007337359,0.000748844,-0.157108217,-0.000008014,0.000284472,-0.000235278,-0.024377059,-0.060004950,9.792778969
1784244385.573315,-0.007338412,0.000748573,-0.157106444,-0.000090749,0.000493249,-0.000127811,0.006452547,-0.070755623,9.799913406
1784244385.575324,-0.007339479,0.000746083,-0.157105759,-0.000264868,0.000177814,0.000074055,-0.029829860,-0.102523461,9.796088219
1784244385.577321,-0.007335978,0.000747882,-0.157106355,-0.000082413,0.000089677,0.000059926,-0.000255614,-0.105651081,9.804615021
1784244385.579325,-0.007338575,0.000746593,-0.157108590,0.000105998,0.000098087,-0.000148443,-0.019439444,-0.096022114,9.808244705
1784244385.581329,-0.007341512,0.000745556,-0.157099888,-0.000194315,-0.000092934,0.000329782,-0.021211931,-0.095417611,9.789417267
1784244385.583328,-0.007342597,0.000741834,-0.157101586,-0.000414932,-0.000394285,0.000713360,-0.018287186,-0.075379707,9.801653862
1784244385.585328,-0.007351374,0.000740939,-0.157108098,-0.000935150,-0.000639628,-0.000036875,0.014519968,-0.109332293,9.791604042
1784244385.587331,-0.007350777,0.000745156,-0.157108158,-0.001200060,-0.000280277,-0.000471923,-0.013351476,-0.113032915,9.795140266
1784244385.589331,-0.007345363,0.000747955,-0.157098889,-0.000307923,0.000233265,0.000279332,-0.016299725,-0.058481935,9.816109657
1784244385.591385,-0.007346951,0.000748226,-0.157091811,0.000193257,0.000336002,0.001312264,0.013911841,-0.047563177,9.801413536
1784244385.593343,-0.007350146,0.000746383,-0.157093555,-0.000184230,0.000135401,0.001321906,0.021147741,-0.080339819,9.798072815
1784244385.595342,-0.007348033,0.000743501,-0.157091767,-0.000223130,0.000006931,0.000968367,0.003911956,-0.092524730,9.841466904
1784244385.597350,-0.007352836,0.000741950,-0.157085493,-0.000361052,-0.000070797,0.001252286,-0.000741598,-0.073618129,9.774333954
1784244385.599344,-0.007357600,0.000742715,-0.157083720,-0.000913315,-0.000104551,0.001458528,-0.010075673,-0.065097414,9.790070534
1784244385.601353,-0.007360777,0.000742995,-0.157083288,-0.001204837,-0.000001906,0.001212518,-0.046856474,-0.062904097,9.799913406
1784244385.603467,-0.007354104,0.000741838,-0.157087654,-0.000640162,-0.000058957,0.000618611,-0.012845547,-0.031733539,9.828838348
1784244385.605381,-0.007343158,0.000743814,-0.157090396,0.000513559,-0.000053196,-0.000029223,-0.015755914,-0.052873682,9.782522202
1784244385.607366,-0.007341049,0.000740060,-0.157089949,0.001043952,-0.000227640,-0.000177718,-0.018701246,-0.072263665,9.805259705
1784244385.609362,-0.007340636,0.000740418,-0.157096684,0.000941483,-0.000473783,-0.000558113,-0.012741069,-0.062419668,9.796360970
1784244385.611356,-0.007341669,0.000742004,-0.157094643,0.000653521,-0.000291475,-0.000725240,0.016479755,-0.059520923,9.777130127
1784244385.613358,-0.007344086,0.000739898,-0.157086790,0.000241509,-0.000252569,0.000145015,-0.003710528,-0.095625937,9.787190437
1784244385.615366,-0.007342701,0.000735980,-0.157085285,0.000172970,-0.000550488,0.000741434,-0.012781922,-0.065984271,9.793648720
1784244385.617373,-0.007341641,0.000732760,-0.157090992,0.000359507,-0.000836421,0.000255267,-0.007488819,-0.074068882,9.786877632
1784244385.619364,-0.007343360,0.000728111,-0.157084167,0.000185621,-0.001187587,0.000260849,-0.028867373,-0.096752793,9.801954269
1784244385.621365,-0.007340636,0.000732308,-0.157081321,0.000171491,-0.000944185,0.000845533,-0.004983783,-0.088549413,9.802478790
1784244385.623412,-0.007340297,0.000737056,-0.157083243,0.000332753,-0.000081097,0.000679852,0.001558657,-0.066714786,9.807557106
1784244385.625380,-0.007345184,0.000733258,-0.157081500,-0.000079160,0.000067825,0.000483434,0.016512102,-0.055213004,9.801367760
1784244385.627427,-0.007348941,0.000729304,-0.157079503,-0.000657508,-0.000416320,0.000607379,-0.010835839,-0.053870995,9.787899971
1784244385.629413,-0.007345923,0.000725731,-0.157078803,-0.000645531,-0.000845240,0.000625728,0.007785942,-0.035714872,9.784447670
1784244385.631387,-0.007342703,0.000727010,-0.157072768,-0.000163494,-0.000804484,0.000912592,0.030666914,-0.111210279,9.774570465
1784244385.633461,-0.007343199,0.000728852,-0.157072544,0.000065484,-0.000377272,0.001087486,-0.019961268,-0.064272143,9.817862511
1784244385.635388,-0.007347226,0.000726148,-0.157073215,-0.000239803,-0.000346182,0.000761289,0.009877776,-0.047883082,9.790648460
1784244385.637398,-0.007347242,0.000722412,-0.157076746,-0.000429529,-0.000700320,0.000268885,0.000790719,-0.091518603,9.831606865
1784244385.639388,-0.007346731,0.000720376,-0.157084003,-0.000131780,-0.000870243,-0.000539938,-0.009691638,-0.068045311,9.825918198
1784244385.641389,-0.007338771,0.000715229,-0.157086805,0.000626402,-0.001090195,-0.001074677,0.000241498,-0.062821694,9.829548836
1784244385.643385,-0.007335895,0.000708816,-0.157086134,0.001191998,-0.001577876,-0.000924478,-0.017324917,-0.031615637,9.820317268
1784244385.645395,-0.007335585,0.000707084,-0.157084361,0.000882264,-0.001729255,-0.000508190,-0.014777312,-0.044138987,9.812616348
1784244385.647394,-0.007335306,0.000707065,-0.157080993,0.000480076,-0.001406755,-0.000022279,-0.007132123,-0.080879889,9.798938751
1784244385.649389,-0.007335765,0.000707021,-0.157078147,0.000350212,-0.001120021,0.000404456,0.002012245,-0.067492463,9.790066719
1784244385.651393,-0.007331500,0.000705630,-0.157077715,0.000526300,-0.001002835,0.000516678,0.005260870,-0.095356554,9.796167374
1784244385.653393,-0.007322983,0.000703666,-0.157075137,0.001250849,-0.000959782,0.000581090,-0.015688483,-0.083852328,9.791290283
1784244385.655401,-0.007315289,0.000708070,-0.157078385,0.001999940,-0.000587270,0.000377541,-0.032886416,-0.095738366,9.792541504
1784244385.657402,-0.007315495,0.000711230,-0.157082990,0.001953903,0.000035454,-0.000257124,-0.011156174,-0.080310240,9.789073944
1784244385.659407,-0.007316130,0.000710142,-0.157083094,0.001356462,0.000223867,-0.000505223,0.005599046,-0.067560710,9.793208122
1784244385.661402,-0.007320622,0.000711761,-0.157083958,0.000630185,0.000254716,-0.000434291,0.004125606,-0.041495550,9.784854889
1784244385.663407,-0.007316073,0.000711157,-0.157088831,0.000463274,0.000257277,-0.000707085,0.007557961,-0.054535594,9.785223961
1784244385.665410,-0.007313743,0.000707325,-0.157091081,0.000718835,0.000003640,-0.000996896,0.022531541,-0.077627972,9.792263985
1784244385.667409,-0.007314754,0.000710497,-0.157091707,0.000527377,0.000073157,-0.000918375,0.009194768,-0.065532237,9.816537857
1784244385.669409,-0.007315851,0.000712846,-0.157095224,0.000211420,0.000504239,-0.000949593,-0.005306229,-0.041041318,9.800990105
1784244385.671415,-0.007314757,0.000712273,-0.157104895,0.000124631,0.000568506,-0.001587260,0.002127671,-0.058475997,9.782054901
1784244385.673418,-0.007312360,0.000709836,-0.157109544,0.000328480,0.000216903,-0.002125797,0.017384527,-0.093011618,9.822645187
1784244385.675417,-0.007316142,0.000704114,-0.157111242,0.000256387,-0.000256169,-0.001978120,0.003505079,-0.091378212,9.806952477
1784244385.677424,-0.007320397,0.000703346,-0.157110557,-0.000247814,-0.000490145,-0.001509604,-0.003093681,-0.079714946,9.816883087
1784244385.679420,-0.007324340,0.000700259,-0.157105342,-0.000687786,-0.000590692,-0.000698674,0.002950104,-0.063942514,9.793229103
1784244385.681418,-0.007326522,0.000693365,-0.157108128,-0.000867585,-0.001078000,-0.000344676,-0.007359917,-0.061704032,9.812064171
1784244385.683427,-0.007324669,0.000691209,-0.157104239,-0.000654452,-0.001400155,-0.000176322,-0.037272722,-0.048785456,9.813462257
1784244385.685426,-0.007322965,0.000699837,-0.157105327,-0.000399888,-0.000790614,0.000059494,0.005454387,-0.044486362,9.761973381
1784244385.687423,-0.007323201,0.000700615,-0.157106474,-0.000356105,-0.000144947,-0.000110803,0.008116454,-0.045569409,9.783489227
1784244385.689422,-0.007320494,0.000698564,-0.157102317,-0.000185122,-0.000110280,0.000123968,0.010993257,-0.031583566,9.764750481
1784244385.691428,-0.007316472,0.000697961,-0.157110423,0.000228861,-0.000175266,-0.000174394,-0.009546760,-0.059606805,9.773070335
1784244385.693433,-0.007312723,0.000697098,-0.157116860,0.000694894,-0.000219952,-0.001113544,-0.019363957,-0.092184052,9.772401810
1784244385.695431,-0.007308673,0.000698255,-0.157113492,0.001159666,-0.000204618,-0.001021011,-0.024877092,-0.063646480,9.801723480
1784244385.697436,-0.007306260,0.000699012,-0.157107219,0.001406936,-0.000089780,-0.000086683,-0.016467802,-0.072371908,9.816469193
1784244385.699438,-0.007310817,0.000701135,-0.157103539,0.000882713,0.000073359,0.000611341,0.004579729,-0.038216498,9.827019691
1784244385.701432,-0.007312369,0.000702984,-0.157107636,0.000232105,0.000271416,0.000415838,0.000151452,-0.034047864,9.815834045
1784244385.703443,-0.007312039,0.000705602,-0.157117262,0.000086718,0.000507685,-0.000628140,-0.014093215,-0.062450122,9.803085327
1784244385.705439,-0.007312004,0.000706919,-0.157117903,0.000034284,0.000659790,-0.001154019,-0.017660752,-0.099009141,9.784017563
1784244385.707440,-0.007315988,0.000707215,-0.157111853,-0.000297500,0.000605239,-0.000473448,0.002379759,-0.073407546,9.802133560
1784244385.709440,-0.007320528,0.000701981,-0.157109320,-0.000797315,0.000152972,0.000236254,-0.001801259,-0.049455494,9.780763626
1784244385.711447,-0.007324010,0.000698818,-0.157107845,-0.001127063,-0.000408978,0.000445143,-0.018230010,-0.109681323,9.773637772
1784244385.713445,-0.007325911,0.000693515,-0.157108471,-0.001186552,-0.000872971,0.000380677,-0.005316710,-0.078713953,9.806127548
1784244385.715447,-0.007320902,0.000693219,-0.157106981,-0.000613243,-0.001037641,0.000335661,-0.019527825,-0.068045639,9.780626297
1784244385.717454,-0.007315837,0.000691017,-0.157112122,0.000277547,-0.000944832,-0.000002077,-0.010492725,-0.062410258,9.790983200
1784244385.719454,-0.007319211,0.000688477,-0.157110125,0.000274171,-0.000996404,-0.000213713,-0.003907480,-0.073775031,9.802125931
1784244385.721452,-0.007319734,0.000689003,-0.157101661,-0.000108219,-0.000855529,0.000553146,0.025112070,-0.085433602,9.814184189
1784244385.723484,-0.007317037,0.000690548,-0.157099903,0.000068165,-0.000487710,0.001095943,-0.026126992,-0.056385547,9.791007996
1784244385.725510,-0.007320040,0.000694207,-0.157105029,-0.000052482,-0.000049434,0.000571276,-0.010062839,-0.064185597,9.787835121
1784244385.727473,-0.007323244,0.000691302,-0.157108068,-0.000540650,-0.000029832,-0.000138177,-0.004256406,-0.065686896,9.799487114
1784244385.729469,-0.007320635,0.000687665,-0.157103390,-0.000468851,-0.000474236,0.000011035,-0.002714718,-0.050381251,9.786584854
1784244385.731467,-0.007327249,0.000691172,-0.157096520,-0.000648505,-0.000367594,0.000789680,-0.007306980,-0.058044024,9.801327705
1784244385.733464,-0.007337104,0.000689668,-0.157096401,-0.001590653,-0.000135282,0.001049607,-0.013737500,-0.069674119,9.810212135
1784244385.735465,-0.007334966,0.000688458,-0.157099694,-0.001682629,-0.000328232,0.000551919,0.014471755,-0.076580852,9.785537720
1784244385.737466,-0.007336853,0.000686083,-0.157091290,-0.001209184,-0.000532051,0.000749470,0.024116620,-0.057521932,9.797325134
1784244385.739468,-0.007335783,0.000682145,-0.157084003,-0.000992186,-0.000647581,0.001615437,0.027387522,-0.046404485,9.803227425
1784244385.741466,-0.007335487,0.000682649,-0.157087296,-0.000685416,-0.000530487,0.001453363,0.009370673,-0.051175222,9.813492775
1784244385.743523,-0.007341871,0.000681904,-0.157086313,-0.000912488,-0.000401673,0.000901577,0.014967367,-0.070137464,9.823687553
1784244385.745493,-0.007345427,0.000683072,-0.157086402,-0.001348058,-0.000162256,0.000716610,0.012810734,-0.064964920,9.793231010
1784244385.747510,-0.007342204,0.000684081,-0.157084882,-0.001013234,0.000130899,0.000619665,-0.022686567,-0.066525169,9.824571609
1784244385.749493,-0.007341505,0.000681224,-0.157083675,-0.000503413,-0.000126941,0.000637097,-0.011516375,-0.072311141,9.798990250
1784244385.751487,-0.007335660,0.000678224,-0.157084033,0.000046159,-0.000585907,0.000522205,-0.025815241,-0.068819746,9.774787903
1784244385.753486,-0.007328984,0.000678669,-0.157079071,0.000883323,-0.000602533,0.000693698,-0.033209212,-0.049043510,9.779392242
1784244385.755501,-0.007326688,0.000679801,-0.157071695,0.001149981,-0.000470159,0.001342390,-0.028588342,-0.038318135,9.774980545
1784244385.757491,-0.007333617,0.000678803,-0.157065153,0.000420763,-0.000472428,0.001921249,-0.035183199,-0.062592886,9.798132896
1784244385.759489,-0.007330690,0.000676890,-0.157065004,0.000033588,-0.000634638,0.001854878,0.018356504,-0.052818142,9.776278496
1784244385.761493,-0.007323981,0.000680249,-0.157062382,0.000677546,-0.000455144,0.001538880,-0.001439102,-0.056628622,9.780717850
1784244385.763504,-0.007324726,0.000684221,-0.157057688,0.000898078,0.000162393,0.001617876,-0.021801764,-0.033098795,9.784884453
1784244385.765498,-0.007316964,0.000686234,-0.157053232,0.001002633,0.000468099,0.001800894,-0.012216063,-0.055744164,9.801785469
1784244385.767491,-0.007313710,0.000689892,-0.157053053,0.001350533,0.000671755,0.001627666,0.000124452,-0.074687712,9.797192574
1784244385.769498,-0.007314396,0.000694471,-0.157058448,0.001191900,0.001026646,0.000834050,0.020662615,-0.083863705,9.790428162
1784244385.771497,-0.007313547,0.000696559,-0.157062992,0.000913236,0.001180937,-0.000069863,0.008681964,-0.070895657,9.815606117
1784244385.773494,-0.007315170,0.000693113,-0.157059655,0.000612750,0.000768757,-0.000135723,0.017334880,-0.059866279,9.824204445
1784244385.775505,-0.007316969,0.000685171,-0.157058463,0.000169509,-0.000125502,0.000209774,0.028621893,-0.053382803,9.837258339
1784244385.777499,-0.007320676,0.000684921,-0.157063052,-0.000294381,-0.000556129,-0.000079084,0.023052637,-0.069767550,9.820110321
1784244385.779501,-0.007324984,0.000689153,-0.157070324,-0.000766987,-0.000072878,-0.000862945,0.002443393,-0.070068322,9.773461342
1784244385.781506,-0.007330528,0.000691844,-0.157071188,-0.001236294,0.000476955,-0.001180352,-0.005572018,-0.063807845,9.789634705
1784244385.783504,-0.007330566,0.000687589,-0.157065168,-0.001279825,0.000238779,-0.000512073,-0.007751606,-0.058816556,9.784732819
1784244385.785509,-0.007327677,0.000682632,-0.157061040,-0.000811988,-0.000482195,0.000315489,-0.010165207,-0.072693676,9.787331581
1784244385.787508,-0.007331123,0.000682651,-0.157060325,-0.000702217,-0.000714724,0.000558587,-0.003200882,-0.088261180,9.821760178
1784244385.789510,-0.007336967,0.000687385,-0.157066524,-0.001101096,-0.000172671,0.000034864,-0.002224768,-0.084409177,9.782332420
1784244385.791517,-0.007339912,0.000684215,-0.157066077,-0.001357813,0.000005964,-0.000365866,0.000431715,-0.086346805,9.798014641
1784244385.793513,-0.007347650,0.000681896,-0.157062992,-0.001714520,-0.000369925,-0.000029069,0.013390405,-0.053399999,9.804066658
1784244385.795547,-0.007349630,0.000682712,-0.157063067,-0.001970782,-0.000319588,0.000181992,0.019584367,-0.061874103,9.787428856
1784244385.797523,-0.007351720,0.000684837,-0.157063141,-0.001773964,0.000020262,0.000121425,-0.005449278,-0.052707389,9.803605080
1784244385.799521,-0.007355155,0.000690323,-0.157070398,-0.001698611,0.000559548,-0.000408580,0.027283199,-0.055738539,9.792856216
1784244385.801523,-0.007354345,0.000689765,-0.157069951,-0.001446880,0.000770076,-0.000759282,-0.010799584,-0.050747983,9.789713860
1784244385.803528,-0.007354154,0.000681795,-0.157065019,-0.000986361,-0.000020595,-0.000189201,0.002026928,-0.064134523,9.821920395
1784244385.805535,-0.007349865,0.000678519,-0.157063544,-0.000453934,-0.000761149,0.000297701,0.000938775,-0.044654626,9.793798447
1784244385.807527,-0.007342903,0.000679212,-0.157069474,0.000394131,-0.000707086,-0.000083683,0.008797281,-0.060259059,9.831814766
1784244385.809535,-0.007343141,0.000675179,-0.157075688,0.000777969,-0.000679968,-0.000885459,-0.005618808,-0.103793435,9.805069923
1784244385.811526,-0.007347607,0.000679452,-0.157074168,0.000281499,-0.000420955,-0.000963994,-0.000483646,-0.088908613,9.781856537
1784244385.813529,-0.007352084,0.000682397,-0.157074511,-0.000402074,0.000182750,-0.000622266,0.005858783,-0.082431845,9.804768562
1784244385.815536,-0.007357059,0.000676467,-0.157074362,-0.000906461,0.000011193,-0.000466996,-0.017542733,-0.089566983,9.779146194
1784244385.817572,-0.007358098,0.000677254,-0.157074451,-0.001040473,-0.000260407,-0.000336277,-0.004282482,-0.105103686,9.797890663
1784244385.819539,-0.007361330,0.000680207,-0.157079294,-0.000914670,0.000063407,-0.000580773,0.000046993,-0.082188584,9.781004906
1784244385.821541,-0.007361007,0.000683096,-0.157082826,-0.000730504,0.000443736,-0.000992607,-0.005834118,-0.084518991,9.804296494
1784244385.823582,-0.007359661,0.000683867,-0.157075450,-0.000419105,0.000569806,-0.000462801,-0.003841082,-0.069603465,9.782425880
1784244385.825552,-0.007351100,0.000682677,-0.157067016,0.000327364,0.000399074,0.000734852,-0.021791989,-0.069395758,9.785549164
1784244385.827598,-0.007342591,0.000680451,-0.157061517,0.001357461,0.000072238,0.001480611,0.012091989,-0.087354049,9.792639732
1784244385.829575,-0.007351178,0.000674531,-0.157059014,0.001057499,-0.000404088,0.001623753,0.034423646,-0.060189310,9.775798798
1784244385.831555,-0.007358424,0.000668762,-0.157053828,-0.000230386,-0.000991434,0.001706941,0.000684901,-0.064895540,9.805325508
1784244385.833555,-0.007354935,0.000670836,-0.157045618,-0.000423382,-0.000979689,0.002150263,-0.020625109,-0.044585340,9.822920799
1784244385.835552,-0.007353098,0.000675344,-0.157038227,-0.000014732,-0.000311970,0.002622179,-0.027149590,-0.029093545,9.798354149
1784244385.837559,-0.007355174,0.000678259,-0.157041773,-0.000094205,0.000237390,0.002171436,0.005415610,-0.080761433,9.822713852
1784244385.839560,-0.007358846,0.000685583,-0.157040209,-0.000419412,0.000912899,0.001447044,0.020345220,-0.074310862,9.770762444
1784244385.841563,-0.007358479,0.000692717,-0.157042131,-0.000490749,0.001690537,0.001029496,0.008174004,-0.038630959,9.815813065
1784244385.843556,-0.007357348,0.000696126,-0.157047495,-0.000255632,0.001950835,0.000254721,-0.002904529,-0.026852962,9.817670822
1784244385.845558,-0.007350274,0.000700597,-0.157043055,0.000237890,0.001936337,0.000122923,0.011825994,-0.034537196,9.800598145
1784244385.847558,-0.007350506,0.000703241,-0.157035917,0.000504394,0.001867578,0.000874873,0.005560552,-0.070296161,9.799915314
1784244385.849560,-0.007351393,0.000703230,-0.157042414,0.000281766,0.001574531,0.000680520,-0.023095697,-0.102581076,9.792058945
1784244385.851567,-0.007351642,0.000702412,-0.157047018,0.000118960,0.001131937,-0.000256621,-0.031066163,-0.090697430,9.836511612
1784244385.853567,-0.007352730,0.000698960,-0.157044485,-0.000004043,0.000535808,-0.000327089,0.003775928,-0.068976983,9.806648254
1784244385.855569,-0.007357083,0.000695773,-0.157047018,-0.000385216,-0.000076200,-0.000235463,-0.004151045,-0.056749925,9.802682877
1784244385.857575,-0.007359929,0.000700547,-0.157055303,-0.000781627,0.000041753,-0.000905886,-0.007211416,-0.087990046,9.790822029
1784244385.859568,-0.007355394,0.000708841,-0.157050312,-0.000357759,0.000926860,-0.000883246,-0.016601026,-0.086391881,9.771993637
1784244385.861576,-0.007358566,0.000710722,-0.157042131,-0.000071893,0.001367045,0.000251282,0.017865792,-0.091949731,9.798443794
1784244385.863575,-0.007360674,0.000709921,-0.157049939,-0.000410760,0.001068955,0.000206971,0.009885816,-0.085409455,9.775164604
1784244385.865581,-0.007358452,0.000709085,-0.157056674,-0.000258420,0.000763697,-0.000836068,-0.019315843,-0.085725367,9.809208870
1784244385.867581,-0.007356281,0.000712767,-0.157046378,0.000142189,0.000836657,-0.000366282,-0.039695259,-0.064759314,9.795872688
1784244385.869577,-0.007354540,0.000714442,-0.157041937,0.000323924,0.000904345,0.000734035,-0.006937400,-0.064753287,9.799041748
1784244385.871582,-0.007356127,0.000713376,-0.157044411,0.000201781,0.000637727,0.000666952,-0.024220135,-0.044987306,9.822915077
1784244385.873586,-0.007352918,0.000712523,-0.157046646,0.000257351,0.000336712,0.000166423,0.004580858,-0.077823699,9.789106369
1784244385.875588,-0.007355696,0.000711655,-0.157052055,0.000226774,0.000191406,-0.000396478,-0.018703261,-0.072279565,9.807500839
1784244385.877589,-0.007357500,0.000716167,-0.157048419,-0.000136065,0.000446773,-0.000407935,-0.017433448,-0.041388113,9.808597565
1784244385.879587,-0.007355259,0.000726314,-0.157040730,-0.000160467,0.001272766,0.000472205,0.000935151,-0.044683237,9.797833443
1784244385.881592,-0.007351721,0.000732094,-0.157037318,0.000184361,0.001960690,0.001096382,-0.026331710,-0.070564866,9.832162857
1784244385.883591,-0.007352510,0.000730486,-0.157042503,0.000320985,0.001712419,0.000680244,-0.024699116,-0.084836766,9.819967270
1784244385.885592,-0.007361326,0.000729736,-0.157048702,-0.000343103,0.001003798,-0.000276927,-0.024096947,-0.072283700,9.817807198
1784244385.887594,-0.007365812,0.000731618,-0.157050654,-0.001077981,0.000722945,-0.000756682,-0.022236373,-0.067734882,9.804837227
1784244385.889596,-0.007366444,0.000739066,-0.157056078,-0.001227753,0.001071832,-0.001048326,-0.004332882,-0.072774783,9.788233757
1784244385.891628,-0.007367790,0.000735611,-0.157058537,-0.001123720,0.000963932,-0.001298568,-0.007506774,-0.076642178,9.770720482
1784244385.893599,-0.007369656,0.000733220,-0.157062382,-0.001036353,0.000308565,-0.001375751,-0.008582273,-0.091410220,9.770176888
1784244385.895604,-0.007371365,0.000732139,-0.157059029,-0.000899201,0.000025900,-0.001033637,-0.012850523,-0.073415197,9.767598152
1784244385.897604,-0.007375076,0.000733229,-0.157051951,-0.000925089,0.000050790,-0.000043199,0.030436879,-0.056893729,9.760572433
1784244385.899601,-0.007380534,0.000730804,-0.157055020,-0.001359119,0.000040056,0.000244260,0.027807733,-0.051092971,9.768676758
1784244385.901617,-0.007385870,0.000727654,-0.157059386,-0.001785034,-0.000249809,-0.000324303,-0.030280387,-0.064537004,9.810678482
1784244385.903609,-0.007383731,0.000726817,-0.157058701,-0.001517183,-0.000450756,-0.000484794,-0.017900223,-0.079925485,9.810143471
1784244385.905613,-0.007383851,0.000731190,-0.157061175,-0.000938015,-0.000170079,-0.000472357,0.033487573,-0.098073028,9.812315941
1784244385.907614,-0.007387497,0.000737310,-0.157060429,-0.000908775,0.000506605,-0.000461291,-0.002528582,-0.107881211,9.807288170
1784244385.909613,-0.007386213,0.000738042,-0.157065332,-0.000799026,0.000783615,-0.000616758,-0.024863517,-0.064755067,9.768538475
1784244385.911619,-0.007381672,0.000737175,-0.157067522,-0.000163206,0.000512659,-0.000930334,-0.011477760,-0.068358988,9.810223579
1784244385.913621,-0.007383486,0.000739558,-0.157070771,0.000066444,0.000479116,-0.001049919,0.001255648,-0.055427343,9.795971870
1784244385.915626,-0.007384635,0.000733454,-0.157073826,-0.000131419,0.000116966,-0.001193652,0.003979750,-0.050347030,9.832771301
1784244385.917624,-0.007382810,0.000727844,-0.157075018,-0.000028644,-0.000690381,-0.001156582,-0.001362504,-0.048324037,9.809912682
1784244385.919656,-0.007377692,0.000731111,-0.157075062,0.000377804,-0.000671345,-0.000927097,-0.019844808,-0.055652782,9.802675247
1784244385.921643,-0.007376644,0.000728967,-0.157068551,0.000620936,-0.000426126,-0.000235212,-0.022314928,-0.076865442,9.765773773
1784244385.923632,-0.007383285,0.000729020,-0.157068387,0.000072498,-0.000455764,0.000284557,-0.000710931,-0.071349703,9.770313263
1784244385.925636,-0.007386606,0.000729851,-0.157070592,-0.000594256,-0.000236833,0.000068409,-0.003882852,-0.071554288,9.804830551
1784244385.927634,-0.007380769,0.000725523,-0.157073334,-0.000232892,-0.000373247,-0.000287925,-0.007338175,-0.061532333,9.787855148
1784244385.929642,-0.007380931,0.000720790,-0.157073215,0.000169923,-0.000907104,-0.000387243,-0.012750904,-0.062902614,9.801289558
1784244385.931637,-0.007381396,0.000724213,-0.157080710,0.000035901,-0.000767436,-0.000782262,-0.000203470,-0.064407475,9.801292419
1784244385.933636,-0.007382904,0.000731107,-0.157079190,-0.000107416,0.000144214,-0.000975331,0.003709747,-0.076388821,9.777906418
1784244385.935643,-0.007385257,0.000735172,-0.157070994,-0.000321883,0.000892994,-0.000050625,-0.014087872,-0.098782063,9.808680534
1784244385.937640,-0.007384984,0.000734624,-0.157067358,-0.000357371,0.000932307,0.000764799,-0.000416779,-0.082707100,9.791759491
1784244385.939643,-0.007382914,0.000736755,-0.157058418,-0.000077370,0.000831321,0.001412746,-0.003603667,-0.050302982,9.777170181
1784244385.941640,-0.007383431,0.000735941,-0.157062456,0.000073434,0.000743538,0.001361103,-0.000673233,-0.065783761,9.806664467
1784244385.943649,-0.007386367,0.000734100,-0.157059923,-0.000180761,0.000362186,0.000887891,-0.014545436,-0.064093128,9.782899857
1784244385.945643,-0.007389463,0.000743025,-0.157060474,-0.000522979,0.000660604,0.000780795,-0.029714648,-0.055513579,9.800872803
1784244385.947655,-0.007393154,0.000744634,-0.157062426,-0.000823247,0.001114419,0.000397133,0.011821606,-0.072972208,9.786902428
1784244385.949708,-0.007398546,0.000742154,-0.157058299,-0.001248467,0.000815280,0.000438735,0.009731225,-0.023607938,9.779594421
1784244385.951664,-0.007398505,0.000744523,-0.157056764,-0.001305103,0.000647190,0.000704394,-0.011574251,-0.039636031,9.803681374
1784244385.953667,-0.007398431,0.000749004,-0.157061622,-0.000942657,0.000938130,0.000287108,-0.007390653,-0.065999217,9.786032677
1784244385.955672,-0.007398740,0.000748316,-0.157063037,-0.000735108,0.000899914,-0.000216934,0.006030485,-0.068513252,9.800374985
1784244385.957661,-0.007396914,0.000743238,-0.157062903,-0.000465198,0.000220721,-0.000244580,-0.009865592,-0.084413193,9.796672821
1784244385.959663,-0.007396993,0.000746391,-0.157061651,-0.000139137,0.000029419,-0.000082305,-0.011335758,-0.093885794,9.808266640
1784244385.961665,-0.007399375,0.000746935,-0.157056183,-0.000187650,0.000268912,0.000398604,-0.052849151,-0.037035815,9.827420235
1784244385.963665,-0.007403369,0.000745100,-0.157057613,-0.000569767,0.000106242,0.000565993,-0.015898209,-0.063723303,9.796350479
1784244385.965670,-0.007407604,0.000748862,-0.157064319,-0.001025372,0.000138735,-0.000141890,-0.010790555,-0.085024536,9.821325302
1784244385.967676,-0.007406206,0.000752266,-0.157071024,-0.000990921,0.000520653,-0.001016033,-0.020534672,-0.076192833,9.794025421
1784244385.969672,-0.007405940,0.000757859,-0.157070309,-0.000585815,0.000935673,-0.001146020,-0.010078260,-0.065523125,9.786929131
1784244385.971675,-0.007404844,0.000759691,-0.157064795,-0.000311945,0.001125154,-0.000410994,-0.013389432,-0.042205408,9.790213585
1784244385.973674,-0.007405898,0.000760491,-0.157055303,-0.000225267,0.000990766,0.000718478,-0.025087288,-0.045547411,9.777179718
1784244385.975682,-0.007407502,0.000768360,-0.157049492,-0.000447925,0.001219823,0.001560705,-0.034158457,-0.051062334,9.813002586
1784244385.977675,-0.007409571,0.000772073,-0.157051161,-0.000678479,0.001590065,0.001417108,-0.008324482,-0.069517359,9.778388023
1784244385.979683,-0.007409925,0.000773744,-0.157045409,-0.000687620,0.001498086,0.001310736,-0.040765624,-0.043112740,9.778077126
1784244385.981685,-0.007417095,0.000775136,-0.157038867,-0.001040886,0.001269394,0.001791399,-0.026909299,-0.045334000,9.813494682
1784244385.983684,-0.007426713,0.000770712,-0.157039508,-0.001898101,0.000715936,0.001705206,0.008976062,-0.046689864,9.813520432
1784244385.985692,-0.007428025,0.000767864,-0.157035634,-0.002272146,0.000023168,0.001460681,0.000976407,-0.075868584,9.835741997
1784244385.987690,-0.007425310,0.000772068,-0.157027707,-0.001707941,0.000099903,0.001864774,-0.011649985,-0.083497457,9.797124863
1784244385.989692,-0.007426014,0.000776913,-0.157019541,-0.001056934,0.000673422,0.002451246,-0.001474494,-0.095308475,9.801541328
1784244385.991732,-0.007426757,0.000780617,-0.157017484,-0.000817149,0.001060190,0.002480799,-0.028596295,-0.074755006,9.795371056
1784244385.993702,-0.007428370,0.000776629,-0.157023713,-0.000755032,0.000755163,0.001524082,-0.015007824,-0.064195484,9.798141479
1784244385.995733,-0.007434072,0.000773264,-0.157030746,-0.001058049,-0.000035500,0.000209642,0.011758375,-0.076308258,9.815126419
1784244385.997711,-0.007432980,0.000773495,-0.157033220,-0.001095490,-0.000327030,-0.000493312,-0.004393185,-0.077708706,9.789097786
1784244385.999719,-0.007432160,0.000773781,-0.157027736,-0.000687588,-0.000243313,-0.000154631,-0.005713630,-0.075867824,9.784626007
1784244386.001707,-0.007432981,0.000770594,-0.157023072,-0.000520697,-0.000417900,0.000577974,-0.031282343,-0.073456116,9.806585312
1784244386.003721,-0.007432142,0.000772421,-0.157023937,-0.000378437,-0.000398657,0.000679275,-0.014358188,-0.047620315,9.797351837
1784244386.005711,-0.007426277,0.000781977,-0.157020241,0.000077066,0.000367977,0.000685616,0.011124398,-0.054359384,9.817059517
1784244386.007706,-0.007427001,0.000789142,-0.157007277,0.000302061,0.001281842,0.001630740,-0.001694170,-0.039289113,9.800107956
1784244386.009709,-0.007430615,0.000786927,-0.157002032,-0.000156787,0.001233667,0.002422596,-0.038973533,-0.079531260,9.792639732
1784244386.011710,-0.007437570,0.000782743,-0.156999499,-0.000913567,0.000433478,0.002290501,-0.034453589,-0.077707887,9.780102730
1784244386.013717,-0.007443920,0.000786517,-0.156990528,-0.001569278,0.000282107,0.002449235,-0.002091155,-0.073222876,9.784197807
1784244386.015719,-0.007447565,0.000790071,-0.156984493,-0.001752600,0.000689198,0.002802894,-0.019337989,-0.051147129,9.798221588
1784244386.017714,-0.007446703,0.000793750,-0.156987742,-0.001396008,0.000985566,0.002230926,-0.024246147,-0.047624204,9.815724373
1784244386.019717,-0.007438153,0.000801251,-0.156996310,-0.000553163,0.001399259,0.000823432,-0.017704805,-0.062172383,9.833570480
1784244386.021722,-0.007433037,0.000804088,-0.157000110,0.000349613,0.001643741,-0.000237874,-0.017359570,-0.072315894,9.810192108
1784244386.023728,-0.007433299,0.000803279,-0.156997278,0.000584321,0.001335667,-0.000238178,-0.017278103,-0.067620061,9.779735565
1784244386.025724,-0.007434068,0.000804727,-0.156997889,0.000373557,0.000970032,-0.000023170,-0.009426499,-0.085305326,9.795321465
1784244386.027732,-0.007432753,0.000800709,-0.157003090,0.000327457,0.000489843,-0.000409114,-0.010417816,-0.093735136,9.785403252
1784244386.029732,-0.007432036,0.000795345,-0.157005593,0.000489345,-0.000203288,-0.000818236,-0.012971521,-0.080449410,9.811937332
1784244386.031731,-0.007433363,0.000794816,-0.157000899,0.000427413,-0.000476393,-0.000447353,-0.010120847,-0.070317149,9.768070221
1784244386.033730,-0.007433665,0.000790029,-0.156999156,0.000200418,-0.000711155,0.000111171,-0.005374075,-0.047655810,9.786151886
1784244386.035737,-0.007435988,0.000791568,-0.157002151,-0.000161192,-0.000750857,-0.000005033,-0.003126176,-0.044002667,9.835494041
1784244386.037740,-0.007439159,0.000792380,-0.157000899,-0.000619314,-0.000399476,-0.000123980,0.006077381,-0.064900950,9.796363831
1784244386.039736,-0.007436973,0.000787362,-0.156999141,-0.000559986,-0.000509713,0.000112885,-0.016743606,-0.096027993,9.804211617
1784244386.041736,-0.007434265,0.000789700,-0.156998679,-0.000117721,-0.000485995,0.000232497,-0.016017905,-0.075204954,9.772963524
1784244386.043739,-0.007426520,0.000789328,-0.157001957,0.000623844,-0.000219147,-0.000021294,-0.021923928,-0.043789450,9.776297569
1784244386.045748,-0.007422316,0.000784709,-0.156997800,0.001175496,-0.000584398,0.000043446,-0.005752111,-0.041013312,9.797849655
1784244386.047749,-0.007421787,0.000783899,-0.156989917,0.001087012,-0.000885840,0.000847809,-0.018789575,-0.079850391,9.801175117
1784244386.049747,-0.007422975,0.000778912,-0.156991109,0.000770311,-0.001100503,0.001072370,-0.064428777,-0.068929076,9.796718597
1784244386.051759,-0.007427517,0.000775223,-0.156996012,0.000196029,-0.001445856,0.000367874,-0.002930620,-0.069106586,9.773912430
1784244386.053751,-0.007428240,0.000780246,-0.156998217,-0.000214162,-0.000959121,-0.000213424,-0.000130978,-0.060998295,9.762757301
1784244386.055760,-0.007420129,0.000782804,-0.156999364,0.000286580,-0.000182729,-0.000380548,-0.027661197,-0.072037399,9.789561272
1784244386.057760,-0.007423068,0.000779630,-0.157002419,0.000500817,-0.000173156,-0.000559789,-0.021763004,-0.103919953,9.788913727
1784244386.059761,-0.007424377,0.000776383,-0.157009974,0.000128754,-0.000607810,-0.001126907,0.004130559,-0.040240698,9.797416687
1784244386.061759,-0.007415306,0.000775464,-0.157014325,0.000673252,-0.000770698,-0.001628153,0.014739788,-0.054201882,9.788371086
1784244386.063763,-0.007411229,0.000780968,-0.157015741,0.001383280,-0.000247314,-0.001574039,-0.025462974,-0.075665735,9.791781425
1784244386.065763,-0.007414901,0.000784134,-0.157012612,0.001106355,0.000373420,-0.001029094,-0.010188332,-0.073281549,9.807053566
1784244386.067763,-0.007414115,0.000781189,-0.157012969,0.000681255,0.000251609,-0.000563453,-0.000890231,-0.086138777,9.771114349
1784244386.069779,-0.007409744,0.000773776,-0.157019213,0.000872491,-0.000468628,-0.000858775,-0.039374925,-0.073073193,9.830340385
1784244386.071769,-0.007406094,0.000764968,-0.157018036,0.001206128,-0.001392056,-0.000967515,-0.011727378,-0.088971555,9.810987473
1784244386.073768,-0.007405576,0.000761759,-0.157019481,0.001161663,-0.001829665,-0.000720946,-0.015708962,-0.084824562,9.802042961
1784244386.075775,-0.007403258,0.000762222,-0.157024905,0.001100824,-0.001533412,-0.000989237,-0.007684442,-0.050991725,9.818408012
1784244386.077775,-0.007398421,0.000764272,-0.157025218,0.001349498,-0.000961214,-0.001110025,0.010766603,-0.049178049,9.782122612
1784244386.079774,-0.007396936,0.000765954,-0.157022342,0.001350465,-0.000365869,-0.000637704,0.001433915,-0.040241186,9.802346230
1784244386.081774,-0.007395299,0.000767506,-0.157024562,0.001134132,0.000034949,-0.000420514,-0.022383556,-0.043059479,9.800512314
1784244386.083780,-0.007395852,0.000763244,-0.157028928,0.000900128,-0.000155225,-0.000752500,-0.028908269,-0.061917368,9.817869186
1784244386.085785,-0.007391233,0.000757980,-0.157033563,0.000850952,-0.000816053,-0.001159532,-0.000551657,-0.093092874,9.803349495
1784244386.087791,-0.007388002,0.000759517,-0.157033384,0.001071789,-0.000906126,-0.001146581,0.002301956,-0.081721678,9.774284363
1784244386.089782,-0.007386893,0.000761063,-0.157028660,0.001128323,-0.000452515,-0.000502606,-0.014436447,-0.089880683,9.817704201
1784244386.091788,-0.007380448,0.000764158,-0.157027647,0.001387499,-0.000016752,0.000021611,-0.013516092,-0.089710928,9.792150497
1784244386.093798,-0.007375640,0.000763555,-0.157028243,0.001774487,0.000156781,0.000041975,-0.010170150,-0.071111694,9.816931725
1784244386.095796,-0.007373461,0.000760132,-0.157027856,0.001798312,-0.000181777,0.000017705,-0.010789335,-0.047425028,9.826498032
1784244386.097795,-0.007371570,0.000760888,-0.157028183,0.001617726,-0.000336394,0.000018275,-0.018519359,-0.057048891,9.807598114
1784244386.099793,-0.007371625,0.000764327,-0.157027185,0.001237848,0.000003406,0.000056920,-0.000226258,-0.067018926,9.790515900
1784244386.101799,-0.007381984,0.000765480,-0.157027274,0.000129614,0.000277801,0.000101953,-0.015672656,-0.082511634,9.791747093
1784244386.103797,-0.007387843,0.000764201,-0.157024443,-0.001006575,0.000192479,0.000259010,0.005927421,-0.078647837,9.776549339
1784244386.105805,-0.007389835,0.000764032,-0.157017112,-0.001239459,0.000066812,0.000879466,0.002449139,-0.106397077,9.778609276
1784244386.107801,-0.007388214,0.000764527,-0.157016143,-0.000901223,0.000096557,0.001206582,0.000613017,-0.074378669,9.752810478
1784244386.109804,-0.007383488,0.000764701,-0.157015964,-0.000273983,0.000117109,0.000958083,-0.040995270,-0.061136104,9.792756081
1784244386.111806,-0.007381583,0.000766782,-0.157016039,0.000202378,0.000240309,0.000705480,-0.008273844,-0.064659737,9.788282394
1784244386.113811,-0.007386162,0.000759914,-0.157018840,-0.000033922,-0.000148412,0.000319299,-0.010885204,-0.056692306,9.806712151
1784244386.115814,-0.007388940,0.000758542,-0.157016009,-0.000552583,-0.000663063,0.000234700,-0.011800041,-0.058034230,9.808048248
1784244386.117813,-0.007385462,0.000759556,-0.157007828,-0.000383975,-0.000508434,0.000917014,-0.005883026,-0.088147201,9.810549736
1784244386.119819,-0.007380691,0.000750438,-0.157007962,0.000366260,-0.000941312,0.001213459,-0.007895577,-0.106458813,9.805947304
1784244386.121815,-0.007382831,0.000746454,-0.157016337,0.000532120,-0.001587677,0.000307756,-0.026546298,-0.090900809,9.793924332
1784244386.123816,-0.007383820,0.000751747,-0.157017738,0.000175744,-0.001062891,-0.000437510,-0.012954422,-0.077072389,9.841100693
1784244386.125820,-0.007378891,0.000751292,-0.157020733,0.000459978,-0.000472678,-0.000617370,-0.015390350,-0.056777902,9.826882362
1784244386.127822,-0.007374113,0.000747772,-0.157021642,0.001058265,-0.000641128,-0.000715004,-0.015415216,-0.061432019,9.788295746
1784244386.129821,-0.007373919,0.000743002,-0.157020956,0.001020516,-0.001030272,-0.000535642,-0.031125875,-0.022878453,9.813633919
1784244386.131823,-0.007368347,0.000738407,-0.157027453,0.001047388,-0.001384018,-0.000784371,0.003096667,-0.015874568,9.775156975
1784244386.133888,-0.007362010,0.000730889,-0.157031566,0.001572017,-0.001825165,-0.001290720,0.002964600,-0.063828059,9.777090073
1784244386.135836,-0.007363623,0.000727627,-0.157031164,0.001430334,-0.001999771,-0.001190257,0.006888177,-0.074106596,9.766267776
1784244386.137839,-0.007370807,0.000727425,-0.157026723,0.000408947,-0.001634633,-0.000538129,0.008738121,-0.067210227,9.801283836
1784244386.139837,-0.007372766,0.000725199,-0.157020986,-0.000371564,-0.001316458,0.000298208,0.014161109,-0.062516980,9.824632645
1784244386.141837,-0.007370644,0.000721435,-0.157028526,-0.000307961,-0.001320496,0.000094830,-0.017946085,-0.083934881,9.806980133
1784244386.143849,-0.007371948,0.000721156,-0.157035559,-0.000168172,-0.001229136,-0.000919141,-0.035638239,-0.099011280,9.816728592
1784244386.145844,-0.007370688,0.000723266,-0.157030836,-0.000082906,-0.000843508,-0.000825674,-0.007063296,-0.073852420,9.818711281
1784244386.147842,-0.007369830,0.000727484,-0.157027707,0.000125509,-0.000262379,-0.000069711,-0.007563954,-0.042340562,9.798737526
1784244386.149842,-0.007362003,0.000738363,-0.157023221,0.000573863,0.000823851,0.000467113,-0.014055874,-0.060534269,9.785613060
1784244386.151851,-0.007360621,0.000742314,-0.157017425,0.000936014,0.001595669,0.001038650,0.000205237,-0.068781540,9.785573959
1784244386.153854,-0.007363331,0.000737027,-0.157011956,0.000591155,0.001066099,0.001520165,0.007722080,-0.038650651,9.819398880
1784244386.155854,-0.007362455,0.000732897,-0.157011285,0.000227015,0.000197655,0.001525092,-0.008617414,-0.055313576,9.797756195
1784244386.157853,-0.007370151,0.000733221,-0.157015130,-0.000376151,-0.000049497,0.000898478,0.010855910,-0.041178342,9.791140556
1784244386.159853,-0.007373859,0.000736040,-0.157014623,-0.001099708,0.000241609,0.000426118,0.030804055,-0.060785241,9.803138733
1784244386.161864,-0.007376219,0.000738171,-0.157011792,-0.001264945,0.000573001,0.000534544,-0.010371661,-0.053349290,9.776695251
1784244386.163862,-0.007377034,0.000734977,-0.157012433,-0.001137103,0.000344205,0.000539098,-0.042415373,-0.066160902,9.808862686
1784244386.165864,-0.007376370,0.000738699,-0.157018110,-0.000897947,0.000179497,-0.000034999,-0.017982109,-0.087461337,9.798886299
1784244386.167869,-0.007374475,0.000739185,-0.157021910,-0.000539681,0.000310842,-0.000668152,0.028736677,-0.081556037,9.829455376
1784244386.169870,-0.007375539,0.000734609,-0.157015383,-0.000283999,0.000095504,-0.000300755,-0.004208248,-0.097628236,9.817663193
1784244386.171865,-0.007375736,0.000738564,-0.157019451,-0.000239795,0.000174263,-0.000050075,-0.006671338,-0.080790259,9.785490036
1784244386.173867,-0.007372470,0.000743282,-0.157020062,0.000033875,0.000718001,-0.000351763,0.008048955,-0.051370639,9.780311584
1784244386.175871,-0.007373350,0.000746475,-0.157017231,0.000087867,0.001148796,-0.000102229,0.012784885,-0.104785167,9.785353661
1784244386.177876,-0.007374915,0.000748065,-0.157015964,-0.000200871,0.001249398,0.000204206,-0.011515005,-0.109484941,9.796957016
1784244386.179872,-0.007377768,0.000750315,-0.157013908,-0.000358990,0.001124464,0.000372264,-0.035845373,-0.043703433,9.789286613
1784244386.181877,-0.007378811,0.000751105,-0.157011345,-0.000438822,0.000978518,0.000584702,-0.032105759,-0.068402581,9.790476799
1784244386.183883,-0.007376390,0.000751055,-0.157014906,-0.000226047,0.000763607,0.000360199,-0.015980728,-0.070858888,9.791820526
1784244386.185883,-0.007371133,0.000752402,-0.157010704,0.000344132,0.000565908,0.000305391,0.009798306,-0.055399854,9.776702881
1784244386.187889,-0.007371070,0.000757160,-0.157006785,0.000599080,0.000744502,0.000772458,0.010398515,-0.078425884,9.800315857
1784244386.189887,-0.007376162,0.000754553,-0.157008216,0.000152163,0.000811754,0.000732268,-0.001127287,-0.067036048,9.794549942
1784244386.191912,-0.007368166,0.000754188,-0.157003254,0.000365090,0.000512512,0.000774112,0.012349256,-0.066681072,9.783356667
1784244386.193895,-0.007364943,0.000755732,-0.156997740,0.001027052,0.000448168,0.001275604,-0.015092300,-0.072157033,9.783742905
1784244386.195895,-0.007362945,0.000756038,-0.156997830,0.001075621,0.000354076,0.001296999,0.001291780,-0.053521030,9.779844284
1784244386.197896,-0.007356585,0.000750642,-0.157001942,0.001324450,-0.000180765,0.000660461,-0.009403580,-0.043887205,9.830556870
1784244386.199898,-0.007353785,0.000749169,-0.157001257,0.001523278,-0.000606911,0.000250730,-0.003384719,-0.066711955,9.816070557
1784244386.201895,-0.007358025,0.000749727,-0.157000273,0.000948414,-0.000515714,0.000296323,0.012007295,-0.057322193,9.791037560
1784244386.203895,-0.007361425,0.000752919,-0.157005906,0.000172596,-0.000118787,-0.000102432,0.022147918,-0.071840048,9.798128128
1784244386.205923,-0.007359755,0.000752429,-0.157007605,0.000005795,0.000185180,-0.000572723,0.016982144,-0.055050235,9.777606964
1784244386.207912,-0.007353382,0.000748360,-0.157010645,0.000547519,-0.000087619,-0.000736507,0.001490003,-0.073335640,9.793615341
1784244386.209903,-0.007351965,0.000740367,-0.157013431,0.000882443,-0.000807241,-0.000931027,-0.017790502,-0.072980314,9.778354645
1784244386.211910,-0.007353019,0.000739296,-0.157015920,0.000622268,-0.001128273,-0.001036297,-0.018305091,-0.078763083,9.773386955
1784244386.213909,-0.007352980,0.000740865,-0.157017365,0.000384516,-0.000786200,-0.001019594,-0.003079011,-0.079193845,9.806574821
1784244386.215910,-0.007352974,0.000738611,-0.157017216,0.000263950,-0.000646673,-0.000827436,0.010140842,-0.099102050,9.810046196
1784244386.217909,-0.007357272,0.000733599,-0.157017335,-0.000118240,-0.000992389,-0.000600151,-0.011937805,-0.070469029,9.792723656
1784244386.219913,-0.007364618,0.000731102,-0.157020360,-0.000793886,-0.001238627,-0.000651799,-0.016282015,-0.095931999,9.789866447
1784244386.221937,-0.007364896,0.000728702,-0.157018349,-0.001013296,-0.001241845,-0.000543594,-0.016431270,-0.070462413,9.799892426
1784244386.223928,-0.007365463,0.000723649,-0.157019243,-0.000795569,-0.001411136,-0.000320683,-0.041270766,-0.045578912,9.810788155
1784244386.225924,-0.007361630,0.000726580,-0.157017961,-0.000472358,-0.001373912,-0.000211295,0.010174049,-0.060844727,9.785634041
1784244386.227931,-0.007360802,0.000728146,-0.157014862,-0.000142283,-0.000899495,0.000141813,-0.000716972,-0.106150530,9.812681198
1784244386.229924,-0.007365318,0.000728599,-0.157012805,-0.000208917,-0.000514910,0.000452933,-0.024339842,-0.094058916,9.793009758
1784244386.231925,-0.007370075,0.000730489,-0.157012090,-0.000636540,-0.000211661,0.000516641,-0.020610904,-0.080847323,9.818652153
1784244386.233932,-0.007372136,0.000736601,-0.157003388,-0.000926972,0.000384241,0.001016469,0.003854015,-0.061876372,9.816108704
1784244386.235934,-0.007370898,0.000743013,-0.156993881,-0.000756611,0.001152563,0.001978768,0.007254377,-0.043657955,9.768257141
1784244386.237930,-0.007371355,0.000748570,-0.156992376,-0.000523246,0.001678090,0.002192376,-0.005108982,-0.096022040,9.845470428
1784244386.239934,-0.007372109,0.000750398,-0.156994835,-0.000373072,0.001724141,0.001533748,0.031552196,-0.072917119,9.806649208
1784244386.241940,-0.007372870,0.000751708,-0.156998366,-0.000284046,0.001472023,0.000709337,-0.000569601,-0.058076214,9.793712616
1784244386.243937,-0.007377051,0.000757570,-0.156996861,-0.000542347,0.001560170,0.000380539,0.004838234,-0.093523987,9.791247368
1784244386.245941,-0.007375665,0.000758876,-0.157000899,-0.000494425,0.001712055,0.000105774,0.007377049,-0.069337390,9.787818909
1784244386.247943,-0.007376127,0.000762031,-0.157011077,-0.000206442,0.001644851,-0.000889258,-0.006993275,-0.104405381,9.830619812
1784244386.249938,-0.007380289,0.000764541,-0.157022327,-0.000357259,0.001584772,-0.002102162,-0.012906903,-0.076697201,9.788200378
1784244386.251943,-0.007381855,0.000766936,-0.157014415,-0.000542984,0.001480298,-0.001758686,-0.011515853,-0.071091264,9.816482544
1784244386.253946,-0.007380228,0.000769297,-0.157005146,-0.000392357,0.001392584,-0.000118088,0.017354600,-0.097300433,9.795718193
1784244386.255948,-0.007383284,0.000771000,-0.156998590,-0.000299709,0.001401418,0.000987189,-0.011216763,-0.084030651,9.808329582
1784244386.257949,-0.007383280,0.000769921,-0.156997085,-0.000341968,0.001178258,0.001267416,-0.013431040,-0.081339575,9.811931610
1784244386.259957,-0.007380027,0.000766657,-0.156996921,-0.000033077,0.000564702,0.001036342,0.007783754,-0.036137395,9.780858994
1784244386.261954,-0.007381923,0.000762150,-0.156996503,0.000063031,-0.000114424,0.000794302,-0.012301964,-0.025721839,9.801528931
1784244386.263955,-0.007388313,0.000761145,-0.156992391,-0.000516903,-0.000459819,0.000888554,-0.007985907,-0.076471463,9.810622215
1784244386.265963,-0.007392395,0.000760377,-0.156990632,-0.001064007,-0.000512653,0.001048385,0.024657274,-0.049912348,9.797374725
1784244386.267960,-0.007386525,0.000760300,-0.156986460,-0.000630137,-0.000488121,0.001166493,-0.013773913,-0.035613783,9.809085846
1784244386.269958,-0.007385323,0.000763876,-0.156985462,-0.000093476,-0.000148311,0.001200523,0.006752519,-0.044071920,9.827431679
1784244386.271960,-0.007380711,0.000769639,-0.156986848,0.000212280,0.000498463,0.000848314,-0.010866215,-0.054516096,9.815693855
1784244386.273967,-0.007380974,0.000767227,-0.156994388,0.000450396,0.000595024,0.000012013,0.009018917,-0.080699317,9.807473183
1784244386.275972,-0.007386301,0.000766321,-0.157000095,-0.000084827,0.000278797,-0.000889332,-0.009661088,-0.066993587,9.803956985
1784244386.277970,-0.007390700,0.000775624,-0.157005221,-0.000755814,0.000842428,-0.001379510,-0.016292019,-0.093984716,9.831125259
1784244386.279975,-0.007391295,0.000781854,-0.157006606,-0.000806733,0.001678515,-0.001444703,0.014037200,-0.112027019,9.793379784
1784244386.281971,-0.007381966,0.000781207,-0.157003760,0.000087781,0.001608261,-0.000952946,-0.021651076,-0.093715414,9.802877426
1784244386.283977,-0.007380015,0.000787532,-0.157003284,0.000829519,0.001555335,-0.000468211,-0.023298528,-0.083208062,9.777387619
1784244386.285987,-0.007384168,0.000789651,-0.157006562,0.000468458,0.001673038,-0.000530839,-0.006217293,-0.082374819,9.755441666
1784244386.287980,-0.007390786,0.000790221,-0.157016233,-0.000375748,0.001373273,-0.001265503,0.010205468,-0.057759877,9.792827606
1784244386.289982,-0.007395082,0.000791589,-0.157022148,-0.001062236,0.001192774,-0.001981119,-0.008528519,-0.050153892,9.765061378
1784244386.291984,-0.007391869,0.000791537,-0.157020628,-0.000895614,0.001013445,-0.001743469,-0.031190109,-0.067054294,9.788244247
1784244386.293992,-0.007382514,0.000793009,-0.157019377,0.000200490,0.000833310,-0.001081671,0.001982784,-0.069751337,9.792742729
1784244386.295988,-0.007381045,0.000795955,-0.157018110,0.000910587,0.000883139,-0.000616742,0.020467101,-0.062406685,9.797739983
1784244386.297989,-0.007381803,0.000797798,-0.157019526,0.000741499,0.000945946,-0.000459507,-0.004611667,-0.094022915,9.815444946
1784244386.299992,-0.007378286,0.000799287,-0.157019585,0.000780861,0.000954503,-0.000435172,0.002869883,-0.107028857,9.803712845
1784244386.301992,-0.007371061,0.000800783,-0.157018319,0.001351287,0.000935788,-0.000236203,0.006676489,-0.089556664,9.797101974
1784244386.303995,-0.007369210,0.000797559,-0.157020271,0.001600526,0.000564739,-0.000219875,-0.016167277,-0.085705213,9.800691605
1784244386.305997,-0.007369332,0.000794235,-0.157018811,0.001326754,-0.000006754,-0.000192330,-0.024482651,-0.068538472,9.795863152
1784244386.307999,-0.007365073,0.000792582,-0.157016262,0.001290459,-0.000318727,0.000135458,-0.017238226,-0.099221565,9.813158035
1784244386.310004,-0.007369520,0.000796775,-0.157014728,0.001015781,-0.000093338,0.000376375,0.038445003,-0.059564531,9.806740761
1784244386.312004,-0.007374273,0.000798662,-0.157016173,0.000204169,0.000313098,0.000281482,0.025673902,-0.040472146,9.791159630
1784244386.314006,-0.007375853,0.000797589,-0.157023400,-0.000280682,0.000287703,-0.000384978,-0.000226838,-0.067428730,9.785133362
1784244386.316036,-0.007369670,0.000791673,-0.157024324,0.000101621,-0.000260926,-0.000836169,-0.003518801,-0.079928227,9.784601212
1784244386.318041,-0.007363029,0.000787868,-0.157025740,0.000937680,-0.000849036,-0.000767881,0.009564742,-0.075075172,9.771643639
1784244386.320027,-0.007372116,0.000787812,-0.157020524,0.000520483,-0.000782970,-0.000301818,-0.000273102,-0.071441308,9.782418251
1784244386.322078,-0.007372903,0.000788876,-0.157009691,-0.000288150,-0.000410506,0.000869092,-0.014451815,-0.092028275,9.804688454
1784244386.324116,-0.007373408,0.000789122,-0.157013506,-0.000297996,-0.000213649,0.001108832,-0.001045524,-0.060716890,9.787865639
1784244386.326053,-0.007375106,0.000786972,-0.157018423,-0.000376484,-0.000206936,0.000217549,-0.001917948,-0.057671420,9.802230835
1784244386.328044,-0.007376171,0.000786176,-0.157011852,-0.000472293,-0.000277943,0.000271794,0.003426547,-0.060081959,9.816568375
1784244386.330063,-0.007380093,0.000788909,-0.157004729,-0.000721717,-0.000044727,0.001124945,0.003979051,-0.051973537,9.809447289
1784244386.332051,-0.007380820,0.000793936,-0.157003731,-0.000880139,0.000523224,0.001369623,-0.011231767,-0.047775030,9.813493729
1784244386.334065,-0.007379191,0.000794425,-0.157008067,-0.000579806,0.000757254,0.000771300,0.013251439,-0.065844342,9.790087700
1784244386.336062,-0.007378098,0.000794659,-0.157009736,-0.000218872,0.000657328,0.000153629,0.033378534,-0.071475409,9.789623260
1784244386.338041,-0.007373243,0.000798564,-0.157009795,0.000262856,0.000814393,-0.000005880,0.002409450,-0.071552113,9.793179512
1784244386.340052,-0.007364333,0.000800103,-0.157011479,0.001120401,0.000959349,-0.000121106,0.002794169,-0.075710341,9.810190201
1784244386.342042,-0.007358469,0.000799496,-0.157006785,0.001813335,0.000756234,0.000118274,-0.040610202,-0.064481087,9.821428299
1784244386.344045,-0.007357093,0.000801582,-0.157007918,0.001812212,0.000649499,0.000328189,-0.016561540,-0.080406591,9.812382698
1784244386.346049,-0.007360059,0.000804484,-0.157009035,0.001199017,0.000706777,0.000083750,-0.012338968,-0.064414412,9.824146271
1784244386.348052,-0.007361642,0.000804217,-0.157008365,0.000551380,0.000587903,0.000030827,-0.006626741,-0.075980328,9.802109718
1784244386.350054,-0.007357716,0.000806333,-0.157004163,0.000585520,0.000547633,0.000354371,-0.011510506,-0.072670072,9.786432266
1784244386.352096,-0.007354751,0.000808141,-0.157001317,0.000918952,0.000658077,0.000735754,-0.011633249,-0.083770528,9.772465706
1784244386.354066,-0.007358432,0.000811081,-0.156999528,0.000620449,0.000799366,0.000850599,-0.004020667,-0.083179027,9.801616669
1784244386.356075,-0.007362512,0.000810039,-0.156997249,-0.000014500,0.000745024,0.000896620,-0.011751710,-0.054815836,9.796410561
1784244386.358069,-0.007363598,0.000806585,-0.156996518,-0.000300766,0.000271997,0.000855803,-0.004154791,-0.057995245,9.788776398
1784244386.360075,-0.007365329,0.000806924,-0.156996891,-0.000418086,-0.000036476,0.000645897,-0.011089311,-0.074108742,9.798977852
1784244386.362069,-0.007370627,0.000808826,-0.156990871,-0.000789792,0.000099661,0.000855574,0.003408415,-0.063061886,9.794579506
1784244386.364071,-0.007373250,0.000811760,-0.156984001,-0.001113842,0.000394413,0.001496725,-0.010280523,-0.083330274,9.771122932
1784244386.366067,-0.007372675,0.000813018,-0.156980082,-0.000897968,0.000569150,0.001819878,0.013191537,-0.070775092,9.790503502
1784244386.368073,-0.007373433,0.000814861,-0.156982318,-0.000613455,0.000626839,0.001441345,0.042142343,-0.049844407,9.819360733
1784244386.370066,-0.007375873,0.000814146,-0.156981602,-0.000712627,0.000709494,0.000948705,0.039727464,-0.065757848,9.793251991
1784244386.372072,-0.007382311,0.000808629,-0.156979859,-0.001170648,0.000268228,0.000857192,0.008913571,-0.052046318,9.810793877
1784244386.374081,-0.007377012,0.000804311,-0.156979159,-0.000930257,-0.000473401,0.000789097,-0.014219633,-0.072769128,9.805260658
1784244386.376097,-0.007369030,0.000799818,-0.156978190,0.000222254,-0.000933880,0.000687333,-0.009019863,-0.088885233,9.793954849
1784244386.378081,-0.007369367,0.000792116,-0.156975120,0.000679255,-0.001500195,0.000773771,-0.008300593,-0.065276220,9.812039375
1784244386.380079,-0.007371201,0.000794635,-0.156977341,0.000294398,-0.001453702,0.000621535,-0.002255992,-0.046660602,9.829649925
1784244386.382085,-0.007371972,0.000795152,-0.156979561,-0.000015214,-0.000859328,0.000152673,-0.014506458,-0.021737758,9.812314034
1784244386.384092,-0.007372826,0.000787711,-0.156984210,-0.000121028,-0.001092598,-0.000354876,0.005898431,-0.044123650,9.773184776
1784244386.386095,-0.007370046,0.000788935,-0.156987488,-0.000052525,-0.001191663,-0.000796201,0.020536665,-0.057399631,9.786561966
1784244386.388093,-0.007376113,0.000792693,-0.156987816,-0.000356714,-0.000505818,-0.000825212,-0.007140578,-0.080946676,9.808353424
1784244386.390093,-0.007383443,0.000793339,-0.156989247,-0.001067344,-0.000055686,-0.000721037,-0.008218036,-0.096540675,9.797940254
1784244386.392096,-0.007386632,0.000792828,-0.156985879,-0.001389886,-0.000019411,-0.000393735,-0.047663663,-0.056506667,9.783812523
1784244386.394099,-0.007385293,0.000792001,-0.156984121,-0.001138402,-0.000107554,0.000061456,-0.009504523,-0.055626031,9.780267715
1784244386.396099,-0.007377927,0.000789391,-0.156979144,-0.000324047,-0.000305228,0.000501629,-0.013472124,-0.049747616,9.779853821
1784244386.398103,-0.007368328,0.000789541,-0.156973079,0.000829746,-0.000385051,0.001112367,-0.017905928,-0.081996761,9.786367416
1784244386.400100,-0.007363301,0.000792977,-0.156968102,0.001692640,-0.000047459,0.001559524,0.008606575,-0.079190709,9.785065651
1784244386.402098,-0.007363319,0.000790044,-0.156965017,0.001668531,-0.000009262,0.001684509,-0.003246503,-0.055084046,9.818833351
1784244386.404102,-0.007362823,0.000784982,-0.156964570,0.001247723,-0.000551180,0.001464863,-0.024712915,-0.048571609,9.823786736
1784244386.406108,-0.007361474,0.000790502,-0.156963304,0.000946931,-0.000441271,0.001181312,-0.022534026,-0.055189405,9.805364609
1784244386.408106,-0.007360291,0.000799752,-0.156962827,0.000774494,0.000610249,0.000980234,-0.042257529,-0.052757047,9.813879013
1784244386.410108,-0.007351620,0.000802551,-0.156960458,0.001188352,0.001118024,0.000905377,-0.007229592,-0.087323047,9.823107719
1784244386.412112,-0.007351613,0.000801471,-0.156960562,0.001410010,0.000787047,0.000810709,0.019398045,-0.077123865,9.790020943
1784244386.414114,-0.007355840,0.000802287,-0.156965166,0.000740966,0.000557765,0.000271143,0.015759975,-0.081512965,9.783712387
1784244386.416124,-0.007355446,0.000800258,-0.156968728,0.000272413,0.000409971,-0.000356461,-0.013493247,-0.087909549,9.790819168
1784244386.418113,-0.007356711,0.000804226,-0.156972259,0.000132115,0.000515684,-0.000739949,-0.022607230,-0.063061923,9.778414726
1784244386.420120,-0.007355487,0.000806281,-0.156980842,0.000068843,0.000774370,-0.001361225,-0.001779864,-0.084850162,9.780536652
1784244386.422119,-0.007357318,0.000808141,-0.156978264,-0.000015966,0.000816699,-0.001399503,0.003503479,-0.053800970,9.815262794
1784244386.424122,-0.007364235,0.000807669,-0.156975150,-0.000605715,0.000686364,-0.000634845,-0.003615920,-0.050804999,9.784788132
1784244386.426126,-0.007370810,0.000805558,-0.156982467,-0.001415738,0.000383623,-0.000747479,0.007771207,-0.073015861,9.800349236
1784244386.428133,-0.007373699,0.000807158,-0.156984672,-0.001732214,0.000306336,-0.001189335,0.020648120,-0.083978169,9.806567192
1784244386.430136,-0.007372264,0.000806562,-0.156976521,-0.001349220,0.000362992,-0.000462613,-0.003739804,-0.059888225,9.802215576
1784244386.432131,-0.007367211,0.000804902,-0.156972364,-0.000531214,0.000179807,0.000499645,-0.009685366,-0.068401061,9.812913895
1784244386.434129,-0.007369086,0.000802251,-0.156972498,-0.000171331,-0.000163656,0.000639489,-0.008129061,-0.051764254,9.801814079
1784244386.436140,-0.007376300,0.000801146,-0.156972870,-0.000740460,-0.000439018,0.000433022,-0.000867016,-0.043097332,9.830121994
1784244386.438139,-0.007372292,0.000801356,-0.156967387,-0.000756087,-0.000448251,0.000663401,0.012072953,-0.051130231,9.802286148
1784244386.440141,-0.007369917,0.000804678,-0.156962097,-0.000203829,-0.000085396,0.001213273,-0.011637831,-0.043785326,9.820244789
1784244386.442139,-0.007369316,0.000808624,-0.156966448,-0.000032210,0.000437511,0.000947005,-0.010783684,-0.009790547,9.826739311
1784244386.444145,-0.007369008,0.000810187,-0.156970486,0.000038730,0.000696906,0.000120456,0.004136773,-0.039786376,9.796524048
1784244386.446146,-0.007366526,0.000811259,-0.156977490,0.000071401,0.000761190,-0.000662919,0.008213235,-0.072669044,9.813800812
1784244386.448147,-0.007359056,0.000809291,-0.156986892,0.000581677,0.000570998,-0.001595184,-0.000169701,-0.063330308,9.775744438
1784244386.450155,-0.007357471,0.000808522,-0.156988338,0.001023059,0.000267377,-0.001896050,0.001139860,-0.102847010,9.785804749
1784244386.452161,-0.007359076,0.000806400,-0.156987116,0.000727973,0.000030415,-0.001394223,-0.004565869,-0.092040285,9.788558006
1784244386.454157,-0.007359359,0.000803737,-0.156982973,0.000401862,-0.000305328,-0.000650645,-0.023500554,-0.098581836,9.797464371
1784244386.456164,-0.007369906,0.000804505,-0.156981498,-0.000322722,-0.000436777,-0.000091047,-0.013595847,-0.096014187,9.796594620
1784244386.458153,-0.007373611,0.000804523,-0.156984240,-0.001082527,-0.000347166,-0.000152069,-0.014299963,-0.079482183,9.804320335
1784244386.460158,-0.007375333,0.000801129,-0.156988889,-0.001130962,-0.000482776,-0.000612031,-0.000421373,-0.045558736,9.797377586
1784244386.462164,-0.007376911,0.000801392,-0.156988740,-0.001021894,-0.000566341,-0.000748225,0.003709140,-0.035561752,9.833312035
1784244386.464165,-0.007380819,0.000807781,-0.156987727,-0.001116931,0.000038309,-0.000464922,-0.013634850,-0.062379554,9.792326927
1784244386.466162,-0.007379985,0.000813298,-0.156991258,-0.001108951,0.000875490,-0.000508931,-0.033902228,-0.067582227,9.804377556
1784244386.468169,-0.007377286,0.000815109,-0.156988934,-0.000654684,0.001173992,-0.000451755,-0.035358433,-0.115750201,9.775822639
1784244386.470168,-0.007384630,0.000815028,-0.156988770,-0.000600819,0.000906908,-0.000160517,-0.000964455,-0.090777382,9.793502808
1784244386.472180,-0.007389150,0.000814531,-0.156985417,-0.001051649,0.000555189,0.000122200,-0.005448473,-0.087454155,9.838352203
1784244386.474182,-0.007390479,0.000814407,-0.156982407,-0.001253890,0.000349167,0.000725777,-0.024117203,-0.073659398,9.822282791
1784244386.476182,-0.007370745,0.000799965,-0.157018557,-0.000816396,0.000114697,0.001056976,-0.003553458,-0.054601647,9.835576057
1784244386.478205,-0.007367285,0.000796713,-0.157019988,-0.000081947,-0.000256234,0.000791697,-0.008891257,-0.078143694,9.795368195
1784244386.480201,-0.007361387,0.000795985,-0.157020092,0.000574379,-0.000484987,0.000472506,0.028307948,-0.044207979,9.807726860
1784244386.482185,-0.007360308,0.000794619,-0.157018617,0.000890678,-0.000525110,0.000438996,0.015930014,-0.066797018,9.793223381
1784244386.484197,-0.007366917,0.000796249,-0.157020032,0.000273538,-0.000364655,0.000324036,-0.015740320,-0.051129524,9.789258003
1784244386.486194,-0.007372897,0.000798142,-0.157022253,-0.000715475,-0.000024409,-0.000012050,-0.023399035,-0.051680069,9.817491531
1784244386.488194,-0.007375289,0.000795751,-0.157022089,-0.001149876,-0.000050280,-0.000149644,-0.022246739,-0.069437690,9.792273521
1784244386.490196,-0.007373079,0.000797319,-0.157023519,-0.000834271,-0.000130271,-0.000195061,-0.018116809,-0.062687352,9.780662537
1784244386.492224,-0.007370400,0.000796469,-0.157019660,-0.000260287,-0.000085808,0.000025697,0.008790198,-0.062746517,9.803553581
1784244386.494197,-0.007368262,0.000794027,-0.157021374,0.000137283,-0.000287074,0.000167131,-0.021463385,-0.080886342,9.762611389
1784244386.496209,-0.007373659,0.000793695,-0.157030001,-0.000077661,-0.000459049,-0.000579214,0.002314330,-0.080002956,9.784605980
1784244386.498205,-0.007376853,0.000790511,-0.157034919,-0.000595896,-0.000633101,-0.001340386,-0.003800066,-0.103222199,9.784451485
1784244386.500201,-0.007378845,0.000791941,-0.157037914,-0.000701198,-0.000585164,-0.001514398,-0.024221878,-0.083806694,9.800249100
1784244386.502202,-0.007376350,0.000797982,-0.157039076,-0.000392029,0.000074020,-0.001384348,0.007400417,-0.066316135,9.803977966
1784244386.504205,-0.007381084,0.000801456,-0.157033831,-0.000437779,0.000697712,-0.000729632,-0.017647041,-0.058474228,9.817454338
1784244386.506213,-0.007386856,0.000804408,-0.157036304,-0.001070042,0.000925088,-0.000345154,-0.013621720,-0.059844419,9.813862801
1784244386.508214,-0.007391608,0.000806560,-0.157028943,-0.001531961,0.000999861,0.000078840,0.006333723,-0.080204137,9.805681229
1784244386.510209,-0.007399557,0.000802207,-0.157020271,-0.001947478,0.000600556,0.001143238,0.024551108,-0.058855668,9.795075417
1784244386.512216,-0.007401478,0.000794243,-0.157019630,-0.002057628,-0.000373613,0.001463844,0.008137217,-0.080563813,9.789988518
1784244386.514212,-0.007395247,0.000801308,-0.157017544,-0.001206553,-0.000334592,0.001251758,-0.005691070,-0.072852924,9.801681519
1784244386.516220,-0.007390017,0.000808541,-0.157009602,-0.000070783,0.000675240,0.001590942,-0.000424421,-0.045177545,9.806796074
1784244386.518224,-0.007386819,0.000806627,-0.157003894,0.000550504,0.000799592,0.002087026,-0.013685020,-0.065207236,9.812035561
1784244386.520226,-0.007392046,0.000806421,-0.157001853,0.000257546,0.000414677,0.002047444,-0.012570050,-0.047290750,9.810806274
1784244386.522233,-0.007395796,0.000801657,-0.157002494,-0.000427037,-0.000055984,0.001583558,-0.031292412,-0.038782485,9.782149315
1784244386.524228,-0.007394718,0.000797887,-0.157014862,-0.000491837,-0.000613547,0.000270316,-0.017624194,-0.021919714,9.780475616
1784244386.526239,-0.007393640,0.000801149,-0.157018125,-0.000425063,-0.000551868,-0.000864096,0.003980665,-0.051960822,9.807653427
1784244386.528235,-0.007390958,0.000800564,-0.157014236,-0.000268253,-0.000298863,-0.000588013,0.008819820,-0.062917843,9.764548302
1784244386.530228,-0.007388663,0.000796676,-0.157013297,0.000094304,-0.000496984,-0.000099796,0.001102814,-0.068386421,9.791404724
1784244386.532230,-0.007389145,0.000797972,-0.157016575,0.000144008,-0.000510018,-0.000231143,-0.026485078,-0.087580666,9.767941475
1784244386.534236,-0.007393046,0.000802481,-0.157024920,-0.000192080,0.000028351,-0.000956180,0.000090039,-0.078201450,9.787305832
1784244386.536240,-0.007396599,0.000801792,-0.157028198,-0.000637350,0.000278715,-0.001485471,-0.004002079,-0.081005991,9.811046600
1784244386.538237,-0.007396311,0.000801231,-0.157026187,-0.000677852,0.000111740,-0.001168529,0.015720317,-0.122658007,9.773137093
1784244386.540245,-0.007402299,0.000796376,-0.157025754,-0.000727800,-0.000173222,-0.000685857,0.011988990,-0.095461868,9.798863411
1784244386.542243,-0.007407417,0.000788713,-0.157023489,-0.001131081,-0.000862948,-0.000319453,-0.027118292,-0.061978519,9.823251724
1784244386.544249,-0.007407917,0.000789489,-0.157019615,-0.001205555,-0.001099222,0.000183974,-0.003757236,-0.061241645,9.803551674
1784244386.546246,-0.007407251,0.000792411,-0.157013565,-0.000908916,-0.000538710,0.000808080,-0.007138390,-0.080524147,9.811942101
1784244386.548249,-0.007410421,0.000792418,-0.157010734,-0.000874022,-0.000181985,0.001189951,0.000593286,-0.074534476,9.774776459
1784244386.550249,-0.007411688,0.000791775,-0.157010838,-0.000976498,-0.000134180,0.001051565,0.021874141,-0.057890281,9.790146828
1784244386.552271,-0.007413756,0.000794149,-0.157014370,-0.000976037,0.000064484,0.000518540,0.028202010,-0.053554744,9.799148560
1784244386.554253,-0.007411316,0.000795420,-0.157013118,-0.000685674,0.000295524,0.000221438,-0.002426902,-0.063409671,9.790985107
1784244386.556261,-0.007410299,0.000795838,-0.157008439,-0.000276816,0.000440275,0.000564791,-0.054104190,-0.069026329,9.791795731
1784244386.558298,-0.007415901,0.000792688,-0.157006159,-0.000524834,0.000245181,0.000884585,0.000523429,-0.081164867,9.762181282
1784244386.560308,-0.007418287,0.000785305,-0.157006279,-0.000891568,-0.000450919,0.000789237,0.006901881,-0.071161643,9.793185234
1784244386.562271,-0.007420933,0.000782638,-0.157015979,-0.000957514,-0.000919213,-0.000092018,0.002316462,-0.078770362,9.800306320
1784244386.564271,-0.007423076,0.000777853,-0.157020092,-0.001022008,-0.001168525,-0.001004295,-0.018055111,-0.054500420,9.826445580
1784244386.566299,-0.007424530,0.000773067,-0.157026321,-0.001072089,-0.001585541,-0.001435522,-0.001764954,-0.081895679,9.806111336
1784244386.568275,-0.007431989,0.000771268,-0.157020360,-0.001469665,-0.001691654,-0.001063170,0.028731190,-0.121620767,9.792883873
1784244386.570278,-0.007444627,0.000771258,-0.157021523,-0.002224140,-0.001208073,-0.000446545,-0.003171662,-0.123188838,9.818846703
1784244386.572284,-0.007447766,0.000772845,-0.157027185,-0.002480055,-0.000620098,-0.000789840,-0.041356519,-0.090329893,9.803328514
1784244386.574279,-0.007447508,0.000769633,-0.157024115,-0.002002144,-0.000560681,-0.000752097,-0.019957764,-0.065460235,9.795886993
1784244386.576284,-0.007449039,0.000771652,-0.157014653,-0.001584538,-0.000560453,0.000304221,0.000101095,-0.040119007,9.787550926
1784244386.578279,-0.007451643,0.000774569,-0.157013401,-0.001474402,-0.000143438,0.000949390,-0.016991610,-0.081874721,9.767539024
1784244386.580292,-0.007455246,0.000770400,-0.157012716,-0.001451068,-0.000213363,0.000821506,0.006622334,-0.096063040,9.767023087
1784244386.582284,-0.007449193,0.000761295,-0.157007828,-0.000846832,-0.001082149,0.000977446,-0.005897763,-0.055941924,9.755163193
1784244386.584290,-0.007449463,0.000758619,-0.157005042,-0.000224842,-0.001591902,0.001236436,0.011684436,-0.047407240,9.783479691
1784244386.586326,-0.007451712,0.000753686,-0.157008350,-0.000435613,-0.001610677,0.000866410,-0.002674145,-0.045603123,9.807686806
1784244386.588314,-0.007445287,0.000752782,-0.157014817,-0.000134290,-0.001499392,-0.000033543,0.006988598,-0.063587643,9.799062729
1784244386.590313,-0.007441511,0.000750097,-0.157014653,0.000592827,-0.001245242,-0.000452706,-0.010926071,-0.097846888,9.797481537
1784244386.592306,-0.007438350,0.000744469,-0.157010525,0.000900327,-0.001386114,-0.000038159,-0.032688312,-0.116769664,9.788372993
1784244386.594303,-0.007439138,0.000743660,-0.157004267,0.000816379,-0.001451964,0.000678742,-0.022709532,-0.069543235,9.807962418
1784244386.596321,-0.007442067,0.000739844,-0.157007575,0.000341200,-0.001438374,0.000695231,0.010972827,-0.068118997,9.799037933
1784244386.598376,-0.007445825,0.000734285,-0.157007977,-0.000206258,-0.001747522,0.000253851,-0.005985275,-0.060685452,9.792345047
1784244386.600318,-0.007446573,0.000734743,-0.157007828,-0.000511540,-0.001633195,0.000169023,-0.037079912,-0.069048025,9.827229500
1784244386.602324,-0.007450517,0.000735274,-0.157016426,-0.000746183,-0.001132364,-0.000450072,0.004714014,-0.065830491,9.803530693
1784244386.604322,-0.007451547,0.000735250,-0.157019705,-0.000880591,-0.000784469,-0.001135786,0.011087961,-0.060725860,9.767254829
1784244386.606323,-0.007452364,0.000734651,-0.157017171,-0.000781846,-0.000573799,-0.000877071,0.006816329,-0.040326066,9.804591179
1784244386.608318,-0.007451868,0.000727715,-0.157021537,-0.000606330,-0.000888981,-0.000763254,-0.037891008,-0.064302549,9.791393280
1784244386.610319,-0.007456287,0.000727873,-0.157029927,-0.000766737,-0.001182938,-0.001421280,-0.008937976,-0.081349380,9.805211067
1784244386.612328,-0.007460514,0.000727350,-0.157035068,-0.001204210,-0.000961312,-0.001952882,-0.019648084,-0.077100255,9.794019699
1784244386.614388,-0.007461826,0.000726541,-0.157033339,-0.001253170,-0.000788975,-0.001653691,-0.003569548,-0.083165698,9.798928261
1784244386.616345,-0.007465943,0.000728316,-0.157032639,-0.001269959,-0.000504075,-0.001037675,-0.000812602,-0.078231290,9.793133736
1784244386.618330,-0.007464000,0.000733308,-0.157028750,-0.001061296,0.000096186,-0.000441961,-0.001366945,-0.051195852,9.772683144
1784244386.620337,-0.007467971,0.000732736,-0.157027528,-0.000965366,0.000371861,0.000027125,-0.024597151,-0.076331869,9.820920944
1784244386.622330,-0.007469785,0.000733779,-0.157032385,-0.001150083,0.000309097,-0.000228734,-0.041808546,-0.053976316,9.795491219
1784244386.624330,-0.007468386,0.000736380,-0.157036722,-0.000865572,0.000477170,-0.000792356,0.010245637,-0.052984923,9.814377785
1784244386.626339,-0.007469572,0.000737515,-0.157041326,-0.000730668,0.000600279,-0.001185007,0.012388499,-0.063129179,9.787863731
1784244386.628343,-0.007469277,0.000737483,-0.157040372,-0.000707527,0.000508568,-0.001111144,-0.000248874,-0.069223762,9.785570145
1784244386.630336,-0.007465218,0.000736988,-0.157039419,-0.000258067,0.000398769,-0.000677799,0.012219278,-0.075001918,9.819618225
1784244386.632363,-0.007461742,0.000735865,-0.157035232,0.000285011,0.000243131,-0.000145569,-0.005100540,-0.098792106,9.793893814
1784244386.634429,-0.007460690,0.000731578,-0.157036945,0.000514849,-0.000191341,0.000059584,-0.000724848,-0.071054362,9.791833878
1784244386.636349,-0.007466325,0.000731139,-0.157042935,0.000124644,-0.000389636,-0.000477160,-0.027659986,-0.072027855,9.788215637
1784244386.638346,-0.007471885,0.000731701,-0.157041207,-0.000608656,-0.000206703,-0.000632388,-0.004682264,-0.063879758,9.798152924
1784244386.640348,-0.007472051,0.000728393,-0.157040760,-0.000875243,-0.000312970,-0.000313136,0.013140049,-0.037239030,9.800134659
1784244386.642347,-0.007471041,0.000719863,-0.157043576,-0.000623355,-0.001005286,-0.000390163,-0.009585253,-0.062342267,9.779775620
1784244386.644352,-0.007475106,0.000711397,-0.157038912,-0.000661597,-0.001886994,-0.000159901,-0.021677075,-0.058762334,9.802205086
1784244386.646358,-0.007477871,0.000711655,-0.157030821,-0.001047364,-0.002026009,0.000750202,0.013068337,-0.081068657,9.789093018
1784244386.648353,-0.007477297,0.000712412,-0.157031938,-0.001013265,-0.001498271,0.001020067,0.006069383,-0.065774612,9.793219566
1784244386.650355,-0.007475761,0.000713996,-0.157037899,-0.000622391,-0.000913909,0.000261611,-0.001823193,-0.087623782,9.792624474
1784244386.652354,-0.007482128,0.000713504,-0.157037750,-0.000808898,-0.000573675,-0.000201883,0.019613467,-0.098018438,9.766574860
1784244386.654356,-0.007489591,0.000711175,-0.157032013,-0.001528334,-0.000612383,0.000252223,-0.021266237,-0.061903812,9.802185059
1784244386.656363,-0.007492436,0.000709703,-0.157032147,-0.001836805,-0.000768790,0.000564611,-0.010555499,-0.066553198,9.806649208
1784244386.658356,-0.007495026,0.000713144,-0.157035157,-0.001730373,-0.000486667,0.000199205,-0.002125557,-0.073899761,9.816472054
1784244386.660369,-0.007497465,0.000709813,-0.157033965,-0.001617482,-0.000336075,0.000023020,-0.007193862,-0.085419916,9.807427406
1784244386.662363,-0.007499059,0.000707949,-0.157030374,-0.001467908,-0.000589847,0.000344049,-0.026827611,-0.078631595,9.770240784
1784244386.664370,-0.007493171,0.000707323,-0.157031789,-0.000778023,-0.000599883,0.000399293,0.000471723,-0.044388514,9.820251465
1784244386.666369,-0.007497991,0.000708210,-0.157034814,-0.000633415,-0.000366578,-0.000010985,0.032707039,-0.051849015,9.803198814
1784244386.668375,-0.007506192,0.000710922,-0.157032773,-0.001484499,0.000028246,-0.000075462,0.001724090,-0.052440450,9.816165924
1784244386.670376,-0.007501130,0.000708146,-0.157036886,-0.001384666,-0.000015433,-0.000195342,-0.017422518,-0.076865457,9.820026398
1784244386.672382,-0.007500873,0.000704935,-0.157033786,-0.000737862,-0.000449867,-0.000211797,-0.010095185,-0.103246629,9.799242020
1784244386.674432,-0.007507467,0.000709228,-0.157026678,-0.000968132,-0.000259456,0.000536102,0.008332395,-0.099997237,9.813177109
1784244386.676404,-0.007512875,0.000712783,-0.157019868,-0.001474148,0.000421329,0.001336146,-0.020684740,-0.088319577,9.798429489
1784244386.678395,-0.007515211,0.000715428,-0.157020479,-0.001553417,0.000809369,0.001395326,-0.009616835,-0.062996909,9.808914185
1784244386.680428,-0.007515090,0.000715428,-0.157022715,-0.001359890,0.000787119,0.000823376,-0.001203818,-0.073313862,9.795406342
1784244386.682403,-0.007518031,0.000711719,-0.157021239,-0.001260091,0.000338489,0.000548657,0.009669927,-0.066544838,9.769008636
1784244386.684402,-0.007518008,0.000710624,-0.157023460,-0.001116046,-0.000079100,0.000348134,-0.001950001,-0.060356010,9.801764488
1784244386.686400,-0.007521998,0.000712229,-0.157016352,-0.001188527,0.000012262,0.000583066,-0.042923857,-0.035116084,9.791576385
1784244386.688400,-0.007528142,0.000709363,-0.157005861,-0.001660601,-0.000047968,0.001619325,-0.022275215,-0.071283601,9.799882889
1784244386.690399,-0.007521940,0.000707520,-0.157009140,-0.001210243,-0.000366080,0.001669943,0.014200407,-0.059775166,9.817028999
1784244386.692482,-0.007515525,0.000705822,-0.157014564,-0.000028853,-0.000510386,0.000625552,-0.018233163,-0.072926864,9.771631241
1784244386.694445,-0.007515468,0.000708176,-0.157015458,0.000418681,-0.000324066,0.000028157,0.020709401,-0.078631252,9.810636520
1784244386.696437,-0.007510198,0.000709404,-0.157015532,0.000620011,0.000062786,-0.000044801,0.011438964,-0.066771321,9.797703743
1784244386.698495,-0.007508337,0.000707242,-0.157008454,0.000888616,0.000033981,0.000442067,-0.023852464,-0.088085748,9.834294319
1784244386.700446,-0.007501651,0.000702025,-0.157009631,0.001312868,-0.000600996,0.000721480,-0.040681887,-0.033130772,9.823422432
1784244386.702440,-0.007492840,0.000699500,-0.157019317,0.002094534,-0.001079692,-0.000211573,-0.018989585,-0.060455132,9.783365250
1784244386.704441,-0.007487517,0.000696230,-0.157019705,0.002485776,-0.001174839,-0.000836007,-0.006627479,-0.039206795,9.797413826
1784244386.706469,-0.007488524,0.000694317,-0.157015577,0.001973434,-0.001205312,-0.000353257,-0.005825946,-0.048485570,9.777627945
1784244386.708447,-0.007491142,0.000695640,-0.157015935,0.001061133,-0.000915712,-0.000000699,0.020247640,-0.044380747,9.783507347
1784244386.710481,-0.007485457,0.000701080,-0.157012269,0.000891388,-0.000097884,0.000224200,-0.013490365,-0.051107399,9.782086372
1784244386.712456,-0.007484877,0.000702903,-0.157009423,0.000984552,0.000530226,0.000605183,0.012019821,-0.095623665,9.758512497
1784244386.714446,-0.007481125,0.000701233,-0.157015935,0.001011479,0.000398472,0.000193408,-0.006392437,-0.093078554,9.811862946
1784244386.716476,-0.007477682,0.000699909,-0.157026410,0.001301921,0.000071115,-0.001010015,-0.020262050,-0.090962216,9.791239738
1784244386.718462,-0.007472043,0.000700340,-0.157032102,0.001641489,-0.000025079,-0.001831545,-0.016937803,-0.076181591,9.785957336
1784244386.720452,-0.007466256,0.000704812,-0.157034010,0.001964078,0.000296474,-0.001850061,-0.023161560,-0.033189658,9.800127029
1784244386.722486,-0.007464330,0.000707410,-0.157035679,0.001946878,0.000675775,-0.001592365,0.027326185,-0.050941333,9.811268806
1784244386.724468,-0.007462160,0.000707350,-0.157040313,0.001696633,0.000667773,-0.001587117,0.031180480,-0.067440450,9.793233871
1784244386.726465,-0.007455263,0.000705985,-0.157042548,0.001766360,0.000551452,-0.001619612,0.009861187,-0.122383326,9.808103561
1784244386.728467,-0.007452313,0.000706466,-0.157033041,0.001869482,0.000496281,-0.000686290,0.000742896,-0.096353978,9.818572998
1784244386.730456,-0.007449556,0.000705894,-0.157028884,0.001797954,0.000365018,0.000426127,-0.000443478,-0.084133662,9.803408623
1784244386.732464,-0.007447966,0.000702668,-0.157026097,0.001653805,0.000021166,0.000783688,-0.009700335,-0.070545480,9.799450874
1784244386.734463,-0.007447949,0.000701844,-0.157023817,0.001313678,-0.000262015,0.000917248,-0.036055852,-0.059143964,9.818776131
1784244386.736465,-0.007451247,0.000702441,-0.157023892,0.000687880,-0.000355020,0.000816006,-0.014104099,-0.065372810,9.773027420
1784244386.738470,-0.007452263,0.000703210,-0.157029867,0.000162192,-0.000310594,0.000183161,0.002051543,-0.064750634,9.782462120
1784244386.740475,-0.007454801,0.000702521,-0.157027811,-0.000129743,-0.000190101,-0.000132811,-0.002016694,-0.066150874,9.797693253
1784244386.742471,-0.007458257,0.000701210,-0.157021821,-0.000508641,-0.000249505,0.000448255,0.017862463,-0.055601906,9.790606499
1784244386.744481,-0.007456663,0.000698247,-0.157020062,-0.000497301,-0.000475760,0.000852940,-0.002063752,-0.032579843,9.802392006
1784244386.746474,-0.007461246,0.000695940,-0.157019928,-0.000760052,-0.000707224,0.000749808,0.010496048,-0.069955967,9.806199074
1784244386.748478,-0.007467377,0.000691724,-0.157026187,-0.001475437,-0.000956869,0.000131839,-0.013650163,-0.100090340,9.802845001
1784244386.750476,-0.007468456,0.000690346,-0.157028422,-0.001435348,-0.001107790,-0.000479748,-0.018272799,-0.073645107,9.809735298
1784244386.752485,-0.007463882,0.000692660,-0.157022387,-0.000680095,-0.000780674,-0.000091310,-0.009631344,-0.065948218,9.782892227
1784244386.754494,-0.007461680,0.000696852,-0.157019824,-0.000035801,-0.000131398,0.000519035,-0.009108343,-0.056451760,9.832718849
1784244386.756495,-0.007464810,0.000703846,-0.157020152,-0.000231603,0.000603410,0.000530823,-0.018441398,-0.088754952,9.792601585
1784244386.758472,-0.007473855,0.000701789,-0.157022119,-0.001137515,0.000716841,0.000228966,-0.013445834,-0.083077371,9.804298401
1784244386.760466,-0.007484463,0.000701323,-0.157022744,-0.002073678,0.000334584,-0.000012014,0.014015523,-0.075418830,9.811994553
1784244386.762469,-0.007491664,0.000698193,-0.157019421,-0.002630756,-0.000019443,0.000173248,0.014210179,-0.061318990,9.782047272
1784244386.764475,-0.007488747,0.000695490,-0.157011285,-0.002207730,-0.000415933,0.000904465,0.020096082,-0.055303521,9.807646751
1784244386.766475,-0.007487138,0.000691471,-0.157003194,-0.001357376,-0.000658613,0.001763199,-0.018296747,-0.077076159,9.788192749
1784244386.768479,-0.007487899,0.000692511,-0.157001391,-0.000987242,-0.000578069,0.001956572,-0.057680968,-0.065231673,9.831719398
1784244386.770474,-0.007485804,0.000692921,-0.157008410,-0.000660695,-0.000495698,0.001068712,-0.007034359,-0.072813414,9.798542976
1784244386.772473,-0.007484214,0.000688893,-0.157010883,-0.000263104,-0.000777627,0.000131435,0.004014379,-0.050073583,9.794215202
1784244386.774480,-0.007485834,0.000684642,-0.157007039,-0.000193754,-0.001129166,0.000187598,0.005715452,-0.058131266,9.790129662
1784244386.776487,-0.007487426,0.000679742,-0.157004789,-0.000433284,-0.001384123,0.000552990,-0.002119636,-0.075068772,9.791807175
1784244386.778486,-0.007488657,0.000687157,-0.156998709,-0.000581469,-0.000779061,0.000968037,-0.024340294,-0.093252040,9.805566788
1784244386.780488,-0.007491655,0.000688293,-0.156994566,-0.000596405,-0.000070069,0.001398399,-0.003308200,-0.063270986,9.773051262
1784244386.782487,-0.007491661,0.000684814,-0.156995222,-0.000523796,-0.000289676,0.001256649,-0.011347611,-0.059631508,9.779792786
1784244386.784491,-0.007492704,0.000683466,-0.156997979,-0.000452668,-0.000536972,0.000683582,0.009459285,-0.044802018,9.799186707
1784244386.786496,-0.007493268,0.000682735,-0.157002598,-0.000524220,-0.000480145,-0.000003545,0.008772187,-0.064509742,9.799507141
1784244386.788493,-0.007488724,0.000681330,-0.157002449,-0.000197158,-0.000444053,-0.000304967,-0.018296624,-0.075859465,9.806134224
1784244386.790493,-0.007482659,0.000676457,-0.157002032,0.000596644,-0.000803837,-0.000182833,-0.008135275,-0.052218575,9.802707672
1784244386.792540,-0.007484734,0.000678035,-0.157006100,0.000725777,-0.000861330,-0.000382263,0.013668894,-0.068528317,9.788725853
1784244386.794525,-0.007491024,0.000683632,-0.157012284,-0.000038686,-0.000135223,-0.000975926,0.022259895,-0.062445588,9.799982071
1784244386.796503,-0.007491042,0.000686409,-0.157013446,-0.000467368,0.000589128,-0.001208541,0.012000732,-0.058589760,9.780269623
1784244386.798505,-0.007486211,0.000687392,-0.157009825,-0.000025246,0.000798595,-0.000710656,-0.000015702,-0.046714779,9.833236694
1784244386.800505,-0.007484337,0.000688870,-0.157008037,0.000330177,0.000733621,-0.000150541,-0.003372113,-0.065396696,9.820113182
1784244386.802502,-0.007484552,0.000689896,-0.157013446,0.000247069,0.000693740,-0.000356766,0.012041413,-0.090184912,9.812795639
1784244386.804506,-0.007484589,0.000682163,-0.157022387,0.000163554,0.000057390,-0.001232492,-0.018397607,-0.083951391,9.810117722
1784244386.806521,-0.007486102,0.000676729,-0.157029182,0.000098058,-0.000855561,-0.001963219,-0.031678051,-0.067763589,9.825899124
1784244386.808525,-0.007485551,0.000676168,-0.157025009,0.000089639,-0.001040505,-0.001608270,-0.013092932,-0.090323627,9.814564705
1784244386.810517,-0.007487506,0.000678528,-0.157017410,0.000104113,-0.000731454,-0.000372390,-0.009971529,-0.093759961,9.788093567
1784244386.812518,-0.007488554,0.000677450,-0.157015935,0.000006225,-0.000540035,0.000347057,-0.019424425,-0.059934646,9.773954391
1784244386.814521,-0.007492017,0.000674539,-0.157016575,-0.000301694,-0.000664594,0.000309714,-0.007307491,-0.021673936,9.790350914
1784244386.816523,-0.007494168,0.000673608,-0.157012194,-0.000797286,-0.000717628,0.000480858,-0.015353006,-0.054862052,9.809409142
1784244386.818542,-0.007498142,0.000673093,-0.157009631,-0.001193244,-0.000595222,0.000822999,-0.010419982,-0.053730849,9.830492973
1784244386.820527,-0.007492995,0.000670599,-0.157008424,-0.000867842,-0.000637335,0.000855867,-0.009146966,-0.063240767,9.779322624
1784244386.822528,-0.007490053,0.000668145,-0.157012805,-0.000160963,-0.000796197,0.000410496,-0.019553894,-0.104625590,9.821190834
1784244386.824531,-0.007492682,0.000668140,-0.157014757,-0.000095716,-0.000743756,-0.000130351,0.005060121,-0.073940888,9.809306145
1784244386.826535,-0.007493598,0.000671726,-0.157018036,-0.000314480,-0.000235146,-0.000449947,-0.011183395,-0.082956672,9.783229828
1784244386.828536,-0.007492805,0.000667703,-0.157022148,-0.000241392,-0.000136238,-0.000828328,0.006373949,-0.076239273,9.815121651
1784244386.830534,-0.007496604,0.000663673,-0.157022268,-0.000357427,-0.000621663,-0.000890728,-0.020664200,-0.088157415,9.775566101
1784244386.832535,-0.007494137,0.000667597,-0.157019407,-0.000328762,-0.000439413,-0.000463673,-0.021587204,-0.087942787,9.810088158
1784244386.834536,-0.007495697,0.000668379,-0.157019496,-0.000178010,-0.000002059,-0.000150665,0.003188608,-0.080602325,9.804330826
1784244386.836545,-0.007505337,0.000666987,-0.157025188,-0.000901763,0.000023091,-0.000503259,-0.010202091,-0.075416431,9.792245865
1784244386.838549,-0.007508199,0.000668564,-0.157035947,-0.001517084,0.000100788,-0.001482002,-0.000105184,-0.055121113,9.818389893
1784244386.840552,-0.007508163,0.000666210,-0.157041118,-0.001352093,0.000024560,-0.002158668,-0.011439038,-0.066026971,9.797236443
1784244386.842552,-0.007507610,0.000666181,-0.157035351,-0.001000729,-0.000148320,-0.001532686,-0.014806555,-0.084391288,9.802495956
1784244386.844553,-0.007508907,0.000666965,-0.157032534,-0.000779886,-0.000061213,-0.000533979,-0.016787510,-0.064458296,9.775273323
1784244386.846551,-0.007506748,0.000666312,-0.157033175,-0.000527955,-0.000032081,-0.000239722,-0.036946535,-0.060295116,9.793213844
1784244386.848566,-0.007504628,0.000662014,-0.157034889,-0.000112361,-0.000353464,-0.000333779,-0.034092110,-0.046080705,9.805413246
1784244386.850556,-0.007510599,0.000664289,-0.157031268,-0.000478454,-0.000510149,-0.000114102,-0.007754825,-0.058841992,9.788319588
1784244386.852558,-0.007519572,0.000669128,-0.157031104,-0.001498155,-0.000004975,0.000174548,-0.001056275,-0.059586048,9.817911148
1784244386.854558,-0.007520072,0.000669370,-0.157030404,-0.001734493,0.000340796,0.000186937,-0.006912771,-0.062532566,9.801746368
1784244386.856567,-0.007518719,0.000668121,-0.157029718,-0.001241713,0.000225311,0.000231076,-0.012282983,-0.061135598,9.803992271
1784244386.858564,-0.007519775,0.000665177,-0.157035947,-0.000920097,-0.000071528,-0.000207361,-0.012418263,-0.071524553,9.816030502
1784244386.860564,-0.007520603,0.000664363,-0.157038465,-0.000794733,-0.000375265,-0.000744040,-0.004744299,-0.070043109,9.782870293
1784244386.862570,-0.007524827,0.000665709,-0.157034844,-0.000918846,-0.000310319,-0.000465836,0.019817285,-0.079388492,9.792697906
1784244386.864572,-0.007526935,0.000665173,-0.157033354,-0.001099335,-0.000173699,0.000007965,-0.020081302,-0.073730215,9.824975967
1784244386.866568,-0.007521855,0.000666760,-0.157036349,-0.000525225,-0.000133011,-0.000097378,0.000564871,-0.074353606,9.812438011
1784244386.868576,-0.007513340,0.000662656,-0.157039121,0.000614342,-0.000343367,-0.000463140,0.005497254,-0.075658977,9.798087120
1784244386.870574,-0.007516999,0.000661870,-0.157043457,0.000811750,-0.000507232,-0.000820917,0.008404432,-0.095781162,9.787201881
1784244386.872581,-0.007521708,0.000665591,-0.157052085,0.000058201,-0.000092519,-0.001477143,-0.018391740,-0.084310316,9.797561646
1784244386.874583,-0.007526467,0.000665607,-0.157055095,-0.000599639,0.000192217,-0.001865208,-0.033386376,-0.062599987,9.795891762
1784244386.876584,-0.007524671,0.000668838,-0.157046676,-0.000667772,0.000208137,-0.000993008,-0.020912074,-0.069950610,9.798995018
1784244386.878585,-0.007525911,0.000675190,-0.157042772,-0.000478825,0.000646265,0.000114484,-0.018031584,-0.053909376,9.806274414
1784244386.880588,-0.007524903,0.000678634,-0.157049775,-0.000464241,0.001063180,-0.000125376,-0.010693663,-0.078991182,9.791773796
1784244386.882580,-0.007523573,0.000675405,-0.157050684,-0.000279059,0.000719037,-0.000628376,-0.031819150,-0.081440531,9.796221733
1784244386.884604,-0.007519793,0.000677726,-0.157047048,0.000143376,0.000460807,-0.000272319,-0.030484319,-0.081546813,9.808774948
1784244386.886603,-0.007512692,0.000684478,-0.157046825,0.000908187,0.000753297,0.000062676,0.000483107,-0.080672763,9.819122314
1784244386.888594,-0.007507866,0.000683593,-0.157051980,0.001536756,0.000753265,-0.000290068,0.025154028,-0.045486178,9.804128647
1784244386.890586,-0.007507966,0.000682907,-0.157055572,0.001252458,0.000618799,-0.000801691,0.019969773,-0.067242667,9.785602570
1784244386.892589,-0.007516194,0.000682699,-0.157056466,0.000159160,0.000564624,-0.000886739,0.009930242,-0.081006154,9.785952568
1784244386.894600,-0.007522532,0.000685126,-0.157054976,-0.000872763,0.000561593,-0.000605882,-0.012787495,-0.064002030,9.829976082
1784244386.896614,-0.007528497,0.000691213,-0.157058209,-0.001456724,0.000990552,-0.000561078,-0.015422746,-0.060275737,9.814753532
1784244386.898605,-0.007530872,0.000689611,-0.157062560,-0.001612913,0.001032589,-0.000926657,-0.004471719,-0.046412457,9.798713684
1784244386.900605,-0.007524798,0.000685495,-0.157061890,-0.001011581,0.000369872,-0.000924928,0.003807392,-0.069539040,9.759568214
1784244386.902605,-0.007519974,0.000685949,-0.157057732,-0.000085204,0.000022275,-0.000344481,-0.018348295,-0.080320001,9.803414345
1784244386.904606,-0.007521033,0.000683542,-0.157058626,0.000193337,-0.000118013,-0.000029943,0.018944686,-0.076749645,9.801232338
1784244386.906609,-0.007528765,0.000675821,-0.157055050,-0.000422301,-0.000679144,0.000159234,0.023062475,-0.069284618,9.815182686
1784244386.908612,-0.007535703,0.000672424,-0.157050923,-0.001270136,-0.001157715,0.000639008,-0.019508833,-0.065869428,9.789608955
1784244386.910613,-0.007531641,0.000674379,-0.157050490,-0.001140934,-0.001045094,0.000775653,-0.024113823,-0.076064177,9.782365799
1784244386.912618,-0.007525429,0.000678248,-0.157057971,-0.000153555,-0.000463835,0.000085119,-0.018970476,-0.057062220,9.810289383
1784244386.914618,-0.007520325,0.000679759,-0.157054618,0.000656439,0.000029408,-0.000218825,0.015991352,-0.062260170,9.785181999
1784244386.916623,-0.007517213,0.000678533,-0.157054722,0.001043109,0.000081837,0.000063172,0.007601298,-0.048925135,9.815297127
1784244386.918629,-0.007519837,0.000679325,-0.157055363,0.000800560,0.000073347,-0.000003266,-0.017161796,-0.056570482,9.800877571
1784244386.920624,-0.007521082,0.000684611,-0.157055408,0.000321390,0.000520403,-0.000049620,-0.009569956,-0.096974574,9.798384666
1784244386.922625,-0.007522332,0.000688834,-0.157057881,0.000065555,0.001079837,-0.000208301,-0.009465627,-0.087640516,9.808756828
1784244386.924626,-0.007522816,0.000691469,-0.157051593,-0.000070157,0.001250187,0.000108103,-0.020658797,-0.087709464,9.775568962
1784244386.926641,-0.007524005,0.000691179,-0.157047153,-0.000119812,0.001010893,0.000806002,0.002570456,-0.057312746,9.806719780
1784244386.928645,-0.007525330,0.000688507,-0.157049939,-0.000212645,0.000480960,0.000698580,0.010911959,-0.035872757,9.801037788
1784244386.930637,-0.007518669,0.000687986,-0.157046020,0.000100649,0.000199019,0.000585407,0.024320481,-0.077292033,9.804820061
1784244386.932637,-0.007514854,0.000693220,-0.157044515,0.000677543,0.000528072,0.000795322,0.007237810,-0.077731371,9.834391594
1784244386.934636,-0.007517939,0.000700914,-0.157043517,0.000543086,0.001260962,0.000751539,0.016959703,-0.056848444,9.778492928
1784244386.936646,-0.007519241,0.000709851,-0.157040641,0.000032018,0.002068752,0.000810772,0.011159311,-0.090052575,9.795758247
1784244386.938644,-0.007521853,0.000711972,-0.157039136,-0.000308311,0.002278670,0.000887968,-0.020725997,-0.091887370,9.796164513
1784244386.940642,-0.007527738,0.000711395,-0.157041669,-0.000725686,0.001733666,0.000579011,0.016279625,-0.076095477,9.777023315
1784244386.942642,-0.007527717,0.000710570,-0.157040700,-0.000851004,0.001136938,0.000317007,-0.010932906,-0.060310967,9.811619759
1784244386.944646,-0.007525573,0.000709996,-0.157033890,-0.000473364,0.000729298,0.000758848,-0.038347486,-0.065573908,9.781970024
1784244386.946646,-0.007524681,0.000714781,-0.157035545,-0.000141441,0.000630823,0.000901404,-0.013848335,-0.081085816,9.776962280
1784244386.948649,-0.007525193,0.000713694,-0.157036439,-0.000079563,0.000528237,0.000481293,0.000540927,-0.077784665,9.790895462
1784244386.950659,-0.007530360,0.000712094,-0.157034442,-0.000561732,0.000241648,0.000425955,0.000626434,-0.070220210,9.798116684
1784244386.952654,-0.007535336,0.000717959,-0.157028407,-0.001216395,0.000501244,0.000857115,-0.014622192,-0.069967501,9.790034294
1784244386.954665,-0.007534461,0.000722430,-0.157026082,-0.001164960,0.001062533,0.001192176,-0.011092193,-0.076157764,9.772064209
1784244386.956768,-0.007534266,0.000723557,-0.157025650,-0.000823127,0.001110485,0.001055649,-0.001992077,-0.101520121,9.793879509
1784244386.958699,-0.007536137,0.000720903,-0.157019913,-0.000760727,0.000660012,0.001187864,-0.011772434,-0.092974588,9.806926727
1784244386.960716,-0.007538279,0.000719466,-0.157016575,-0.000753466,0.000187049,0.001481883,-0.021518039,-0.082938917,9.799361229
1784244386.962681,-0.007534527,0.000718600,-0.157016933,-0.000366147,-0.000033079,0.001282181,-0.027025482,-0.055166889,9.810293198
1784244386.964692,-0.007531554,0.000719864,-0.157016203,0.000189779,0.000002706,0.000957710,-0.003138051,-0.084928319,9.793985367
1784244386.966684,-0.007534320,0.000726334,-0.157016814,0.000130010,0.000519875,0.000705283,-0.012016186,-0.113946095,9.795134544
1784244386.968681,-0.007534533,0.000728428,-0.157016098,-0.000129898,0.000952958,0.000521362,-0.015863046,-0.059393141,9.817449570
1784244386.970675,-0.007530203,0.000727867,-0.157014087,0.000090694,0.000758950,0.000565708,0.010611703,-0.061342955,9.791908264
1784244386.972676,-0.007530944,0.000729428,-0.157019779,0.000215887,0.000584659,0.000164530,-0.008554291,-0.050357386,9.793754578
1784244386.974676,-0.007533823,0.000731553,-0.157017201,-0.000088404,0.000677723,-0.000091022,-0.016733246,-0.059572056,9.781131744
1784244386.976687,-0.007532356,0.000729422,-0.157013610,-0.000170081,0.000452149,0.000353212,-0.017882496,-0.042195611,9.796935081
1784244386.978684,-0.007527794,0.000729874,-0.157012358,0.000275687,0.000174930,0.000586746,0.012980828,-0.051059056,9.790630341
1784244386.980686,-0.007524075,0.000729210,-0.157016456,0.000712889,0.000226965,0.000234965,-0.012328056,-0.102728598,9.793413162
1784244386.982687,-0.007523494,0.000731032,-0.157014951,0.000761128,0.000357670,-0.000003164,-0.038122375,-0.080718488,9.832085609
1784244386.984689,-0.007529848,0.000731063,-0.157019824,0.000162842,0.000388053,-0.000232162,-0.001131903,-0.105067618,9.787133217
1784244386.986696,-0.007537783,0.000731147,-0.157023922,-0.000689866,0.000237015,-0.000779700,-0.003857363,-0.070137270,9.794527054
1784244386.988693,-0.007536718,0.000728456,-0.157022446,-0.000807825,-0.000061090,-0.000745580,0.010802343,-0.044438075,9.808606148
1784244386.990696,-0.007538299,0.000723742,-0.157020420,-0.000788228,-0.000461932,-0.000306389,-0.012658376,-0.054877464,9.806721687
1784244386.992738,-0.007543356,0.000721381,-0.157019258,-0.001189537,-0.000731351,-0.000005028,-0.024256334,-0.048920386,9.808990479
1784244386.994706,-0.007546004,0.000719788,-0.157019645,-0.001389734,-0.000801622,0.000052892,-0.026707182,-0.069170356,9.762680054
1784244386.996710,-0.007539784,0.000721660,-0.157019734,-0.000828704,-0.000715887,0.000006713,-0.000234433,-0.068299219,9.781540871
1784244386.998742,-0.007537348,0.000722935,-0.157015577,-0.000075087,-0.000461040,0.000281572,0.002177145,-0.092027947,9.774665833
1784244387.000715,-0.007541185,0.000726386,-0.157019913,-0.000119279,-0.000015231,0.000193483,-0.035486206,-0.051305439,9.786548615
1784244387.002708,-0.007538793,0.000722881,-0.157020584,-0.000154199,-0.000012427,-0.000197420,-0.030495116,-0.044852767,9.815287590
1784244387.004711,-0.007535094,0.000717241,-0.157020941,0.000301225,-0.000629202,-0.000214096,-0.032333378,-0.048820086,9.809432030
1784244387.006718,-0.007528319,0.000718208,-0.157023713,0.000779734,-0.000917219,-0.000369526,-0.008855167,-0.072590478,9.833511353
1784244387.008711,-0.007529881,0.000718458,-0.157025114,0.000771198,-0.000726761,-0.000553300,-0.010116634,-0.067041881,9.811577797
1784244387.010713,-0.007531885,0.000724859,-0.157024145,0.000353421,-0.000135145,-0.000432583,-0.041065075,-0.068576567,9.768050194
1784244387.012720,-0.007528317,0.000730882,-0.157029271,0.000397479,0.000689616,-0.000594620,-0.017216129,-0.098236620,9.800611496
1784244387.014715,-0.007530677,0.000730603,-0.157035202,0.000372175,0.000897961,-0.001184286,-0.022903854,-0.085666664,9.807411194
1784244387.016725,-0.007538526,0.000733079,-0.157039553,-0.000264790,0.000714091,-0.001562550,-0.013224346,-0.063497446,9.822806358
1784244387.018719,-0.007535006,0.000734861,-0.157043889,-0.000329769,0.000719170,-0.001728392,-0.000613449,-0.062069699,9.788305283
1784244387.020723,-0.007527189,0.000738933,-0.157045826,0.000456493,0.000928877,-0.001684267,0.000627645,-0.070210665,9.796773911
1784244387.022725,-0.007522579,0.000741754,-0.157057062,0.001103503,0.001155720,-0.002120939,0.021699443,-0.072237752,9.791849136
1784244387.024731,-0.007526536,0.000741225,-0.157064900,0.000849117,0.001007247,-0.002839091,-0.011923413,-0.068734430,9.800806046
1784244387.026728,-0.007526160,0.000739787,-0.157063410,0.000314894,0.000591549,-0.002498038,-0.020580586,-0.079392157,9.802969933
1784244387.028733,-0.007527751,0.000737387,-0.157063574,0.000085808,0.000157787,-0.001726557,-0.025758451,-0.100287691,9.789381027
1784244387.030738,-0.007530658,0.000741007,-0.157069802,-0.000130549,0.000169526,-0.001686296,0.020697257,-0.080753416,9.794034958
1784244387.032736,-0.007533511,0.000744715,-0.157073572,-0.000373468,0.000594528,-0.001907508,0.019451169,-0.035467260,9.791633606
1784244387.034734,-0.007533749,0.000744689,-0.157071799,-0.000481756,0.000684086,-0.001528220,-0.005930206,-0.055792857,9.797307968
1784244387.036741,-0.007530913,0.000745408,-0.157070830,-0.000292379,0.000546452,-0.000927685,0.004210591,-0.069904089,9.810227394
1784244387.038747,-0.007529511,0.000748809,-0.157071427,-0.000043018,0.000679972,-0.000651188,0.020783450,-0.074399285,9.782418251
1784244387.040748,-0.007519818,0.000749015,-0.157076016,0.000718674,0.000827307,-0.000827650,-0.004023363,-0.081984594,9.822696686
1784244387.042747,-0.007516878,0.000745759,-0.157084107,0.001378377,0.000486627,-0.001463981,-0.040088307,-0.059451155,9.806218147
1784244387.044745,-0.007513414,0.000742773,-0.157085285,0.001439261,-0.000064453,-0.001695223,-0.027028756,-0.054382257,9.825989723
1784244387.046747,-0.007504272,0.000741345,-0.157084569,0.001788946,-0.000526851,-0.001267825,-0.006589334,-0.072037712,9.814688683
1784244387.048759,-0.007503156,0.000742623,-0.157088399,0.001884527,-0.000572892,-0.001135620,-0.000699067,-0.068014026,9.805303574
1784244387.050751,-0.007502861,0.000741779,-0.157088235,0.001450362,-0.000384789,-0.001074980,-0.008343289,-0.068450108,9.817398071
1784244387.052761,-0.007506575,0.000740464,-0.157087296,0.000805919,-0.000426203,-0.000707387,0.010273812,-0.090352319,9.776476860
1784244387.054761,-0.007513194,0.000740497,-0.157092988,-0.000113995,-0.000395084,-0.000837113,-0.005382263,-0.086526074,9.770659447
1784244387.056766,-0.007512079,0.000741026,-0.157096788,-0.000384251,-0.000248739,-0.001255226,-0.011769322,-0.056575879,9.791915894
1784244387.058757,-0.007509621,0.000744424,-0.157091007,0.000034234,0.000080467,-0.000781371,-0.025843263,-0.071472533,9.769839287
1784244387.060761,-0.007506238,0.000748166,-0.157091334,0.000430487,0.000461859,-0.000200565,-0.017242879,-0.064099967,9.788724899
1784244387.062765,-0.007505189,0.000744151,-0.157088533,0.000623777,0.000237969,0.000021029,0.003392524,-0.101182491,9.799715042
1784244387.064766,-0.007512877,0.000744466,-0.157090470,0.000003760,-0.000078259,0.000072085,0.024298323,-0.080303743,9.787316322
1784244387.066772,-0.007522251,0.000740844,-0.157089263,-0.001115616,-0.000210768,0.000000453,-0.011023073,-0.067506969,9.815609932
1784244387.068768,-0.007523333,0.000737119,-0.157084614,-0.001483096,-0.000584885,0.000398730,-0.021808499,-0.069526121,9.803929329
1784244387.070771,-0.007526258,0.000737033,-0.157086611,-0.001368860,-0.000698222,0.000473742,0.006465269,-0.068223663,9.821897507
1784244387.072773,-0.007529381,0.000740479,-0.157089338,-0.001423795,-0.000290220,0.000025451,0.004289766,-0.064010650,9.800403595
1784244387.074778,-0.007527467,0.000742555,-0.157085940,-0.001119422,0.000163071,0.000061329,-0.005183958,-0.066723943,9.821000099
1784244387.076788,-0.007521739,0.000740570,-0.157083169,-0.000306272,0.000088605,0.000465238,-0.005480055,-0.053355668,9.831845284
1784244387.078781,-0.007517976,0.000741031,-0.157082185,0.000411876,-0.000073997,0.000596612,-0.010963009,-0.065006427,9.778862000
1784244387.080786,-0.007519018,0.000736380,-0.157080203,0.000445468,-0.000330834,0.000636612,0.010998490,-0.066295356,9.794565201
1784244387.082780,-0.007514526,0.000731272,-0.157073140,0.000519086,-0.000898996,0.001078898,-0.010930086,-0.060288716,9.808482170
1784244387.084783,-0.007515545,0.000733381,-0.157068431,0.000613313,-0.000864461,0.001584180,-0.028071463,-0.068486109,9.794963837
1784244387.086808,-0.007522149,0.000734840,-0.157074645,-0.000107268,-0.000447274,0.001050612,-0.023242708,-0.077499047,9.793565750
1784244387.088797,-0.007523497,0.000730582,-0.157073975,-0.000654311,-0.000573440,0.000388705,-0.008100996,-0.087511502,9.788135529
1784244387.090789,-0.007514530,0.000731784,-0.157071099,0.000049317,-0.000609001,0.000522340,-0.013532372,-0.055491619,9.768608093
1784244387.092822,-0.007518243,0.000731004,-0.157066971,0.000401158,-0.000400624,0.000855415,0.003973124,-0.053641379,9.791950226
1784244387.094795,-0.007530489,0.000728986,-0.157066047,-0.000791301,-0.000484415,0.000968079,-0.000311649,-0.073366694,9.801234245
1784244387.096802,-0.007530151,0.000728637,-0.157066688,-0.001405518,-0.000492211,0.000725922,-0.001879403,-0.090499148,9.819057465
1784244387.098799,-0.007533323,0.000727844,-0.157068118,-0.001236905,-0.000413540,0.000388496,-0.011684171,-0.087414637,9.780958176
1784244387.100803,-0.007534077,0.000729616,-0.157059953,-0.001096647,-0.000288073,0.000738801,-0.000923144,-0.088019662,9.783655167
1784244387.102800,-0.007532986,0.000729578,-0.157057136,-0.000705312,-0.000147562,0.001283557,-0.000616913,-0.099281661,9.791653633
1784244387.104803,-0.007535088,0.000729838,-0.157054842,-0.000582572,-0.000095014,0.001282731,-0.004931026,-0.085296050,9.785911560
1784244387.106805,-0.007540109,0.000728910,-0.157049119,-0.000856196,-0.000144031,0.001479636,-0.013087000,-0.053902663,9.796417236
1784244387.108813,-0.007538537,0.000724629,-0.157042041,-0.000806514,-0.000490404,0.001946676,0.008955796,-0.050902385,9.775834084
1784244387.110816,-0.007537385,0.000718742,-0.157035798,-0.000501751,-0.000979840,0.002322120,0.004891302,-0.051057316,9.804969788
1784244387.112815,-0.007540879,0.000711577,-0.157044724,-0.000622781,-0.001524041,0.001510927,0.007895153,-0.061905865,9.812973022
1784244387.114820,-0.007543293,0.000706795,-0.157047763,-0.000854065,-0.001915068,0.000287971,-0.042864315,-0.103341669,9.808623314
1784244387.116822,-0.007544934,0.000707823,-0.157043353,-0.000802509,-0.001721855,0.000302665,-0.025854699,-0.069131345,9.818722725
1784244387.118819,-0.007541464,0.000706705,-0.157035992,-0.000366171,-0.001337729,0.001019378,0.023201955,-0.058457226,9.804492950
1784244387.120822,-0.007539237,0.000703829,-0.157039046,0.000114458,-0.001164549,0.001035711,-0.033752430,-0.016651992,9.824879646
1784244387.122822,-0.007537584,0.000706169,-0.157037795,0.000341568,-0.000800528,0.000633547,-0.013890842,-0.046263110,9.794671059
1784244387.124823,-0.007535398,0.000708503,-0.157036528,0.000509245,-0.000267149,0.000630901,0.012332223,-0.068031304,9.784245491
1784244387.126829,-0.007539821,0.000710006,-0.157031834,0.000178459,0.000088858,0.000862747,0.004879101,-0.052369405,9.800478935
1784244387.128839,-0.007544084,0.000707641,-0.157027707,-0.000500406,0.000027723,0.001227732,-0.010216883,-0.077154219,9.784613609
1784244387.130827,-0.007539395,0.000705283,-0.157027811,-0.000328549,-0.000327992,0.001168013,-0.023147130,-0.069855087,9.789579391
1784244387.132832,-0.007541554,0.000700240,-0.157025844,-0.000060321,-0.000767775,0.000979314,-0.015488131,-0.070518062,9.742956161
1784244387.134897,-0.007544945,0.000703424,-0.157029092,-0.000420568,-0.000684851,0.000626591,0.000577344,-0.077091873,9.756379128
1784244387.136846,-0.007546195,0.000699351,-0.157035857,-0.000626554,-0.000549400,-0.000225565,0.009453808,-0.082029872,9.804775238
1784244387.138842,-0.007541663,0.000696352,-0.157038376,-0.000238847,-0.000870839,-0.000793683,0.002683280,-0.086311966,9.789049149
1784244387.140851,-0.007536559,0.000698574,-0.157036841,0.000517378,-0.000645564,-0.000644632,-0.000291905,-0.070374049,9.821429253
1784244387.142849,-0.007539680,0.000702822,-0.157035336,0.000548592,0.000008468,-0.000263370,-0.022068413,-0.055061605,9.786536217
1784244387.144899,-0.007541742,0.000705458,-0.157041267,0.000048051,0.000475666,-0.000491957,-0.028548874,-0.069922820,9.808851242
