time_sec,roll_rad,pitch_rad,yaw_rad,gyro_x,gyro_y,gyro_z,acc_x,acc_y,acc_z
1784244361.790679,-0.005137510,-0.003693322,-0.172161877,0.000726889,0.001421775,-0.000362246,0.036402989,-0.080135018,9.804812431
1784244361.792650,-0.005140929,-0.003692512,-0.172161937,0.000677388,0.000975210,0.000051351,0.047354661,-0.063835174,9.824206352
1784244361.794546,-0.005141160,-0.003690452,-0.172163025,0.000283814,0.000944168,-0.000043417,0.038997684,-0.051049475,9.805450439
1784244361.796534,-0.005141058,-0.003684641,-0.172163874,0.000235964,0.001261296,-0.000164338,0.036460947,-0.038440280,9.801046371
1784244361.798557,-0.005140319,-0.003679604,-0.172163382,0.000184327,0.001635831,-0.000143343,0.011576833,-0.055956658,9.788805008
1784244361.800550,-0.005141619,-0.003678554,-0.172161028,0.000052283,0.001584380,0.000086616,0.014912590,-0.038653612,9.806853294
1784244361.802548,-0.005139158,-0.003674891,-0.172159478,0.000117851,0.001472715,0.000326190,0.038672458,-0.041963685,9.788473129
1784244361.804522,-0.005133890,-0.003674508,-0.172160029,0.000563840,0.001388291,0.000302763,0.026336590,-0.060978565,9.775338173
1784244361.806510,-0.005131170,-0.003676143,-0.172166735,0.000904265,0.000970069,-0.000275873,0.044991106,-0.076101318,9.789155960
1784244361.808551,-0.005127868,-0.003680670,-0.172168702,0.001148384,0.000288011,-0.000789770,0.036865331,-0.044469465,9.766037941
1784244361.810583,-0.005121195,-0.003681827,-0.172167420,0.001596498,-0.000179098,-0.000621990,0.011846423,-0.032754894,9.801956177
1784244361.812568,-0.005126416,-0.003676752,-0.172170401,0.001261201,0.000136168,-0.000569370,0.034472566,-0.053724267,9.811707497
1784244361.814531,-0.005132423,-0.003667498,-0.172169954,0.000193024,0.001077020,-0.000582539,0.012295702,-0.032350831,9.807338715
1784244361.816519,-0.005132302,-0.003660624,-0.172172129,-0.000222310,0.001884171,-0.000536722,0.013581448,-0.036491945,9.820315361
1784244361.818520,-0.005128809,-0.003660868,-0.172170311,0.000082195,0.001781104,-0.000415972,0.032023799,-0.071931563,9.793205261
1784244361.820541,-0.005123960,-0.003659087,-0.172170341,0.000625401,0.001359685,-0.000185011,0.036254313,-0.054255631,9.820223808
1784244361.822520,-0.005126483,-0.003653769,-0.172178656,0.000611429,0.001475290,-0.000701024,0.060898576,-0.058895655,9.798248291
1784244361.824558,-0.005132330,-0.003647035,-0.172177106,-0.000026719,0.002033592,-0.000966979,0.044176389,-0.068547614,9.799516678
1784244361.826560,-0.005128796,-0.003639942,-0.172170490,-0.000076845,0.002555634,-0.000148522,0.035010446,-0.084536977,9.796265602
1784244361.828540,-0.005128866,-0.003636551,-0.172165498,0.000351457,0.002497504,0.000680685,0.049125403,-0.068505935,9.784724236
1784244361.830529,-0.005130939,-0.003636811,-0.172169819,0.000280126,0.001959852,0.000541261,0.014214392,-0.058043733,9.825556755
1784244361.832513,-0.005135437,-0.003639168,-0.172173396,-0.000244020,0.001252826,-0.000140474,0.018139703,-0.032339726,9.795238495
1784244361.834517,-0.005131878,-0.003642089,-0.172175080,-0.000321279,0.000517384,-0.000457336,0.008314342,-0.028607296,9.792116165
1784244361.836518,-0.005134461,-0.003642340,-0.172183424,-0.000248665,0.000126218,-0.001012089,0.000762359,-0.022641551,9.785869598
1784244361.838525,-0.005132840,-0.003637248,-0.172184780,-0.000317881,0.000256446,-0.001396049,0.034732759,-0.034649167,9.775066376
1784244361.840548,-0.005130579,-0.003646058,-0.172172666,-0.000034379,-0.000236780,-0.000288517,0.032844856,-0.040224284,9.806410789
1784244361.842518,-0.005133218,-0.003646582,-0.172171950,-0.000047489,-0.000810598,0.000661179,0.014897266,-0.079201236,9.775209427
1784244361.844514,-0.005128368,-0.003638281,-0.172177792,0.000192446,-0.000161828,0.000131839,0.008501455,-0.050941147,9.782109261
1784244361.846522,-0.005125107,-0.003633834,-0.172174916,0.000768337,0.000647569,-0.000106851,0.026344880,-0.058481578,9.802252769
1784244361.848516,-0.005130168,-0.003634742,-0.172172353,0.000457262,0.000683566,0.000292678,0.042864416,-0.029049989,9.792144775
1784244361.850525,-0.005127995,-0.003635844,-0.172175616,0.000155234,0.000335166,0.000166332,0.029480577,-0.020973193,9.814601898
1784244361.852522,-0.005128196,-0.003634536,-0.172178328,0.000245377,0.000260221,-0.000285256,0.032838065,-0.041088406,9.801922798
1784244361.854524,-0.005132576,-0.003635749,-0.172174171,-0.000196196,0.000225994,-0.000109476,0.032540694,-0.064509563,9.819705009
1784244361.856521,-0.005127221,-0.003636095,-0.172173709,-0.000139902,0.000087661,0.000235169,0.035944864,-0.043019067,9.815810204
1784244361.858522,-0.005120151,-0.003634426,-0.172177732,0.000663540,0.000144090,-0.000071279,0.027428824,-0.081236742,9.786864281
1784244361.860516,-0.005118740,-0.003628898,-0.172175393,0.000981634,0.000583286,-0.000166368,0.012293741,-0.067929931,9.833114624
1784244361.862555,-0.005116323,-0.003626831,-0.172169298,0.000977071,0.000937577,0.000450146,0.041120585,-0.060946085,9.807183266
1784244361.864543,-0.005112123,-0.003624817,-0.172168538,0.001152267,0.000960423,0.000789932,0.013036637,-0.082940005,9.800289154
1784244361.866528,-0.005113163,-0.003624300,-0.172166228,0.001044302,0.000873161,0.000783783,0.022548126,-0.037880857,9.810451508
1784244361.868631,-0.005116188,-0.003624041,-0.172159106,0.000402200,0.000633019,0.001210669,0.015971687,-0.025636077,9.801556587
1784244361.870538,-0.005115598,-0.003622213,-0.172159716,0.000044365,0.000548107,0.001323757,0.015189655,-0.015798051,9.805654526
1784244361.872572,-0.005109372,-0.003617262,-0.172161594,0.000494350,0.000860333,0.000795592,0.019421708,-0.037726145,9.794308662
1784244361.874539,-0.005101590,-0.003617601,-0.172157124,0.001198467,0.000847637,0.000753074,0.036652431,-0.059929084,9.798218727
1784244361.876536,-0.005097851,-0.003618462,-0.172154829,0.001543712,0.000442443,0.001008456,0.048396204,-0.053387754,9.802307129
1784244361.878551,-0.005095305,-0.003614031,-0.172151923,0.001619949,0.000635795,0.001088632,0.034734543,-0.068982951,9.814747810
1784244361.880540,-0.005089839,-0.003608006,-0.172158569,0.001790507,0.001247152,0.000536082,0.016761892,-0.034193814,9.806435585
1784244361.882543,-0.005088709,-0.003606976,-0.172161832,0.001749728,0.001390858,-0.000283579,0.034408398,-0.061120208,9.780724525
1784244361.884584,-0.005088816,-0.003606312,-0.172157899,0.001370292,0.001080909,-0.000161487,0.027687943,-0.058117636,9.811671257
1784244361.886552,-0.005083164,-0.003601362,-0.172153145,0.001402848,0.001118450,0.000470968,-0.005351339,-0.044234287,9.809038162
1784244361.888576,-0.005083406,-0.003592536,-0.172154516,0.001413447,0.001526138,0.000572766,0.012185441,-0.078105859,9.815115929
1784244361.890556,-0.005086578,-0.003590937,-0.172150061,0.000822059,0.001595717,0.000626655,0.007046092,-0.055839121,9.843497276
1784244361.892558,-0.005087585,-0.003589621,-0.172151998,0.000315890,0.001359452,0.000628090,0.020911090,-0.061233900,9.821059227
1784244361.894562,-0.005093860,-0.003584251,-0.172152072,-0.000176913,0.001352548,0.000322978,0.029640133,-0.043929890,9.829248428
1784244361.896557,-0.005093775,-0.003576856,-0.172147065,-0.000460242,0.001757806,0.000572461,0.026530571,-0.042831559,9.806387901
1784244361.898550,-0.005088833,-0.003572525,-0.172149748,0.000038688,0.002028535,0.000574672,0.031659290,-0.062750734,9.825991631
1784244361.900549,-0.005089651,-0.003576782,-0.172148794,0.000339989,0.001436124,0.000301008,0.026424354,-0.050964810,9.816200256
1784244361.902572,-0.005092378,-0.003583143,-0.172143877,0.000008437,0.000323322,0.000620478,0.027435267,-0.081185862,9.779691696
1784244361.904573,-0.005088404,-0.003586588,-0.172141284,0.000236510,-0.000511069,0.000962133,0.036078170,-0.071046039,9.787386894
1784244361.906561,-0.005083831,-0.003588775,-0.172147214,0.000895700,-0.000831705,0.000473284,0.020317433,-0.074530266,9.801695824
1784244361.908563,-0.005090491,-0.003584328,-0.172152340,0.000568866,-0.000567394,-0.000404847,0.023091426,-0.030655639,9.801531792
1784244361.910562,-0.005097073,-0.003578185,-0.172148421,-0.000424125,0.000187174,-0.000374708,0.024505420,-0.062458433,9.797742844
1784244361.912564,-0.005093003,-0.003571892,-0.172143653,-0.000477451,0.000977538,0.000317570,0.014580795,-0.068425350,9.772587776
1784244361.914567,-0.005094505,-0.003571306,-0.172141075,-0.000069168,0.001081063,0.000729708,0.023309316,-0.052341215,9.763284683
1784244361.916566,-0.005093905,-0.003568946,-0.172142431,-0.000008694,0.000891593,0.000612902,0.038449604,-0.024369797,9.771996498
1784244361.918566,-0.005089846,-0.003569067,-0.172138780,0.000216955,0.000841161,0.000600794,0.045790531,-0.046185885,9.802350998
1784244361.920573,-0.005087995,-0.003570705,-0.172133818,0.000467769,0.000530846,0.001023830,0.040713314,-0.056965925,9.815277100
1784244361.922581,-0.005082938,-0.003573700,-0.172132835,0.000811098,0.000070169,0.001150437,0.028884720,-0.072282054,9.785129547
1784244361.924574,-0.005073789,-0.003573143,-0.172127262,0.001587373,-0.000091332,0.001280579,0.005742963,-0.053861510,9.819747925
1784244361.926582,-0.005072963,-0.003570793,-0.172121748,0.001866772,0.000152204,0.001683824,0.029216975,-0.043317191,9.806836128
1784244361.928576,-0.005073327,-0.003572347,-0.172118083,0.001381651,0.000157825,0.001849170,0.035427857,-0.048820909,9.813531876
1784244361.930584,-0.005071179,-0.003572395,-0.172115475,0.001117366,0.000000184,0.001770294,0.027905388,-0.041406356,9.792500496
1784244361.932598,-0.005065845,-0.003573803,-0.172113433,0.001323038,-0.000100285,0.001605235,0.019249547,-0.016084719,9.775618553
1784244361.934620,-0.005067768,-0.003578422,-0.172111169,0.001125506,-0.000529604,0.001464403,0.046055339,-0.023832344,9.808769226
1784244361.936594,-0.005070609,-0.003574433,-0.172113076,0.000425697,-0.000474720,0.001092197,0.065092258,-0.047589384,9.775908470
1784244361.938590,-0.005070892,-0.003575439,-0.172116578,0.000102126,-0.000020330,0.000426513,0.033900309,-0.067662172,9.756470680
1784244361.940592,-0.005072740,-0.003578091,-0.172118306,-0.000066193,-0.000140129,-0.000042783,0.031272314,-0.061041810,9.775341988
1784244361.942598,-0.005073520,-0.003579430,-0.172118381,-0.000227093,-0.000372421,-0.000150855,0.012069732,-0.051155660,9.805872917
1784244361.944593,-0.005072771,-0.003576310,-0.172121897,-0.000159702,-0.000218873,-0.000353856,0.031395230,-0.049534723,9.795142174
1784244361.946590,-0.005072990,-0.003575534,-0.172122762,-0.000072759,0.000036902,-0.000555034,0.040637992,-0.063234195,9.814788818
1784244361.948599,-0.005076821,-0.003580839,-0.172114894,-0.000306017,-0.000282307,0.000071351,0.016494265,-0.056569610,9.803152084
1784244361.950614,-0.005076785,-0.003581655,-0.172116846,-0.000458860,-0.000622584,0.000454885,0.000028026,-0.043937985,9.820701599
1784244361.952606,-0.005079647,-0.003577935,-0.172116071,-0.000526245,-0.000255985,0.000250380,0.033163115,-0.050580833,9.813070297
1784244361.954600,-0.005084576,-0.003576159,-0.172110587,-0.000936772,0.000137872,0.000606983,0.039780866,-0.060067888,9.812118530
1784244361.956603,-0.005088341,-0.003579065,-0.172104016,-0.001295903,-0.000026975,0.001261292,0.043623321,-0.039475877,9.807770729
1784244361.958610,-0.005082972,-0.003584535,-0.172094524,-0.000911806,-0.000569669,0.002007398,0.018255424,-0.021699946,9.810998917
1784244361.960606,-0.005076836,-0.003585687,-0.172092453,0.000039044,-0.000844376,0.002245786,0.028087683,-0.026188392,9.794391632
1784244361.962615,-0.005080546,-0.003585407,-0.172089607,0.000194332,-0.000675950,0.001969353,0.017256271,-0.068186760,9.797250748
1784244361.964618,-0.005078723,-0.003585654,-0.172086477,0.000071863,-0.000587154,0.001839619,0.024314912,-0.040556654,9.805503845
1784244361.966615,-0.005082936,-0.003582716,-0.172083363,-0.000051608,-0.000342217,0.001764110,-0.010711031,-0.043564714,9.787517548
1784244361.968617,-0.005085755,-0.003577468,-0.172087401,-0.000552503,0.000185623,0.001222998,0.020139189,-0.014536491,9.808357239
1784244361.970666,-0.005086197,-0.003574564,-0.172091678,-0.000663073,0.000570506,0.000323759,0.051032148,-0.020734418,9.805208206
1784244361.972642,-0.005085316,-0.003573264,-0.172097310,-0.000455651,0.000704455,-0.000439997,0.021403803,-0.059676375,9.790135384
1784244361.974646,-0.005087981,-0.003574539,-0.172093168,-0.000490628,0.000440517,-0.000421036,0.015083652,-0.061924715,9.802668571
1784244361.976670,-0.005097552,-0.003573403,-0.172088474,-0.001223091,0.000233548,0.000295591,0.019216152,-0.092338637,9.787682533
1784244361.978633,-0.005102369,-0.003572651,-0.172094405,-0.001662492,0.000283954,0.000132949,0.033427157,-0.066633694,9.801759720
1784244361.980632,-0.005093797,-0.003573028,-0.172097385,-0.000752914,0.000220630,-0.000507641,0.027175836,-0.027101431,9.798419952
1784244361.982640,-0.005091644,-0.003573604,-0.172096670,0.000179029,0.000096831,-0.000523013,0.051308401,-0.035475194,9.798390388
1784244361.984673,-0.005090734,-0.003575561,-0.172100216,0.000242550,-0.000058496,-0.000571656,0.038398974,-0.026390577,9.804263115
1784244361.986638,-0.005093377,-0.003580057,-0.172106192,-0.000038442,-0.000435342,-0.001060376,0.026313998,-0.022756593,9.819069862
1784244361.988661,-0.005095684,-0.003584870,-0.172104433,-0.000518707,-0.001033098,-0.001057606,0.037680078,-0.008759519,9.846519470
1784244361.990650,-0.005102892,-0.003589323,-0.172104284,-0.001176922,-0.001467777,-0.000640882,0.041478150,-0.030970847,9.812755585
1784244361.992646,-0.005105504,-0.003590108,-0.172108620,-0.001524972,-0.001423324,-0.000750274,0.027914597,-0.040523145,9.794299126
1784244361.994655,-0.005102654,-0.003590236,-0.172103360,-0.001125178,-0.001094102,-0.000484288,0.019499674,-0.031842239,9.785828590
1784244361.996649,-0.005098911,-0.003593478,-0.172105581,-0.000402130,-0.001021801,-0.000146353,0.029162068,-0.050640002,9.765542030
1784244361.998648,-0.005097917,-0.003594756,-0.172106996,0.000034317,-0.001055386,-0.000352091,0.025501624,-0.054800540,9.790169716
1784244362.000653,-0.005097380,-0.003593201,-0.172099039,0.000137171,-0.000757753,0.000185454,0.014417396,-0.042256989,9.810416222
1784244362.002682,-0.005097814,-0.003589766,-0.172103629,0.000107653,-0.000214491,0.000362080,0.019053496,-0.068190679,9.794562340
1784244362.004663,-0.005097729,-0.003588097,-0.172116444,0.000124525,0.000081496,-0.000917786,0.042076327,-0.056849621,9.796449661
1784244362.006700,-0.005098738,-0.003592074,-0.172127470,0.000096241,-0.000203765,-0.002286253,0.047582228,-0.047854461,9.781718254
1784244362.008670,-0.005098061,-0.003589436,-0.172126710,0.000039602,-0.000200841,-0.002361408,0.031582367,-0.031441770,9.833814621
1784244362.010665,-0.005094571,-0.003590026,-0.172126800,0.000306444,0.000027419,-0.001674284,0.007001254,-0.063082442,9.790996552
1784244362.012669,-0.005094285,-0.003595612,-0.172134340,0.000477669,-0.000396588,-0.001736653,0.027982660,-0.071902074,9.796339989
1784244362.014668,-0.005100877,-0.003597810,-0.172144249,0.000005053,-0.000910927,-0.002452099,0.045594770,-0.061915405,9.809421539
1784244362.016668,-0.005103462,-0.003595943,-0.172148317,-0.000533221,-0.000780986,-0.002736117,0.040428307,-0.046752084,9.765579224
1784244362.018665,-0.005106027,-0.003595779,-0.172141716,-0.000726243,-0.000425348,-0.001822038,0.016082337,-0.052220985,9.822458267
1784244362.020673,-0.005105495,-0.003602165,-0.172147408,-0.000655689,-0.000725857,-0.001267235,0.004094936,-0.043763977,9.788875580
1784244362.022679,-0.005107309,-0.003602165,-0.172149882,-0.000566851,-0.000959414,-0.001476850,0.037832938,-0.037037328,9.790296555
1784244362.024669,-0.005113014,-0.003599043,-0.172147006,-0.000912720,-0.000516699,-0.001049132,0.053138651,-0.032381535,9.801100731
1784244362.026678,-0.005113056,-0.003602784,-0.172140986,-0.001042244,-0.000451037,-0.000161123,0.013742324,-0.061059244,9.809397697
1784244362.028683,-0.005112418,-0.003610085,-0.172140285,-0.000728228,-0.001126689,0.000337986,0.025891870,-0.057294108,9.825125694
1784244362.030678,-0.005111287,-0.003609320,-0.172144100,-0.000422232,-0.001309645,0.000035510,0.045148026,-0.026330553,9.783647537
1784244362.032683,-0.005114434,-0.003608512,-0.172145233,-0.000445691,-0.000845522,-0.000308266,0.051605817,-0.047617227,9.804140091
1784244362.034689,-0.005115310,-0.003609385,-0.172148496,-0.000625581,-0.000505880,-0.000522850,0.030358978,-0.060750872,9.799102783
1784244362.036685,-0.005115722,-0.003606211,-0.172157034,-0.000572865,-0.000095344,-0.001183422,0.029005328,-0.062414180,9.783399582
1784244362.038707,-0.005120902,-0.003610159,-0.172161400,-0.000736671,-0.000117635,-0.001738960,0.022401966,-0.051192511,9.792432785
1784244362.040693,-0.005124131,-0.003615716,-0.172160447,-0.001044791,-0.000729797,-0.001497419,0.005935998,-0.077364370,9.785076141
1784244362.042694,-0.005124303,-0.003613079,-0.172165826,-0.000993017,-0.000728305,-0.001390735,0.006301108,-0.045708567,9.806349754
1784244362.044693,-0.005120066,-0.003609732,-0.172170922,-0.000442621,-0.000226223,-0.001724602,0.033137977,-0.016431466,9.799389839
1784244362.046699,-0.005121899,-0.003608940,-0.172169164,-0.000152677,0.000011753,-0.001481310,0.042409163,-0.027474968,9.823538780
1784244362.048698,-0.005120723,-0.003612014,-0.172170311,-0.000234689,-0.000119369,-0.001035460,0.051011130,-0.060516503,9.791953087
1784244362.050705,-0.005111880,-0.003611598,-0.172172725,0.000429239,-0.000238921,-0.000998475,0.041168220,-0.059354182,9.772222519
1784244362.052702,-0.005110211,-0.003609514,-0.172175169,0.001025105,-0.000002685,-0.001059812,0.028197404,-0.053996351,9.798249245
1784244362.054717,-0.005111526,-0.003610894,-0.172178701,0.000716745,0.000051865,-0.001178537,0.022196652,-0.068618476,9.786043167
1784244362.056708,-0.005113909,-0.003611687,-0.172176927,0.000218079,-0.000105204,-0.000977730,0.034909293,-0.055445544,9.800935745
1784244362.058706,-0.005115540,-0.003613404,-0.172170877,-0.000092714,-0.000242176,-0.000181621,0.029015070,-0.057474259,9.844854355
1784244362.060705,-0.005121734,-0.003618141,-0.172162771,-0.000576201,-0.000611832,0.000829667,0.011904874,-0.065020204,9.802644730
1784244362.062710,-0.005125738,-0.003619980,-0.172158867,-0.001109056,-0.000896288,0.001421594,0.035906710,-0.047778115,9.792019844
1784244362.064709,-0.005128753,-0.003620982,-0.172160536,-0.001294418,-0.000885612,0.001186426,0.039401717,-0.057891920,9.758779526
1784244362.066714,-0.005133776,-0.003619626,-0.172158748,-0.001499082,-0.000660208,0.000871796,0.010160933,-0.025789907,9.770615578
1784244362.068715,-0.005137256,-0.003616646,-0.172161743,-0.001771981,-0.000260125,0.000553449,0.038639896,-0.008278178,9.777031898
1784244362.070726,-0.005142601,-0.003622178,-0.172163218,-0.001993411,-0.000435076,0.000102281,0.051316720,-0.074215084,9.764515877
1784244362.072723,-0.005143400,-0.003625903,-0.172164366,-0.001869850,-0.000944355,-0.000101702,0.044325661,-0.056427225,9.796006203
1784244362.074720,-0.005140809,-0.003624961,-0.172169477,-0.001231975,-0.000869737,-0.000499674,0.048271101,-0.065317370,9.778917313
1784244362.076724,-0.005136754,-0.003622641,-0.172169521,-0.000437552,-0.000405396,-0.000714577,0.008234872,-0.070877187,9.813812256
1784244362.078730,-0.005132402,-0.003620628,-0.172171682,0.000284554,-0.000141887,-0.000672750,0.024212716,-0.048658103,9.810832024
1784244362.080724,-0.005135923,-0.003628039,-0.172169954,0.000296862,-0.000611129,-0.000520417,0.019548638,-0.063777231,9.803108215
1784244362.082734,-0.005133763,-0.003624909,-0.172163337,0.000125941,-0.000738689,0.000187173,0.035015225,-0.083688736,9.802995682
1784244362.084776,-0.005128459,-0.003619982,-0.172158584,0.000715009,-0.000012564,0.000906913,0.041570716,-0.061345741,9.799559593
1784244362.086739,-0.005128693,-0.003619208,-0.172156781,0.000980453,0.000358176,0.001105161,0.038168002,-0.045640185,9.802347183
1784244362.088739,-0.005132955,-0.003624195,-0.172158778,0.000408951,0.000027296,0.000793724,0.028515326,-0.027576186,9.799762726
1784244362.090775,-0.005138289,-0.003629989,-0.172162622,-0.000354851,-0.000657655,0.000184732,0.052234624,-0.032827538,9.802442551
1784244362.092744,-0.005140758,-0.003637678,-0.172159001,-0.000788163,-0.001394277,0.000119048,0.080358326,-0.046488669,9.782654762
1784244362.094759,-0.005137216,-0.003642491,-0.172153518,-0.000506389,-0.001725225,0.000705106,0.057228018,-0.027572485,9.810549736
1784244362.096753,-0.005132949,-0.003643887,-0.172151163,0.000155759,-0.001538709,0.001044892,0.032746114,-0.048703749,9.801874161
1784244362.098749,-0.005128424,-0.003647959,-0.172150701,0.000728179,-0.001509697,0.000948986,0.006963970,-0.065808363,9.796359062
1784244362.100749,-0.005127393,-0.003656209,-0.172154263,0.000924116,-0.001951723,0.000479048,0.028366508,-0.078093432,9.784195900
1784244362.102752,-0.005130056,-0.003657796,-0.172151446,0.000562191,-0.002089296,0.000299395,0.044539601,-0.038527861,9.798811913
1784244362.104753,-0.005130063,-0.003658254,-0.172148347,0.000212899,-0.001651385,0.000622677,0.033126578,-0.017737197,9.794002533
1784244362.106769,-0.005133027,-0.003661432,-0.172142893,-0.000061240,-0.001441261,0.001038065,0.018651407,-0.063359112,9.808938980
1784244362.108757,-0.005136962,-0.003660356,-0.172140568,-0.000459690,-0.001285713,0.001286213,0.019298857,-0.047206469,9.804559708
1784244362.110833,-0.005137691,-0.003658775,-0.172143549,-0.000600423,-0.000846481,0.000891382,0.032401565,-0.039770570,9.806414604
1784244362.112768,-0.005137391,-0.003660918,-0.172147349,-0.000468281,-0.000652486,0.000188231,0.032104012,-0.063598365,9.818366051
1784244362.114766,-0.005135609,-0.003662041,-0.172149256,-0.000192567,-0.000621535,-0.000252129,0.023283076,-0.089327782,9.798015594
1784244362.116767,-0.005124718,-0.003663249,-0.172141075,0.000730286,-0.000539757,0.000240881,0.015860517,-0.035024181,9.798806190
1784244362.118790,-0.005116358,-0.003665349,-0.172134459,0.001706196,-0.000702988,0.001176933,0.012036715,-0.051416393,9.842634201
1784244362.120775,-0.005114752,-0.003669892,-0.172138274,0.001783781,-0.001044079,0.001044261,0.040429350,-0.044312336,9.800564766
1784244362.122775,-0.005112068,-0.003672327,-0.172140509,0.001589207,-0.001232202,0.000351839,0.023765106,-0.049859516,9.791545868
1784244362.124778,-0.005106962,-0.003671202,-0.172144279,0.001667533,-0.001083633,-0.000150642,0.037085481,-0.060868908,9.803593636
1784244362.126780,-0.005103980,-0.003670988,-0.172146976,0.001744709,-0.000795405,-0.000551764,0.015074913,-0.026024841,9.794828415
1784244362.128777,-0.005108690,-0.003672265,-0.172144726,0.001057121,-0.000723953,-0.000430738,0.034639601,-0.042274047,9.776361465
1784244362.130780,-0.005110807,-0.003673592,-0.172143742,0.000210935,-0.000777723,-0.000090985,0.032521237,-0.068715736,9.781121254
1784244362.132790,-0.005110802,-0.003677059,-0.172145128,0.000010151,-0.000891821,-0.000095961,0.006931624,-0.070116274,9.772121429
1784244362.134787,-0.005110241,-0.003675391,-0.172148958,0.000100278,-0.000921499,-0.000423845,0.039158434,-0.076833472,9.776592255
1784244362.136790,-0.005109417,-0.003676482,-0.172149256,0.000221754,-0.000782170,-0.000589513,0.030026963,-0.087282322,9.813280106
1784244362.138783,-0.005117170,-0.003679357,-0.172156289,-0.000160854,-0.000818257,-0.000928337,0.032596171,-0.059613794,9.824219704
1784244362.140784,-0.005128299,-0.003679785,-0.172160968,-0.001252066,-0.000798016,-0.001465027,0.050352342,-0.044031817,9.743188858
1784244362.142795,-0.005132225,-0.003679229,-0.172165811,-0.001936534,-0.000569357,-0.001710218,0.071315065,-0.050567500,9.805484772
1784244362.144798,-0.005133261,-0.003685105,-0.172166467,-0.001733839,-0.000699991,-0.001618602,0.078263149,-0.032725755,9.804261208
1784244362.146793,-0.005133034,-0.003689112,-0.172161549,-0.001301829,-0.001108304,-0.000885237,0.049784601,-0.050234299,9.797396660
1784244362.148790,-0.005133932,-0.003694330,-0.172161117,-0.001005757,-0.001441997,-0.000279012,0.041690756,-0.051887684,9.792447090
1784244362.150796,-0.005133381,-0.003699654,-0.172168136,-0.000771013,-0.001770308,-0.000650159,0.049835753,-0.046993647,9.782623291
1784244362.152807,-0.005131798,-0.003703672,-0.172167152,-0.000418324,-0.001921665,-0.000883655,0.047948599,-0.051752329,9.825181961
1784244362.154798,-0.005126980,-0.003704376,-0.172166690,0.000094401,-0.001677800,-0.000545924,0.021057643,-0.050755914,9.796467781
1784244362.156796,-0.005122111,-0.003703120,-0.172171250,0.000689678,-0.001140230,-0.000676621,0.037180614,-0.014828090,9.818682671
1784244362.158803,-0.005117508,-0.003709221,-0.172172949,0.001046878,-0.001160887,-0.000918665,0.036639318,-0.024874253,9.783199310
1784244362.160807,-0.005115398,-0.003714040,-0.172172502,0.001120994,-0.001590014,-0.000754610,0.037482057,-0.064528301,9.813432693
1784244362.162806,-0.005113482,-0.003713550,-0.172174424,0.001089506,-0.001451616,-0.000650773,0.022247696,-0.063757680,9.795491219
1784244362.164812,-0.005115543,-0.003712939,-0.172175005,0.000835608,-0.000987877,-0.000645680,0.026633102,-0.036753692,9.770560265
1784244362.166812,-0.005116859,-0.003715067,-0.172175914,0.000431571,-0.000828121,-0.000571104,0.025508184,-0.053532973,9.800938606
1784244362.168846,-0.005117333,-0.003721141,-0.172176793,0.000240490,-0.001198721,-0.000537376,0.032595925,-0.062047191,9.788337708
1784244362.170815,-0.005119167,-0.003722732,-0.172179028,0.000065738,-0.001431764,-0.000602916,0.027431132,-0.044844385,9.772751808
1784244362.172816,-0.005120957,-0.003723522,-0.172187090,-0.000200741,-0.001201062,-0.001136050,0.035759859,-0.059879422,9.792838097
1784244362.174819,-0.005122180,-0.003723202,-0.172189295,-0.000321771,-0.000961788,-0.001523919,0.055408441,-0.068576887,9.783386230
1784244362.176824,-0.005121036,-0.003718464,-0.172188252,-0.000208451,-0.000415433,-0.001190323,0.035793237,-0.055968601,9.809900284
1784244362.178820,-0.005125103,-0.003711500,-0.172190681,-0.000337348,0.000488950,-0.000962869,0.033605535,-0.053067666,9.783913612
1784244362.180825,-0.005126088,-0.003707797,-0.172191814,-0.000576315,0.001078236,-0.000942203,0.012362381,-0.064145923,9.804892540
1784244362.182821,-0.005130078,-0.003712546,-0.172195390,-0.000758804,0.000716094,-0.001003779,0.028274404,-0.045688588,9.826994896
1784244362.184850,-0.005133488,-0.003719119,-0.172200263,-0.001044155,-0.000318495,-0.001305897,0.047945485,-0.053397905,9.804547310
1784244362.186835,-0.005131357,-0.003720493,-0.172197163,-0.000834757,-0.000845459,-0.001072766,0.032124728,-0.063029565,9.801332474
1784244362.188878,-0.005132975,-0.003720206,-0.172194824,-0.000478274,-0.000658560,-0.000412030,0.046401314,-0.070749395,9.790087700
1784244362.190843,-0.005135861,-0.003721519,-0.172198921,-0.000560916,-0.000515727,-0.000418596,0.039826714,-0.058895338,9.773121834
1784244362.192848,-0.005137963,-0.003724695,-0.172203809,-0.000749427,-0.000677290,-0.000912461,0.019696223,-0.053696334,9.771342278
1784244362.194859,-0.005138798,-0.003724070,-0.172204152,-0.000723285,-0.000672305,-0.001018569,0.024235038,-0.048076596,9.792005539
1784244362.196835,-0.005137968,-0.003723837,-0.172203138,-0.000503789,-0.000439280,-0.000697131,0.035505716,-0.041316859,9.829272270
1784244362.198874,-0.005139859,-0.003728952,-0.172210962,-0.000473321,-0.000643013,-0.000970704,0.044657670,-0.029895771,9.781830788
1784244362.200855,-0.005144296,-0.003729710,-0.172221661,-0.000811582,-0.000854670,-0.001965203,0.062716350,-0.021147447,9.779213905
1784244362.202852,-0.005140767,-0.003726853,-0.172221988,-0.000655622,-0.000476321,-0.002180629,0.015996721,-0.023412170,9.803812981
1784244362.204845,-0.005132747,-0.003726783,-0.172218308,0.000160742,-0.000214252,-0.001361725,0.011955918,-0.025406277,9.776448250
1784244362.206849,-0.005129822,-0.003729224,-0.172216281,0.000715007,-0.000383882,-0.000604769,0.000879556,-0.050795719,9.775378227
1784244362.208847,-0.005131260,-0.003729470,-0.172218248,0.000648658,-0.000590056,-0.000433630,-0.007897873,-0.070508055,9.790933609
1784244362.210846,-0.005135748,-0.003733148,-0.172225788,0.000094690,-0.000820811,-0.000960074,0.024570677,-0.056269653,9.809439659
1784244362.212857,-0.005135974,-0.003732372,-0.172225580,-0.000252834,-0.000792412,-0.001197985,0.040479936,-0.038644638,9.822567940
1784244362.214855,-0.005135850,-0.003727679,-0.172218978,-0.000231265,-0.000240576,-0.000411159,0.038831491,-0.066140242,9.785627365
1784244362.216868,-0.005137112,-0.003721858,-0.172214493,-0.000284860,0.000502392,0.000452654,0.033482522,-0.060117766,9.830494881
1784244362.218859,-0.005138968,-0.003722085,-0.172219351,-0.000361705,0.000724818,0.000303869,0.040615484,-0.067059167,9.785623550
1784244362.220866,-0.005134983,-0.003723481,-0.172214374,-0.000061449,0.000396812,0.000229420,0.057937533,-0.081246495,9.796308517
1784244362.222866,-0.005129661,-0.003725684,-0.172212049,0.000588845,0.000042226,0.000662625,0.052497752,-0.084856577,9.809731483
1784244362.224864,-0.005131129,-0.003732175,-0.172215611,0.000825621,-0.000515976,0.000398505,0.043665830,-0.074298590,9.790062904
1784244362.226869,-0.005129816,-0.003735396,-0.172212794,0.000726053,-0.000991905,0.000241381,0.056297053,-0.066631556,9.823299408
1784244362.228873,-0.005127693,-0.003733903,-0.172205910,0.000820192,-0.000822751,0.000834078,0.030340333,-0.062113836,9.801785469
1784244362.230865,-0.005131152,-0.003731246,-0.172196388,0.000566547,-0.000302835,0.001718845,0.030959990,-0.049017422,9.786177635
1784244362.232875,-0.005132985,-0.003729396,-0.172192484,0.000056818,0.000080640,0.002164328,0.027809877,-0.047023539,9.826538086
1784244362.234872,-0.005133891,-0.003732209,-0.172186464,-0.000137445,-0.000036455,0.002252257,0.024522237,-0.023114778,9.809651375
1784244362.236872,-0.005133661,-0.003734098,-0.172178552,-0.000137709,-0.000376930,0.002585893,0.031349890,-0.052324239,9.809470177
1784244362.238876,-0.005129140,-0.003730709,-0.172174886,0.000265108,-0.000178332,0.002669605,0.034895487,-0.056770355,9.798236847
1784244362.240876,-0.005135237,-0.003729078,-0.172171235,0.000127881,0.000206749,0.002442414,0.048555072,-0.040380992,9.800148010
1784244362.242877,-0.005140566,-0.003733018,-0.172172680,-0.000681814,-0.000006945,0.001930043,0.047411289,-0.023366651,9.803843498
1784244362.244879,-0.005136403,-0.003735760,-0.172172248,-0.000713222,-0.000401303,0.001339722,0.054368757,-0.041825049,9.803730965
1784244362.246879,-0.005132126,-0.003734243,-0.172166407,-0.000082325,-0.000320643,0.001400166,0.021256164,-0.034194067,9.798368454
1784244362.248889,-0.005128418,-0.003730577,-0.172163516,0.000452908,0.000078291,0.001608681,0.037138529,-0.058829051,9.768636703
1784244362.250887,-0.005123382,-0.003732516,-0.172157198,0.000894436,0.000134142,0.001795460,0.061434574,-0.050917592,9.809508324
1784244362.252890,-0.005122253,-0.003733075,-0.172163144,0.001070154,-0.000071934,0.001334210,0.036434248,-0.039866827,9.812693596
1784244362.254893,-0.005127474,-0.003730696,-0.172165066,0.000515808,0.000094717,0.000439269,0.021758955,-0.029720210,9.798398018
1784244362.256892,-0.005131464,-0.003726445,-0.172152892,-0.000230978,0.000536278,0.001016075,0.049433433,-0.041758630,9.803278923
1784244362.258890,-0.005133860,-0.003726374,-0.172151387,-0.000560371,0.000692204,0.001670364,0.054417305,-0.076600067,9.779298782
1784244362.260897,-0.005136517,-0.003726107,-0.172146648,-0.000711642,0.000537949,0.001640204,0.035279226,-0.061341561,9.810312271
1784244362.262897,-0.005139919,-0.003725029,-0.172149137,-0.000929081,0.000482391,0.001347602,0.032804579,-0.043379083,9.809080124
1784244362.264907,-0.005141582,-0.003727888,-0.172144189,-0.001036213,0.000171266,0.001151070,0.033053838,-0.061169736,9.790137291
1784244362.266898,-0.005135296,-0.003733294,-0.172130689,-0.000452606,-0.000501141,0.002089575,0.025838185,-0.061770543,9.824647903
1784244362.268900,-0.005130580,-0.003731657,-0.172131255,0.000465108,-0.000669983,0.002396749,0.055023499,-0.064015210,9.772654533
1784244362.270901,-0.005135026,-0.003728711,-0.172133982,0.000401092,-0.000220357,0.001521388,0.051539816,-0.054622442,9.781229973
1784244362.272904,-0.005128610,-0.003730127,-0.172134578,0.000425020,-0.000055563,0.000882902,0.050405867,-0.037125178,9.779996872
1784244362.274903,-0.005119824,-0.003731976,-0.172132462,0.001306358,-0.000234807,0.000742409,0.067927122,-0.035960998,9.773743629
1784244362.276909,-0.005116594,-0.003733621,-0.172135457,0.001731648,-0.000380051,0.000477169,0.030397885,-0.020422263,9.798466682
1784244362.278914,-0.005115652,-0.003728780,-0.172135517,0.001449097,-0.000118602,0.000140635,0.019193782,-0.057356946,9.782974243
1784244362.280919,-0.005117730,-0.003725335,-0.172132656,0.000884423,0.000415280,0.000293957,0.061241746,-0.068244994,9.789221764
1784244362.282921,-0.005127296,-0.003724728,-0.172129840,-0.000144644,0.000575661,0.000601965,0.016555199,-0.052035950,9.795559883
1784244362.284955,-0.005137365,-0.003724258,-0.172130764,-0.001438420,0.000483923,0.000571594,0.010215305,-0.057276938,9.787898064
1784244362.286940,-0.005138409,-0.003726123,-0.172132164,-0.001803444,0.000250644,0.000260630,0.020105172,-0.055637009,9.791504860
1784244362.288976,-0.005136112,-0.003732823,-0.172134668,-0.001189451,-0.000504094,-0.000076075,0.036363747,-0.048933789,9.764662743
1784244362.290939,-0.005135795,-0.003733111,-0.172137901,-0.000650293,-0.000946133,-0.000446977,0.062281918,-0.055376910,9.804997444
1784244362.292938,-0.005137600,-0.003728609,-0.172134221,-0.000574592,-0.000403319,-0.000297669,0.035053905,-0.042956695,9.808637619
1784244362.294940,-0.005136890,-0.003725122,-0.172132701,-0.000481338,0.000241701,0.000137484,0.020446457,-0.026195588,9.809180260
1784244362.296950,-0.005131308,-0.003729447,-0.172133029,0.000087036,0.000113882,0.000181176,0.022505660,-0.041458189,9.809530258
1784244362.298938,-0.005133559,-0.003730702,-0.172134444,0.000262638,-0.000335428,0.000012072,0.047515538,-0.053649347,9.777646065
1784244362.300934,-0.005133500,-0.003729661,-0.172136620,0.000015099,-0.000297939,-0.000236045,0.027921496,-0.076032296,9.810212135
1784244362.302939,-0.005134287,-0.003732854,-0.172138870,-0.000039519,-0.000361647,-0.000471259,0.031408746,-0.049833242,9.774068832
1784244362.304940,-0.005136971,-0.003737334,-0.172138467,-0.000247135,-0.000839335,-0.000464761,0.073175460,-0.046425298,9.786684036
1784244362.306939,-0.005135268,-0.003735244,-0.172146469,-0.000230813,-0.000826714,-0.000854891,0.054070007,-0.030909250,9.781384468
1784244362.308945,-0.005133429,-0.003730102,-0.172159284,0.000062820,-0.000041058,-0.002036914,0.037959360,-0.026718324,9.788120270
1784244362.310945,-0.005132319,-0.003729605,-0.172159865,0.000238186,0.000420605,-0.002393233,0.037948087,-0.026807355,9.800673485
1784244362.312957,-0.005133326,-0.003729083,-0.172163144,0.000179487,0.000376964,-0.002005355,0.048650183,-0.069520108,9.802203178
1784244362.314948,-0.005128624,-0.003728983,-0.172170117,0.000427816,0.000416685,-0.002155173,0.013362488,-0.092426062,9.810540199
1784244362.316950,-0.005120582,-0.003730146,-0.172174931,0.001222509,0.000331673,-0.002372284,0.020157527,-0.087139942,9.811029434
1784244362.318953,-0.005118062,-0.003733595,-0.172180876,0.001725044,-0.000089861,-0.002460365,0.035319962,-0.058993649,9.795084953
1784244362.320953,-0.005119059,-0.003732807,-0.172185183,0.001477716,-0.000264556,-0.002488664,0.054689426,-0.052162521,9.807701111
1784244362.322978,-0.005116770,-0.003727274,-0.172195584,0.001160466,0.000241511,-0.002812850,0.057088248,-0.040023182,9.797468185
1784244362.324973,-0.005115265,-0.003727084,-0.172197506,0.001110145,0.000643228,-0.002886078,0.042653121,-0.047333714,9.780371666
1784244362.326968,-0.005118783,-0.003734229,-0.172195792,0.000682467,0.000071038,-0.002114481,0.046231233,-0.047065299,9.799207687
1784244362.328972,-0.005121577,-0.003736954,-0.172197700,0.000006397,-0.000611854,-0.001554441,0.016033590,-0.058279395,9.792381287
1784244362.330974,-0.005122566,-0.003734310,-0.172199920,-0.000315534,-0.000443542,-0.001413255,0.016842745,-0.026260877,9.824867249
1784244362.332971,-0.005119590,-0.003734098,-0.172201574,-0.000095973,-0.000127945,-0.001290554,0.032590583,-0.025715252,9.782742500
1784244362.334975,-0.005116302,-0.003735835,-0.172201663,0.000259382,-0.000189015,-0.001058064,0.016056260,-0.056884639,9.785216331
1784244362.336975,-0.005108406,-0.003727184,-0.172208562,0.000850789,0.000341098,-0.001246004,0.038488675,-0.055977661,9.806316376
1784244362.338970,-0.005107639,-0.003720137,-0.172213912,0.001235075,0.001359968,-0.001740501,0.018069265,-0.039379917,9.777260780
1784244362.340972,-0.005114767,-0.003723253,-0.172224402,0.000494374,0.001304683,-0.002341476,0.054324571,-0.009041828,9.793181419
1784244362.342977,-0.005113371,-0.003723020,-0.172228977,-0.000032729,0.000759964,-0.002727915,0.054750353,-0.050465699,9.757946014
1784244362.344987,-0.005112222,-0.003723409,-0.172228262,0.000144647,0.000604429,-0.002249019,0.042499252,-0.059895713,9.782980919
1784244362.346985,-0.005114619,-0.003726588,-0.172228366,0.000017481,0.000258017,-0.001594974,0.004273192,-0.066167779,9.788732529
1784244362.348982,-0.005119265,-0.003723474,-0.172239587,-0.000397658,0.000104113,-0.001930805,0.028258853,-0.085832775,9.801630974
1784244362.350986,-0.005116254,-0.003722197,-0.172244936,-0.000334314,0.000296253,-0.002534213,0.042423353,-0.066573791,9.777111053
1784244362.352989,-0.005108770,-0.003720184,-0.172239929,0.000468709,0.000439312,-0.001871410,0.028166672,-0.058291547,9.772216797
1784244362.354990,-0.005109768,-0.003710005,-0.172235712,0.000751030,0.001118782,-0.000735976,0.012573437,-0.083048716,9.816429138
1784244362.357031,-0.005120382,-0.003707529,-0.172232613,-0.000272197,0.001645793,-0.000036961,0.033909641,-0.062725432,9.818371773
1784244362.359011,-0.005125742,-0.003709796,-0.172232717,-0.001242248,0.001259943,0.000178790,0.056668989,-0.075348526,9.788275719
1784244362.361006,-0.005121105,-0.003706414,-0.172238842,-0.000916098,0.001043589,-0.000293850,0.051723555,-0.036961555,9.817657471
1784244362.363008,-0.005115726,-0.003703845,-0.172237024,0.000011327,0.001165751,-0.000509145,0.029222425,-0.081269272,9.788211823
1784244362.365009,-0.005113974,-0.003698836,-0.172240242,0.000579747,0.001416676,-0.000466684,-0.016338456,-0.063650794,9.786936760
1784244362.367006,-0.005110646,-0.003692524,-0.172245070,0.000853015,0.001855746,-0.000885842,0.020057762,-0.057632357,9.820185661
1784244362.369008,-0.005110484,-0.003689481,-0.172247246,0.000886861,0.001960953,-0.001120446,0.038635239,-0.042662833,9.823885918
1784244362.371009,-0.005107606,-0.003692725,-0.172238842,0.000884249,0.001384384,-0.000392445,0.048206672,-0.031072985,9.815002441
1784244362.373017,-0.005101706,-0.003688839,-0.172233000,0.001243605,0.001047139,0.000680486,0.042507250,-0.059022043,9.786124229
1784244362.375010,-0.005098838,-0.003687677,-0.172235981,0.001510962,0.001148144,0.000687818,0.026929038,-0.047691748,9.796047211
1784244362.377015,-0.005102521,-0.003687657,-0.172238186,0.001053252,0.000962092,0.000149121,0.053288531,-0.058251388,9.784346581
1784244362.379015,-0.005104659,-0.003692586,-0.172233492,0.000443077,0.000430347,0.000277541,0.052392855,-0.057010472,9.800494194
1784244362.381015,-0.005105670,-0.003691270,-0.172234386,0.000180121,0.000130461,0.000462129,0.032938529,-0.068969488,9.816088676
1784244362.383016,-0.005109288,-0.003681182,-0.172229081,-0.000181987,0.000867573,0.000637756,0.018262539,-0.060449380,9.778471947
1784244362.385021,-0.005106733,-0.003676455,-0.172223777,-0.000173640,0.001579063,0.001182295,0.033375259,-0.035937652,9.769676208
1784244362.387014,-0.005095478,-0.003675799,-0.172228038,0.000839624,0.001460529,0.000927173,0.035855368,-0.054262236,9.758801460
1784244362.389017,-0.005099423,-0.003668095,-0.172232643,0.001166287,0.001634699,0.000074199,0.036454652,-0.078511328,9.765371323
1784244362.391021,-0.005103959,-0.003667282,-0.172224492,0.000335536,0.001767902,0.000299590,0.056866933,-0.059196487,9.784792900
1784244362.393032,-0.005098330,-0.003663658,-0.172218099,0.000322256,0.001584029,0.001203284,0.054650061,-0.056931112,9.785252571
1784244362.395036,-0.005092511,-0.003660211,-0.172215208,0.001057626,0.001714248,0.001503234,0.036871094,-0.040371411,9.819865227
1784244362.397030,-0.005087939,-0.003655517,-0.172208309,0.001521712,0.001881659,0.001758140,0.040758021,-0.053776138,9.807676315
1784244362.399033,-0.005090589,-0.003658985,-0.172200441,0.001238227,0.001450240,0.002282749,0.030487878,-0.048386022,9.824291229
1784244362.401029,-0.005093477,-0.003657386,-0.172198921,0.000524020,0.000927653,0.002301918,0.016588924,-0.047311876,9.824282646
1784244362.403035,-0.005079326,-0.003654914,-0.172194347,0.001147774,0.000950038,0.002085272,0.042259831,-0.041622128,9.796997070
1784244362.405038,-0.005068358,-0.003653738,-0.172187194,0.002522915,0.000918096,0.002307730,0.044174150,-0.068160065,9.808036804
1784244362.407041,-0.005071815,-0.003655580,-0.172185957,0.002328663,0.000603064,0.002249641,0.048531584,-0.079372078,9.801692009
1784244362.409045,-0.005073085,-0.003658225,-0.172184199,0.001462508,0.000167603,0.001843989,0.012945502,-0.052959003,9.805862427
1784244362.411043,-0.005071766,-0.003660916,-0.172181353,0.001156105,-0.000207787,0.001656978,0.017889975,-0.051332150,9.820223808
1784244362.413051,-0.005067468,-0.003660718,-0.172181427,0.001224222,-0.000321629,0.001395732,0.045860495,-0.041175634,9.790725708
1784244362.415048,-0.005062760,-0.003661210,-0.172183305,0.001493722,-0.000206950,0.000881935,0.029992042,-0.054425973,9.792420387
1784244362.417046,-0.005063252,-0.003661490,-0.172184989,0.001364492,-0.000155231,0.000398633,0.028023113,-0.033587519,9.763856888
1784244362.419048,-0.005067954,-0.003658383,-0.172190368,0.000549302,0.000035654,-0.000188412,0.005433675,-0.045055151,9.779006004
1784244362.421052,-0.005072187,-0.003654126,-0.172181904,-0.000296002,0.000479203,0.000071197,0.041217998,-0.053692862,9.795124054
1784244362.423056,-0.005075403,-0.003656240,-0.172176689,-0.000717976,0.000489820,0.000980959,0.038485680,-0.056406546,9.803623199
1784244362.425061,-0.005084810,-0.003651139,-0.172181025,-0.001348333,0.000542348,0.000776960,0.040065181,-0.037155099,9.802850723
1784244362.427062,-0.005090888,-0.003650564,-0.172182471,-0.002003379,0.000765485,0.000177773,0.005585580,-0.068072252,9.802171707
1784244362.429058,-0.005092957,-0.003653543,-0.172182292,-0.001891518,0.000289834,0.000045533,0.038435165,-0.060047466,9.811668396
1784244362.431060,-0.005092409,-0.003652780,-0.172177836,-0.001358805,-0.000045974,0.000347113,0.021402717,-0.058469210,9.809420586
1784244362.433072,-0.005095300,-0.003650652,-0.172174960,-0.001147084,0.000160168,0.000749561,0.027193727,-0.026554901,9.784524918
1784244362.435066,-0.005100302,-0.003651913,-0.172178790,-0.001463512,0.000138856,0.000481430,0.044269107,-0.022525877,9.817295074
1784244362.437064,-0.005104594,-0.003656134,-0.172175989,-0.001789102,-0.000307626,0.000283548,0.044665091,-0.029431913,9.779591560
1784244362.439065,-0.005107705,-0.003654054,-0.172171235,-0.001862236,-0.000386206,0.000718686,0.017428095,-0.053051475,9.810797691
1784244362.441069,-0.005108183,-0.003652215,-0.172171295,-0.001657442,-0.000031033,0.000839817,0.024032677,-0.061426770,9.842581749
1784244362.443085,-0.005104179,-0.003653873,-0.172170028,-0.000967841,-0.000010672,0.000692917,0.048682071,-0.029652178,9.803357124
1784244362.445079,-0.005102859,-0.003653587,-0.172168508,-0.000358234,-0.000087655,0.000693871,0.039223459,-0.070241243,9.794568062
1784244362.447078,-0.005107854,-0.003650638,-0.172168568,-0.000525307,0.000169393,0.000605081,0.032324795,-0.048481774,9.771387100
1784244362.449083,-0.005100966,-0.003644188,-0.172168836,-0.000280839,0.000749459,0.000416806,0.021866893,-0.057947509,9.798216820
1784244362.451097,-0.005093662,-0.003639511,-0.172173381,0.000731006,0.001290917,-0.000025244,0.013679496,-0.029638981,9.801527977
1784244362.453101,-0.005091714,-0.003637427,-0.172177956,0.001158351,0.001402487,-0.000638171,0.040829599,-0.048753176,9.794259071
1784244362.455151,-0.005090462,-0.003636739,-0.172181487,0.001050550,0.001199854,-0.001014721,0.031653181,-0.064825207,9.802665710
1784244362.457116,-0.005087004,-0.003639980,-0.172181040,0.001075771,0.000689033,-0.000947909,0.053241637,-0.061863694,9.788358688
1784244362.459113,-0.005086533,-0.003640007,-0.172181100,0.001093774,0.000333469,-0.000664471,0.007631392,-0.047066525,9.805895805
1784244362.461104,-0.005093345,-0.003633854,-0.172183290,0.000409052,0.000713047,-0.000636059,0.014932953,-0.038898073,9.778158188
1784244362.463101,-0.005099627,-0.003630089,-0.172189459,-0.000592839,0.001195527,-0.001030205,0.047441997,-0.059498277,9.781195641
1784244362.465102,-0.005098629,-0.003627368,-0.172184467,-0.000783643,0.001340216,-0.000830232,0.030178711,-0.038362965,9.801487923
1784244362.467104,-0.005095878,-0.003624763,-0.172188476,-0.000309071,0.001366123,-0.000539608,0.040272731,-0.020116683,9.800719261
1784244362.469138,-0.005094436,-0.003625320,-0.172193617,-0.000054826,0.001138199,-0.001015380,0.028331138,-0.041593343,9.818055153
1784244362.471103,-0.005093345,-0.003625620,-0.172192633,0.000018944,0.000773266,-0.001020276,0.059928454,-0.027136756,9.807416916
1784244362.473107,-0.005097455,-0.003617902,-0.172198266,-0.000192375,0.001068471,-0.001057242,0.060522906,-0.051424008,9.819368362
1784244362.475109,-0.005101439,-0.003616064,-0.172201261,-0.000669146,0.001468657,-0.001354430,0.028693177,-0.049983166,9.800067902
1784244362.477109,-0.005094449,-0.003614302,-0.172203168,-0.000262034,0.001354522,-0.001319264,0.017269624,-0.031301938,9.776864052
1784244362.479108,-0.005091616,-0.003606082,-0.172202915,0.000398923,0.001572106,-0.001074770,0.003559005,-0.049715262,9.807666779
1784244362.481110,-0.005091027,-0.003604518,-0.172203794,0.000446152,0.001716854,-0.000825218,0.017908499,-0.051185887,9.799601555
1784244362.483128,-0.005093321,-0.003599210,-0.172205672,0.000208545,0.001718126,-0.000788849,0.032500308,-0.031291105,9.810951233
1784244362.485121,-0.005088690,-0.003590998,-0.172209680,0.000203171,0.002132553,-0.000976406,0.047795709,-0.029148204,9.797080994
1784244362.487118,-0.005081926,-0.003584993,-0.172210768,0.000814408,0.002481492,-0.001057644,0.046528604,-0.023644136,9.781424522
1784244362.489125,-0.005083058,-0.003579213,-0.172211096,0.000824202,0.002648840,-0.000865276,0.026029227,-0.010109358,9.805252075
1784244362.491132,-0.005090415,-0.003578614,-0.172221303,-0.000129485,0.002406892,-0.001342453,0.015840828,-0.038826901,9.766502380
1784244362.493129,-0.005092291,-0.003584711,-0.172224864,-0.000724400,0.001384924,-0.001911247,0.026315760,-0.062764049,9.774429321
1784244362.495135,-0.005089030,-0.003583383,-0.172224104,-0.000382160,0.000627531,-0.001584322,0.040305227,-0.055828959,9.782107353
1784244362.497127,-0.005084718,-0.003582390,-0.172224969,0.000287812,0.000556113,-0.001162299,0.041144118,-0.060355045,9.787011147
1784244362.499132,-0.005084074,-0.003584021,-0.172233284,0.000558845,0.000366196,-0.001469733,0.030550640,-0.081833035,9.802106857
1784244362.501131,-0.005086719,-0.003585870,-0.172234178,0.000284082,0.000034944,-0.001695521,0.034977656,-0.050448019,9.791105270
1784244362.503139,-0.005090121,-0.003585321,-0.172237724,-0.000204570,-0.000061257,-0.001534723,0.010725988,-0.050309271,9.815292358
1784244362.505144,-0.005090739,-0.003582440,-0.172241241,-0.000431220,0.000084365,-0.001596694,0.033856589,-0.067602128,9.811168671
1784244362.507147,-0.005094236,-0.003586141,-0.172236577,-0.000600797,-0.000100921,-0.001083863,-0.015653655,-0.042745452,9.807245255
1784244362.509150,-0.005094409,-0.003589484,-0.172236666,-0.000730355,-0.000741250,-0.000478423,0.003645776,-0.042951331,9.801434517
1784244362.511147,-0.005097325,-0.003589213,-0.172232732,-0.000785523,-0.000937825,-0.000089956,0.015062605,-0.025716791,9.814558983
1784244362.513150,-0.005099614,-0.003582580,-0.172233328,-0.000924744,-0.000215777,0.000161599,0.023115061,-0.066437855,9.792783737
1784244362.515158,-0.005103979,-0.003580540,-0.172233388,-0.001133405,0.000367042,0.000074222,0.034079395,-0.049632814,9.804110527
1784244362.517157,-0.005102622,-0.003583754,-0.172237739,-0.001038907,0.000124541,-0.000245481,0.009695602,-0.027131217,9.771055222
1784244362.519160,-0.005095065,-0.003579537,-0.172242284,-0.000244789,0.000067938,-0.000783441,0.019152252,-0.022121249,9.805617332
1784244362.521169,-0.005088855,-0.003576970,-0.172246069,0.000663347,0.000418911,-0.001136526,0.036351841,-0.048622549,9.783945084
1784244362.523180,-0.005085655,-0.003581001,-0.172248259,0.001120584,0.000207818,-0.001234204,0.047647830,-0.040852427,9.805076599
1784244362.525166,-0.005085655,-0.003581001,-0.172248259,0.001249669,-0.000394405,-0.001199874,0.047647830,-0.040852427,9.805076599
1784244362.527172,-0.005079908,-0.003587655,-0.172249213,0.001256212,-0.000579743,-0.001245799,0.028816016,-0.043339685,9.747656822
1784244362.529174,-0.005079908,-0.003587655,-0.172249213,0.001173485,-0.000461385,-0.001350189,0.028816016,-0.043339685,9.747656822
1784244362.531178,-0.005081419,-0.003580921,-0.172249570,0.000807211,-0.000158418,-0.001010324,0.023366127,-0.043382362,9.826556206
1784244362.533190,-0.005081419,-0.003580921,-0.172249570,0.000234377,0.000279034,-0.000346822,0.023366127,-0.043382362,9.826556206
1784244362.535205,-0.005071141,-0.003574710,-0.172238991,0.000394874,0.000589602,0.000444286,0.055394474,-0.067471474,9.817018509
1784244362.537213,-0.005071141,-0.003574710,-0.172238991,0.001089595,0.000807736,0.001328353,0.055394474,-0.067471474,9.817018509
1784244362.539194,-0.005078157,-0.003564712,-0.172238812,0.000801200,0.000977757,0.001555994,0.034613885,-0.078040741,9.828587532
1784244362.541193,-0.005078157,-0.003564712,-0.172238812,-0.000203385,0.001112727,0.001305437,0.034613885,-0.078040741,9.828587532
1784244362.543205,-0.005078659,-0.003566080,-0.172235250,-0.000574690,0.001116947,0.001159060,0.023592766,-0.063377835,9.802666664
1784244362.545197,-0.005075684,-0.003561102,-0.172230810,-0.000321878,0.001041829,0.001143082,0.023556853,-0.068524435,9.770354271
1784244362.547195,-0.005078625,-0.003563292,-0.172225878,-0.000249823,0.000698999,0.001346280,0.018324748,-0.053879406,9.799585342
1784244362.549198,-0.005078914,-0.003566497,-0.172222227,-0.000345845,0.000108426,0.001564380,0.026855098,-0.053543862,9.800043106
1784244362.551228,-0.005076739,-0.003566541,-0.172223911,-0.000123491,-0.000142193,0.001273433,-0.006689569,-0.044560067,9.794240952
1784244362.553233,-0.005075547,-0.003567471,-0.172222376,0.000111936,-0.000252676,0.000917585,0.033549607,-0.057156552,9.791955948
1784244362.555212,-0.005078199,-0.003567733,-0.172219247,-0.000042963,-0.000349633,0.000982676,0.049265340,-0.093238570,9.797120094
1784244362.557217,-0.005077416,-0.003566565,-0.172220409,-0.000025892,-0.000150572,0.000851285,0.022390865,-0.050874908,9.810816765
1784244362.559216,-0.005071259,-0.003565595,-0.172218025,0.000584266,0.000078325,0.000702830,0.037507728,-0.025114689,9.815478325
1784244362.561213,-0.005074957,-0.003565578,-0.172217593,0.000593232,0.000123112,0.000701621,0.038954940,-0.015823323,9.829438210
1784244362.563214,-0.005078944,-0.003571753,-0.172213197,-0.000219417,-0.000322292,0.000841190,0.035536733,-0.038235188,9.836913109
1784244362.565217,-0.005075504,-0.003573410,-0.172206864,-0.000325406,-0.000762436,0.001340132,0.016956134,-0.057687134,9.770417213
1784244362.567217,-0.005075240,-0.003570268,-0.172209337,0.000056732,-0.000509176,0.001238186,0.034067232,-0.089344941,9.780991554
1784244362.569218,-0.005078428,-0.003572113,-0.172208607,-0.000116150,-0.000335487,0.000784055,0.042780623,-0.072975002,9.794553757
1784244362.571225,-0.005079224,-0.003573985,-0.172206864,-0.000354383,-0.000497504,0.000740268,0.023564637,-0.029657358,9.786294937
1784244362.573239,-0.005080153,-0.003573037,-0.172206178,-0.000435977,-0.000472530,0.000709312,0.033892959,-0.028509300,9.795279503
1784244362.575234,-0.005080679,-0.003573852,-0.172203064,-0.000476775,-0.000383093,0.000777447,0.031771321,-0.054166347,9.815735817
1784244362.577228,-0.005077599,-0.003569765,-0.172199637,-0.000124145,-0.000035183,0.001009783,0.021334331,-0.103893563,9.770573616
1784244362.579226,-0.005077618,-0.003575354,-0.172201067,0.000166129,-0.000104197,0.000870413,0.011682759,-0.049446728,9.755222321
1784244362.581232,-0.005077644,-0.003581208,-0.172201425,0.000117486,-0.000852089,0.000511859,0.033254948,-0.044182189,9.795178413
1784244362.583235,-0.005078944,-0.003580673,-0.172196701,-0.000004667,-0.000966550,0.000668107,0.027930018,-0.039185621,9.795205116
1784244362.585234,-0.005073835,-0.003576514,-0.172191411,0.000256349,-0.000372062,0.001165353,0.032312311,-0.048580348,9.785285950
1784244362.587243,-0.005066046,-0.003571003,-0.172188461,0.001065006,0.000379107,0.001403984,0.020266294,-0.040180951,9.822988510
1784244362.589241,-0.005069180,-0.003565429,-0.172183186,0.001094620,0.001022355,0.001577470,0.058517832,-0.035328705,9.764771461
1784244362.591243,-0.005065129,-0.003562579,-0.172181621,0.000861350,0.001314264,0.001612204,0.029666817,-0.080093287,9.811083794
1784244362.593245,-0.005063529,-0.003564521,-0.172182277,0.001084657,0.001021133,0.001238175,0.033274110,-0.041599348,9.809989929
1784244362.595250,-0.005062232,-0.003571714,-0.172183990,0.001059654,0.000126973,0.000744987,0.046840020,-0.034054741,9.795704842
1784244362.597252,-0.005056309,-0.003578731,-0.172182441,0.001236651,-0.000833390,0.000528708,0.035113569,-0.037622493,9.814499855
1784244362.599250,-0.005055462,-0.003581141,-0.172189176,0.001333767,-0.001206573,0.000029934,0.036296997,-0.053918596,9.772702217
1784244362.601257,-0.005060520,-0.003584819,-0.172190621,0.000683768,-0.001289452,-0.000532079,0.032588448,-0.061700974,9.802685738
1784244362.603257,-0.005064827,-0.003582741,-0.172192305,-0.000094609,-0.001042658,-0.000597289,0.042766426,-0.036713026,9.798821449
1784244362.605257,-0.005063720,-0.003579333,-0.172187552,-0.000241559,-0.000383968,-0.000226266,0.035144810,-0.037781101,9.773699760
1784244362.607260,-0.005069132,-0.003580900,-0.172190323,-0.000496190,-0.000190073,-0.000030015,0.024772475,-0.040492449,9.795641899
1784244362.609258,-0.005074937,-0.003585354,-0.172202170,-0.001154905,-0.000576833,-0.001009954,0.034252573,-0.074508168,9.773463249
1784244362.611330,-0.005074690,-0.003589359,-0.172200426,-0.001221051,-0.000990920,-0.001417028,0.023452995,-0.075828537,9.789586067
1784244362.613277,-0.005074841,-0.003590739,-0.172193870,-0.000800417,-0.001143277,-0.000466426,0.022651408,-0.030986564,9.785837173
1784244362.615277,-0.005074472,-0.003586782,-0.172198161,-0.000487142,-0.000711820,-0.000186080,0.010349724,-0.046084266,9.788866043
1784244362.617274,-0.005071521,-0.003583709,-0.172198191,-0.000109696,-0.000072364,-0.000431099,0.032450810,-0.072919086,9.805305481
1784244362.619302,-0.005067511,-0.003583248,-0.172194272,0.000414500,0.000153365,-0.000050927,0.029656108,-0.082609363,9.786858559
1784244362.621281,-0.005069814,-0.003577942,-0.172194883,0.000418741,0.000502092,0.000190347,0.016005283,-0.059718665,9.805820465
1784244362.623280,-0.005076109,-0.003569900,-0.172195226,-0.000223263,0.001232841,0.000078914,0.006268426,-0.047992893,9.812612534
1784244362.625277,-0.005075530,-0.003568603,-0.172195002,-0.000495137,0.001492753,0.000050685,0.042339075,-0.033701908,9.817221642
1784244362.627282,-0.005072878,-0.003573480,-0.172195628,-0.000213392,0.000903068,0.000008491,0.027451972,-0.040222064,9.815822601
1784244362.629285,-0.005074197,-0.003568463,-0.172183171,-0.000133966,0.000721742,0.000809320,0.038230885,-0.043117393,9.762461662
1784244362.631325,-0.005077406,-0.003569782,-0.172177926,-0.000400539,0.000770703,0.001790348,0.034025244,-0.053302355,9.816191673
1784244362.633294,-0.005078275,-0.003576732,-0.172183350,-0.000565219,-0.000068491,0.001290718,0.049017992,-0.039058752,9.802399635
1784244362.635297,-0.005077176,-0.003581529,-0.172191963,-0.000396194,-0.000911186,-0.000012781,0.039530389,-0.045123626,9.790246010
1784244362.637294,-0.005073640,-0.003582553,-0.172197074,-0.000032614,-0.001023806,-0.000941139,0.039472047,-0.049231585,9.800980568
1784244362.639287,-0.005072470,-0.003576488,-0.172197908,0.000238984,-0.000371165,-0.001089832,0.028429804,-0.072730608,9.786023140
1784244362.641293,-0.005072446,-0.003578100,-0.172199324,0.000254658,0.000032696,-0.000946117,0.032822683,-0.080825962,9.782389641
1784244362.643297,-0.005074081,-0.003580571,-0.172198355,0.000223180,-0.000267381,-0.000718438,0.047393139,-0.063936554,9.775339127
1784244362.645294,-0.005071547,-0.003574250,-0.172204241,0.000369549,0.000054048,-0.000856179,0.035812620,-0.056626052,9.776270866
1784244362.647296,-0.005068452,-0.003572588,-0.172204539,0.000605874,0.000557349,-0.001045076,0.027402824,-0.046283659,9.786191940
1784244362.649302,-0.005065292,-0.003575039,-0.172197193,0.000823668,0.000323998,-0.000283365,0.033829831,-0.036302328,9.757122040
1784244362.651308,-0.005064225,-0.003576136,-0.172193810,0.000889571,-0.000008537,0.000523206,0.032142863,-0.025296519,9.787676811
1784244362.653307,-0.005066918,-0.003579160,-0.172194451,0.000449962,-0.000314204,0.000568102,0.037893530,-0.033316910,9.771041870
1784244362.655309,-0.005068218,-0.003583138,-0.172201484,-0.000033454,-0.000728794,-0.000104541,0.022500305,-0.042716220,9.797418594
1784244362.657309,-0.005068030,-0.003586977,-0.172207952,-0.000113862,-0.001067312,-0.000991466,0.044370942,-0.052827641,9.793788910
1784244362.659311,-0.005066897,-0.003582772,-0.172205895,-0.000005157,-0.000761511,-0.001020476,0.043721758,-0.070209712,9.782019615
1784244362.661312,-0.005073526,-0.003580606,-0.172201440,-0.000375247,-0.000124450,-0.000299891,0.021536393,-0.045256138,9.841338158
1784244362.663312,-0.005085845,-0.003581627,-0.172197357,-0.001553260,-0.000029431,0.000365963,0.008546525,-0.044101272,9.828330994
1784244362.665312,-0.005091431,-0.003585034,-0.172199324,-0.002342165,-0.000336285,0.000415801,0.014839402,-0.043689288,9.822062492
1784244362.667318,-0.005089852,-0.003587184,-0.172204450,-0.001994479,-0.000673891,-0.000178875,0.016873468,-0.024802528,9.808736801
1784244362.669316,-0.005086294,-0.003584322,-0.172209561,-0.001121296,-0.000493208,-0.000825351,0.037243202,-0.048681751,9.790669441
1784244362.671319,-0.005085174,-0.003583823,-0.172212303,-0.000501127,-0.000128418,-0.001132561,0.047880583,-0.058773443,9.804512978
1784244362.673330,-0.005085880,-0.003586772,-0.172212660,-0.000270779,-0.000204262,-0.001033683,0.040253151,-0.060292665,9.779837608
1784244362.675322,-0.005090373,-0.003588068,-0.172215119,-0.000484047,-0.000381509,-0.000944885,0.022763142,-0.058778614,9.787452698
1784244362.677325,-0.005093972,-0.003585753,-0.172216281,-0.000871192,-0.000219814,-0.000933100,0.064550735,-0.057232104,9.746704102
1784244362.679332,-0.005092881,-0.003586318,-0.172215819,-0.000773450,-0.000053335,-0.000725070,0.045188420,-0.059549019,9.792401314
1784244362.681332,-0.005092118,-0.003593242,-0.172216684,-0.000437729,-0.000546992,-0.000558476,-0.002560623,-0.072975844,9.813340187
1784244362.683337,-0.005100346,-0.003594122,-0.172225833,-0.000735536,-0.001040776,-0.001088589,0.033410814,-0.069194265,9.783809662
1784244362.685339,-0.005108238,-0.003592988,-0.172234699,-0.001541952,-0.000850840,-0.002014199,0.031293035,-0.057636179,9.800468445
1784244362.687334,-0.005113350,-0.003594422,-0.172233209,-0.002021314,-0.000592072,-0.001965581,0.060091939,-0.013688387,9.806158066
1784244362.689336,-0.005110184,-0.003594754,-0.172223151,-0.001615250,-0.000509562,-0.000647876,0.034851477,-0.023580508,9.793519020
1784244362.691343,-0.005105115,-0.003592983,-0.172215760,-0.000613348,-0.000279510,0.000711267,0.051113971,-0.015225341,9.786414146
1784244362.693359,-0.005102288,-0.003596246,-0.172216654,-0.000010002,-0.000268011,0.000960194,0.046916548,-0.027776921,9.794847488
1784244362.695345,-0.005103023,-0.003595725,-0.172220692,0.000032677,-0.000340591,0.000364225,0.014533041,-0.071233943,9.789606094
1784244362.697398,-0.005108357,-0.003595009,-0.172219992,-0.000296131,-0.000210256,0.000038827,0.017981634,-0.045340136,9.796501160
1784244362.699375,-0.005111256,-0.003594207,-0.172218204,-0.000681059,-0.000098176,0.000198783,0.054582454,-0.061112206,9.806298256
1784244362.701358,-0.005111797,-0.003594760,-0.172212198,-0.000727702,-0.000057260,0.000676490,0.049615029,-0.062920295,9.817490578
1784244362.703357,-0.005112397,-0.003597615,-0.172207490,-0.000601784,-0.000246386,0.001222098,0.040061891,-0.039207313,9.776386261
1784244362.705382,-0.005113456,-0.003598689,-0.172204912,-0.000546038,-0.000418333,0.001384647,0.025358064,-0.030096518,9.781810760
1784244362.707362,-0.005111574,-0.003599580,-0.172200456,-0.000414403,-0.000490468,0.001485451,0.046403740,-0.033140346,9.793916702
1784244362.709361,-0.005109910,-0.003600144,-0.172206894,-0.000135848,-0.000505225,0.000945625,0.023897855,-0.037869491,9.806418419
1784244362.711359,-0.005106445,-0.003603914,-0.172208339,0.000247266,-0.000659476,0.000154715,0.029301329,-0.036572337,9.803293228
1784244362.713364,-0.005101775,-0.003604171,-0.172213465,0.000670583,-0.000791954,-0.000331079,0.055147111,-0.050881617,9.815778732
1784244362.715379,-0.005106742,-0.003600158,-0.172216177,0.000406298,-0.000359758,-0.000773198,0.019241601,-0.052521583,9.796007156
1784244362.717383,-0.005107636,-0.003603366,-0.172214404,-0.000078580,-0.000224625,-0.000627396,0.046405397,-0.071527667,9.773493767
1784244362.719372,-0.005104749,-0.003606343,-0.172207043,0.000103854,-0.000604143,0.000162976,0.047026888,-0.093575113,9.785459518
1784244362.721425,-0.005101542,-0.003604552,-0.172199920,0.000492895,-0.000525610,0.001102175,0.037923336,-0.064997904,9.815672874
1784244362.723392,-0.005101266,-0.003605283,-0.172199205,0.000653177,-0.000248314,0.001336107,0.035295565,-0.061617829,9.786102295
1784244362.725389,-0.005106306,-0.003609223,-0.172204092,0.000207146,-0.000431241,0.000691154,0.026995663,-0.078676768,9.805710793
1784244362.727393,-0.005112389,-0.003613304,-0.172214329,-0.000426666,-0.000862619,-0.000520964,0.018571774,-0.033692539,9.795680046
1784244362.729388,-0.005112884,-0.003610672,-0.172210410,-0.000577603,-0.000733896,-0.000805307,0.030835301,-0.058107007,9.804500580
1784244362.731389,-0.005108094,-0.003607047,-0.172197148,-0.000125073,-0.000115953,0.000579925,0.036356278,-0.045750737,9.821174622
1784244362.733397,-0.005103606,-0.003603658,-0.172195032,0.000585730,0.000438872,0.001463878,0.042041115,-0.025616592,9.751817703
1784244362.735389,-0.005103014,-0.003602888,-0.172197759,0.000814733,0.000654820,0.001023212,0.033334352,-0.038692188,9.779072762
1784244362.737393,-0.005104162,-0.003606538,-0.172196284,0.000487462,0.000259710,0.000662226,0.023059199,-0.033746853,9.795235634
1784244362.739398,-0.005099374,-0.003605031,-0.172186747,0.000536906,0.000017679,0.001230346,0.033783175,-0.037481241,9.797014236
1784244362.741395,-0.005100920,-0.003602915,-0.172186285,0.000613742,0.000255347,0.001574380,0.028823571,-0.038822290,9.805519104
1784244362.743391,-0.005104972,-0.003604823,-0.172186121,-0.000037171,0.000133995,0.001190428,0.048178531,-0.034942470,9.792113304
1784244362.745393,-0.005108189,-0.003608525,-0.172183588,-0.000624467,-0.000350057,0.001052754,0.042276870,-0.040271882,9.796109200
1784244362.747393,-0.005103611,-0.003607522,-0.172182024,-0.000416432,-0.000404107,0.001045392,0.054248892,-0.050876483,9.816676140
1784244362.749399,-0.005107069,-0.003608570,-0.172178924,-0.000281097,-0.000263536,0.001077110,0.030167717,-0.039665509,9.795652390
1784244362.751395,-0.005110305,-0.003613599,-0.172175840,-0.000657703,-0.000606652,0.001205289,0.025392585,-0.062956050,9.803119659
1784244362.753402,-0.005111010,-0.003612807,-0.172176182,-0.000695682,-0.000785721,0.001064764,0.036642700,-0.062032167,9.778925896
1784244362.755385,-0.005110445,-0.003612571,-0.172175452,-0.000465949,-0.000557967,0.000802331,0.030267831,-0.068359852,9.798158646
1784244362.757402,-0.005111937,-0.003612167,-0.172173679,-0.000317408,-0.000428730,0.000755331,-0.003743898,-0.061946791,9.776646614
1784244362.759401,-0.005109794,-0.003614863,-0.172175080,-0.000102519,-0.000532838,0.000575743,0.016789045,-0.068327278,9.817872047
1784244362.761409,-0.005111653,-0.003617781,-0.172175452,-0.000055858,-0.000768603,0.000299435,0.038597364,-0.048635401,9.781704903
1784244362.763409,-0.005110169,-0.003620664,-0.172173157,-0.000094401,-0.000905124,0.000350953,0.057597067,-0.073091589,9.784255028
1784244362.765412,-0.005106703,-0.003624964,-0.172175914,0.000238524,-0.001097471,0.000226074,0.030985130,-0.083166778,9.799857140
1784244362.767412,-0.005107414,-0.003627958,-0.172172546,0.000551639,-0.001382791,0.000206611,0.053953588,-0.075091816,9.820105553
1784244362.769445,-0.005105773,-0.003630377,-0.172178492,0.000655069,-0.001461976,-0.000023670,0.010984626,-0.066810086,9.803977013
1784244362.771417,-0.005110203,-0.003625576,-0.172180653,0.000285974,-0.000900571,-0.000567773,0.019652268,-0.056069687,9.790156364
1784244362.773420,-0.005109472,-0.003620485,-0.172184959,-0.000032339,-0.000023746,-0.000853307,0.037091296,-0.060417768,9.803147316
1784244362.775417,-0.005110458,-0.003618900,-0.172189817,-0.000031100,0.000397615,-0.001242674,0.052176971,-0.038145840,9.794338226
1784244362.777422,-0.005111017,-0.003623233,-0.172188565,-0.000217165,0.000218285,-0.001150243,0.048957042,-0.046429258,9.767829895
1784244362.779436,-0.005106204,-0.003624898,-0.172188908,0.000041956,-0.000134484,-0.000776637,0.019711079,-0.049931780,9.809026718
1784244362.781425,-0.005099266,-0.003624469,-0.172184706,0.000829203,-0.000183153,-0.000303788,0.038167302,-0.047266692,9.779022217
1784244362.783432,-0.005098398,-0.003627468,-0.172191724,0.001113936,-0.000266724,-0.000411344,0.021990722,-0.013301085,9.757257462
1784244362.785548,-0.005102333,-0.003629825,-0.172200605,0.000580092,-0.000512180,-0.001376443,0.050098490,-0.023845932,9.803395271
1784244362.787482,-0.005099210,-0.003631081,-0.172195628,0.000281194,-0.000552951,-0.001266264,0.030183891,-0.037511557,9.807770729
1784244362.789459,-0.005098400,-0.003635614,-0.172199965,0.000386582,-0.000732011,-0.000879437,0.027169861,-0.025122358,9.835196495
1784244362.791459,-0.005101274,-0.003636395,-0.172205091,0.000139187,-0.000890752,-0.001284280,0.058501430,-0.071832344,9.794576645
1784244362.793472,-0.005105457,-0.003638862,-0.172211587,-0.000328010,-0.000822422,-0.001723048,0.023489648,-0.072702341,9.790950775
1784244362.795454,-0.005108586,-0.003639902,-0.172219127,-0.000686242,-0.000789454,-0.002205275,0.012890258,-0.058258228,9.795066833
1784244362.797493,-0.005115783,-0.003639197,-0.172218695,-0.001164511,-0.000693975,-0.002087173,0.025970122,-0.052623719,9.798254967
1784244362.799458,-0.005117116,-0.003642387,-0.172218785,-0.001389146,-0.000772846,-0.001496316,0.044224095,-0.064928941,9.794608116
1784244362.801497,-0.005114993,-0.003649320,-0.172224194,-0.000959701,-0.001248244,-0.001464408,0.036332443,-0.050801940,9.775411606
1784244362.803484,-0.005111239,-0.003654314,-0.172225893,-0.000249824,-0.001688180,-0.001549366,0.021434082,-0.019821163,9.793080330
1784244362.805451,-0.005113590,-0.003653249,-0.172226235,-0.000035011,-0.001467536,-0.001265738,0.026324926,-0.023480810,9.794855118
1784244362.807495,-0.005118555,-0.003652978,-0.172222570,-0.000599444,-0.001013252,-0.000697592,0.029609682,-0.049438592,9.784829140
1784244362.809466,-0.005117434,-0.003649832,-0.172220483,-0.000774427,-0.000541860,-0.000120079,0.056944795,-0.051692434,9.800533295
1784244362.811453,-0.005120046,-0.003649028,-0.172221914,-0.000665265,-0.000126908,-0.000041576,0.031524993,-0.037973586,9.807320595
1784244362.813469,-0.005121439,-0.003651680,-0.172222540,-0.000770194,-0.000199507,-0.000167288,0.012167725,-0.043492630,9.799197197
1784244362.815459,-0.005124163,-0.003655659,-0.172214121,-0.000851749,-0.000580420,0.000407213,0.026618792,-0.033624694,9.834692955
1784244362.817458,-0.005122376,-0.003655002,-0.172207564,-0.000711316,-0.000665064,0.001314522,0.040295787,-0.056308709,9.786587715
1784244362.819461,-0.005120402,-0.003647092,-0.172205731,-0.000291805,0.000082585,0.001529205,0.061315190,-0.023185950,9.816410065
1784244362.821461,-0.005114508,-0.003645060,-0.172202304,0.000322843,0.000733230,0.001470060,0.022369055,-0.053073388,9.804975510
1784244362.823462,-0.005111142,-0.003649614,-0.172205627,0.000834588,0.000362670,0.001079384,0.015955960,-0.066186897,9.770361900
1784244362.825465,-0.005111664,-0.003653075,-0.172208115,0.000770347,-0.000278116,0.000394881,0.034689944,-0.073792875,9.798127174
1784244362.827458,-0.005113671,-0.003655497,-0.172206089,0.000525560,-0.000583007,0.000257852,0.046870444,-0.068972833,9.791445732
1784244362.829463,-0.005107734,-0.003651341,-0.172205850,0.000786358,-0.000288983,0.000342118,0.040778045,-0.051997017,9.809481621
1784244362.831462,-0.005107353,-0.003644206,-0.172206402,0.001001682,0.000556017,0.000226543,0.023288671,-0.050883230,9.810368538
1784244362.833467,-0.005116292,-0.003648490,-0.172208935,0.000230693,0.000606727,-0.000042793,0.020799810,-0.034248736,9.806885719
1784244362.835497,-0.005117650,-0.003655389,-0.172211438,-0.000449468,-0.000308236,-0.000370855,0.015582419,-0.057482656,9.807179451
1784244362.837487,-0.005116312,-0.003654010,-0.172211766,-0.000291136,-0.000676726,-0.000462731,0.045352634,-0.082874179,9.795838356
1784244362.839481,-0.005119458,-0.003651614,-0.172210231,-0.000296176,-0.000315556,-0.000255568,0.065993637,-0.046759017,9.783535957
1784244362.841475,-0.005120543,-0.003654015,-0.172205821,-0.000501452,-0.000232259,0.000218958,0.064092673,-0.018089373,9.787753105
1784244362.843480,-0.005118314,-0.003657557,-0.172201127,-0.000364973,-0.000427980,0.000780294,0.013842679,-0.017813930,9.776497841
1784244362.845483,-0.005122267,-0.003657799,-0.172203064,-0.000461821,-0.000421795,0.000756494,0.034009997,-0.019480128,9.785474777
1784244362.847479,-0.005121072,-0.003656776,-0.172202602,-0.000656673,-0.000270184,0.000450949,0.032165062,-0.060684837,9.786553383
1784244362.849480,-0.005121782,-0.003653605,-0.172205836,-0.000578917,0.000072437,0.000139747,0.039746225,-0.063178182,9.808512688
1784244362.851486,-0.005126231,-0.003653571,-0.172213376,-0.000774666,0.000274077,-0.000629183,0.037046481,-0.027234277,9.799324989
1784244362.853489,-0.005123892,-0.003651329,-0.172221377,-0.000753770,0.000421199,-0.001514013,0.032266982,-0.013779897,9.806131363
1784244362.855489,-0.005120090,-0.003647679,-0.172221452,-0.000176576,0.000771205,-0.001650905,0.066271961,-0.059457123,9.804526329
1784244362.857494,-0.005117315,-0.003653790,-0.172220215,0.000382146,0.000570836,-0.001121133,0.038034733,-0.056013249,9.812143326
1784244362.859497,-0.005117274,-0.003654340,-0.172222406,0.000533285,0.000140525,-0.000881606,0.005269110,-0.057296365,9.799551010
1784244362.861492,-0.005117992,-0.003655140,-0.172231808,0.000339726,0.000014743,-0.001428621,0.023433145,-0.077201039,9.793611526
1784244362.863511,-0.005117558,-0.003656738,-0.172231078,0.000341122,-0.000241634,-0.001629238,0.050465066,-0.068574049,9.791898727
1784244362.865500,-0.005120507,-0.003656737,-0.172222376,0.000195136,-0.000380345,-0.000547828,0.049563996,-0.030191131,9.814560890
1784244362.867494,-0.005125017,-0.003657446,-0.172220871,-0.000433693,-0.000296102,0.000294325,0.042193897,-0.046600565,9.804137230
1784244362.869511,-0.005131844,-0.003653413,-0.172224104,-0.001158101,0.000043109,0.000096618,0.033790592,-0.037017383,9.794776917
1784244362.871536,-0.005135513,-0.003650745,-0.172223628,-0.001556950,0.000487264,-0.000118313,0.047149125,-0.046104565,9.788454056
1784244362.873615,-0.005140084,-0.003646681,-0.172227681,-0.001720432,0.000845787,-0.000328648,0.044683091,-0.065258667,9.777120590
1784244362.875515,-0.005142673,-0.003647198,-0.172235221,-0.001768247,0.000893528,-0.001024504,0.055404592,-0.068202049,9.793701172
1784244362.877506,-0.005139692,-0.003649981,-0.172237143,-0.001174744,0.000542663,-0.001388164,0.047068566,-0.052414175,9.793794632
1784244362.879548,-0.005139082,-0.003644443,-0.172234505,-0.000522599,0.000694467,-0.000964499,0.044283498,-0.020791270,9.825376511
1784244362.881530,-0.005142520,-0.003642842,-0.172230035,-0.000570910,0.000988033,-0.000222432,0.045608476,-0.024217322,9.800698280
1784244362.883523,-0.005141684,-0.003643737,-0.172227457,-0.000755611,0.000753525,0.000315420,0.030638510,-0.073439434,9.818749428
1784244362.885520,-0.005142974,-0.003645861,-0.172232598,-0.000746696,0.000333138,0.000056213,0.045932937,-0.071709514,9.799944878
1784244362.887525,-0.005142298,-0.003646606,-0.172243059,-0.000483989,0.000119546,-0.001016233,0.066939302,-0.080332011,9.777493477
1784244362.889556,-0.005135550,-0.003646956,-0.172252670,0.000251873,0.000085952,-0.002102834,0.055408966,-0.067356996,9.800879478
1784244362.891522,-0.005134142,-0.003642487,-0.172251657,0.000734954,0.000345277,-0.002116687,0.051200848,-0.044834685,9.791604042
1784244362.893557,-0.005134745,-0.003644895,-0.172255188,0.000633501,0.000500536,-0.001712495,0.020522343,-0.057107467,9.808533669
1784244362.895534,-0.005135043,-0.003652071,-0.172257423,0.000443062,-0.000175739,-0.001639250,0.022147583,-0.035063334,9.792984962
1784244362.897531,-0.005128978,-0.003659883,-0.172249258,0.000658547,-0.001181065,-0.000793905,0.047516633,-0.052019659,9.800519943
1784244362.899557,-0.005119675,-0.003661337,-0.172242925,0.001469280,-0.001528043,0.000402763,0.030839732,-0.058072031,9.799570084
1784244362.901532,-0.005123022,-0.003653899,-0.172243223,0.001476165,-0.000709025,0.000701909,0.056217361,-0.038991760,9.779990196
1784244362.903534,-0.005130963,-0.003648937,-0.172243282,0.000276951,0.000461236,0.000487873,0.036575738,-0.029023550,9.799761772
1784244362.905536,-0.005129876,-0.003647648,-0.172239080,-0.000294538,0.000894638,0.000636976,0.040271237,-0.018912703,9.820452690
1784244362.907533,-0.005118160,-0.003653631,-0.172237828,0.000473386,0.000387081,0.000833149,0.019378664,-0.041713282,9.788006783
1784244362.909528,-0.005117878,-0.003656041,-0.172239259,0.000976757,-0.000231730,0.000595495,0.040877827,-0.043914635,9.806843758
1784244362.911534,-0.005120264,-0.003657894,-0.172238827,0.000568516,-0.000457850,0.000368231,0.028310591,-0.044592347,9.798756599
1784244362.913539,-0.005118769,-0.003654585,-0.172241792,0.000257588,-0.000225783,0.000096551,0.012016676,-0.056032360,9.798667908
1784244362.915538,-0.005123191,-0.003650312,-0.172246128,-0.000108290,0.000360752,-0.000424194,0.025960740,-0.053913545,9.790624619
1784244362.917540,-0.005125199,-0.003647435,-0.172247514,-0.000483955,0.000752551,-0.000695611,0.026102180,-0.042260196,9.789803505
1784244362.919542,-0.005125913,-0.003645323,-0.172252074,-0.000506028,0.000891377,-0.000911805,0.039500348,-0.047792312,9.787538528
1784244362.921558,-0.005128016,-0.003646118,-0.172252446,-0.000561169,0.000740499,-0.000998558,0.038648810,-0.043771420,9.790702820
1784244362.923549,-0.005126011,-0.003650868,-0.172253326,-0.000479680,0.000231742,-0.000811061,0.063410684,-0.073725589,9.799949646
1784244362.925546,-0.005124363,-0.003650904,-0.172256067,-0.000166230,-0.000086628,-0.000836242,0.049676649,-0.059596971,9.791060448
1784244362.927547,-0.005122491,-0.003648988,-0.172260910,0.000156672,0.000006069,-0.001123405,0.036022361,-0.073918238,9.813370705
1784244362.929554,-0.005120649,-0.003653540,-0.172259644,0.000406016,-0.000234201,-0.001063515,0.035446435,-0.084237851,9.816441536
1784244362.931551,-0.005121235,-0.003656481,-0.172250435,0.000383562,-0.000682888,-0.000064989,0.048566971,-0.078282185,9.774351120
1784244362.933574,-0.005121875,-0.003655748,-0.172243059,0.000298957,-0.000543584,0.001080107,0.051073510,-0.056376740,9.776734352
1784244362.935559,-0.005118621,-0.003652890,-0.172241718,0.000496024,-0.000045589,0.001375363,0.060924366,-0.021102190,9.776074409
1784244362.937566,-0.005111922,-0.003650685,-0.172235399,0.000911925,0.000404697,0.001519167,0.046005223,-0.027470086,9.816368103
1784244362.939583,-0.005106613,-0.003651567,-0.172228277,0.001355855,0.000476781,0.002019865,0.033786178,0.000537615,9.806224823
1784244362.941566,-0.005104729,-0.003654523,-0.172231287,0.001477028,0.000085368,0.001750010,0.017869830,-0.054327976,9.800478935
1784244362.943567,-0.005097447,-0.003650071,-0.172230527,0.001678328,0.000125652,0.001122172,0.014866554,-0.077822760,9.833501816
1784244362.945573,-0.005094186,-0.003646418,-0.172229201,0.001919548,0.000602187,0.000956270,0.043308232,-0.028283820,9.809636116
1784244362.947566,-0.005088360,-0.003643880,-0.172218084,0.001893929,0.000875195,0.001538700,0.056604393,-0.041510757,9.818530083
1784244362.949576,-0.005087376,-0.003648432,-0.172207251,0.001723026,0.000513761,0.002609496,0.041680913,-0.052370619,9.797374725
1784244362.951569,-0.005090834,-0.003650010,-0.172205240,0.001090467,-0.000046286,0.002773337,0.050296478,-0.046093933,9.781283379
1784244362.953578,-0.005098236,-0.003648994,-0.172206923,0.000021676,-0.000010536,0.002045764,0.038616356,-0.081212319,9.826328278
1784244362.955575,-0.005101340,-0.003643414,-0.172206715,-0.000733280,0.000502006,0.001392121,0.035199299,-0.068051443,9.808924675
1784244362.957573,-0.005104630,-0.003638386,-0.172204897,-0.000902402,0.001031835,0.001152099,0.027008737,-0.040578421,9.803713799
1784244362.959572,-0.005106443,-0.003637856,-0.172206819,-0.000938566,0.001075772,0.000831063,0.031982038,-0.036292423,9.822127342
1784244362.961574,-0.005094641,-0.003634291,-0.172208399,-0.000006532,0.001062887,0.000363792,0.033511799,-0.061102357,9.779827118
1784244362.963580,-0.005085930,-0.003634008,-0.172207907,0.001413111,0.001026518,0.000186882,0.040800076,-0.053038828,9.766882896
1784244362.965584,-0.005088077,-0.003636133,-0.172203451,0.001501894,0.000611690,0.000469531,0.039214365,-0.072744593,9.768548965
1784244362.967586,-0.005096287,-0.003635645,-0.172195882,0.000444675,0.000336600,0.001161205,0.009351910,-0.053754885,9.798232079
1784244362.969630,-0.005092252,-0.003636504,-0.172198355,0.000092430,0.000224567,0.001196891,0.011778345,-0.038965937,9.793396950
1784244362.971622,-0.005087114,-0.003632867,-0.172198892,0.000689237,0.000353172,0.000665810,0.008526650,-0.051147457,9.748034477
1784244362.973598,-0.005087369,-0.003629825,-0.172195747,0.000835188,0.000573645,0.000658258,0.052189223,-0.037643827,9.786720276
1784244362.975599,-0.005087632,-0.003628791,-0.172188878,0.000576761,0.000555099,0.001156630,0.043356225,-0.023041835,9.828499794
1784244362.977641,-0.005085554,-0.003626914,-0.172181755,0.000460750,0.000593147,0.001790867,0.032020185,-0.034370210,9.803757668
1784244362.979604,-0.005087674,-0.003629829,-0.172183186,0.000248105,0.000355689,0.001691616,0.012623338,-0.041417550,9.821626663
1784244362.981598,-0.005094053,-0.003632961,-0.172185719,-0.000397088,-0.000150011,0.000966814,0.051208902,-0.044771094,9.782638550
1784244362.983603,-0.005096317,-0.003636226,-0.172191113,-0.000829905,-0.000481150,0.000168293,0.027677365,-0.021827037,9.811903954
1784244362.985601,-0.005093048,-0.003634953,-0.172195151,-0.000490777,-0.000422788,-0.000519023,0.041278653,-0.013192548,9.770277977
1784244362.987599,-0.005090856,-0.003633148,-0.172190189,-0.000061701,-0.000116563,-0.000313946,0.017572002,-0.042189125,9.795176506
1784244362.989614,-0.005089475,-0.003632388,-0.172191337,0.000123454,0.000070677,0.000033618,-0.008672189,-0.058582854,9.816565514
1784244362.991609,-0.005093157,-0.003629457,-0.172188163,-0.000065813,0.000301346,0.000160462,0.016115354,-0.051960241,9.785696030
1784244362.993611,-0.005099168,-0.003627013,-0.172184274,-0.000674189,0.000508355,0.000595320,0.027263803,-0.057917938,9.784324646
1784244362.995611,-0.005095930,-0.003628656,-0.172188327,-0.000649464,0.000351115,0.000423739,0.028686212,-0.051253915,9.789748192
1784244362.997611,-0.005091521,-0.003622361,-0.172188073,0.000077759,0.000554456,0.000048916,0.001435820,-0.038605142,9.824324608
1784244362.999614,-0.005086381,-0.003618461,-0.172188640,0.000737617,0.001077729,0.000012831,0.021786336,-0.029503992,9.767912865
1784244363.001618,-0.005087124,-0.003618471,-0.172192425,0.000834819,0.001050742,-0.000287116,0.036845773,-0.044218637,9.793835640
1784244363.003626,-0.005092067,-0.003615032,-0.172192484,0.000236607,0.001038074,-0.000470545,0.031128472,-0.069877394,9.821014404
1784244363.005620,-0.005094869,-0.003606538,-0.172193050,-0.000338101,0.001604990,-0.000384561,0.040255684,-0.059056889,9.795087814
1784244363.007619,-0.005096808,-0.003604718,-0.172197908,-0.000558481,0.001891841,-0.000647242,0.044217881,-0.065383278,9.795500755
1784244363.009623,-0.005097233,-0.003601017,-0.172203556,-0.000558995,0.001777202,-0.001183136,0.033735700,-0.041503351,9.795643806
1784244363.011624,-0.005096372,-0.003598662,-0.172203884,-0.000379120,0.001707863,-0.001266282,0.011135619,-0.053460285,9.816617966
1784244363.013632,-0.005094821,-0.003593568,-0.172207654,-0.000122026,0.001637217,-0.001200403,0.035936691,-0.044299353,9.806836128
1784244363.015633,-0.005093404,-0.003591479,-0.172212496,0.000101966,0.001569240,-0.001459325,-0.007669893,-0.051687330,9.790158272
1784244363.017629,-0.005093047,-0.003589539,-0.172211498,0.000225082,0.001230172,-0.001324692,0.014301795,-0.051680066,9.812597275
1784244363.019627,-0.005091161,-0.003593552,-0.172216907,0.000346533,0.000569064,-0.001264973,0.036604557,-0.063954368,9.797296524
1784244363.021643,-0.005091377,-0.003590129,-0.172213495,0.000365419,0.000375195,-0.001057509,0.020879777,-0.065938897,9.789647102
1784244363.023635,-0.005093499,-0.003582320,-0.172210634,0.000150598,0.000952966,-0.000343125,0.028041929,-0.066571057,9.802650452
1784244363.025635,-0.005096577,-0.003577265,-0.172215730,-0.000202211,0.001487519,-0.000400041,0.069903344,-0.057552285,9.782127380
1784244363.027631,-0.005093133,-0.003577395,-0.172207803,-0.000156019,0.001565576,-0.000099772,0.043136530,-0.007449282,9.778386116
1784244363.029638,-0.005090217,-0.003577192,-0.172199637,0.000287777,0.001288497,0.001020353,0.046048604,-0.025506545,9.792172432
1784244363.031640,-0.005088575,-0.003578818,-0.172204211,0.000519992,0.000840843,0.000986402,0.039825451,-0.058094807,9.786577225
1784244363.033650,-0.005087387,-0.003577685,-0.172211468,0.000602449,0.000630081,-0.000084830,0.024811476,-0.074127063,9.799909592
1784244363.035643,-0.005084874,-0.003571367,-0.172213614,0.000722214,0.001014879,-0.000699651,0.009571707,-0.073804416,9.781964302
1784244363.037655,-0.005084099,-0.003575351,-0.172216073,0.000839964,0.000842900,-0.000825081,0.028408125,-0.070875548,9.840284348
1784244363.039649,-0.005083266,-0.003576704,-0.172218531,0.000811658,0.000196979,-0.000937589,0.045031570,-0.034949921,9.798834801
1784244363.041653,-0.005087155,-0.003570320,-0.172219142,0.000383096,0.000486023,-0.000889604,0.058322772,-0.049431719,9.795168877
1784244363.043653,-0.005088086,-0.003562973,-0.172217295,-0.000067808,0.001308285,-0.000562630,0.070490338,-0.043903358,9.814942360
1784244363.045652,-0.005084511,-0.003557461,-0.172220513,0.000109784,0.001848947,-0.000504472,0.047107965,-0.086045623,9.797613144
1784244363.047652,-0.005086953,-0.003553589,-0.172226697,0.000328321,0.002011183,-0.001004808,0.036061890,-0.071579859,9.799488068
1784244363.049661,-0.005091197,-0.003554891,-0.172226518,-0.000042411,0.001665666,-0.001138049,0.015751008,-0.079962768,9.817797661
1784244363.051657,-0.005092814,-0.003557816,-0.172222897,-0.000427831,0.000925131,-0.000570104,0.022597494,-0.035059541,9.791639328
1784244363.053664,-0.005090609,-0.003555672,-0.172219217,-0.000272927,0.000595513,0.000080173,0.024142241,-0.017298251,9.811481476
1784244363.055671,-0.005094231,-0.003549291,-0.172219813,-0.000297198,0.000988611,0.000268374,0.044386588,-0.051893562,9.788414001
1784244363.057662,-0.005100575,-0.003553298,-0.172223419,-0.000877870,0.000942052,-0.000084672,0.027305303,-0.051916745,9.822471619
1784244363.059666,-0.005108547,-0.003556678,-0.172226980,-0.001596888,0.000246573,-0.000544588,0.011396795,-0.033972200,9.784911156
1784244363.061669,-0.005108766,-0.003558018,-0.172231838,-0.001721358,-0.000137833,-0.000968575,0.004981590,-0.042644627,9.818921089
1784244363.063668,-0.005097296,-0.003549742,-0.172231570,-0.000503327,0.000268440,-0.001018817,0.039079443,-0.044730324,9.798766136
1784244363.065669,-0.005087548,-0.003538995,-0.172232583,0.001061291,0.001383516,-0.000797053,0.024123976,-0.059084848,9.765034676
1784244363.067675,-0.005088344,-0.003537067,-0.172239304,0.001366289,0.001811734,-0.001108314,0.005969804,0.001729573,9.814724922
1784244363.069709,-0.005089174,-0.003541591,-0.172236741,0.000871469,0.001085915,-0.001089259,0.016176423,-0.008619918,9.802563667
1784244363.071683,-0.005087073,-0.003546146,-0.172234178,0.000722337,0.000173027,-0.000445370,0.036493976,-0.035342701,9.806447029
1784244363.073684,-0.005083456,-0.003546468,-0.172234505,0.000852519,-0.000187373,-0.000172796,0.030463934,-0.051817082,9.802747726
1784244363.075682,-0.005079403,-0.003543882,-0.172233745,0.001079478,0.000035408,-0.000097678,0.027400756,-0.045489490,9.800543785
1784244363.077683,-0.005082517,-0.003544345,-0.172237545,0.000847050,0.000149431,-0.000278529,0.033733744,-0.077082448,9.821418762
1784244363.079682,-0.005089217,-0.003548278,-0.172232360,-0.000051057,-0.000211507,-0.000107029,0.010147231,-0.063487977,9.779339790
1784244363.081685,-0.005091082,-0.003549874,-0.172229767,-0.000616548,-0.000532058,0.000450971,0.043283936,-0.067281261,9.812075615
1784244363.083686,-0.005091578,-0.003547261,-0.172233060,-0.000623909,-0.000262420,0.000283257,0.034205742,-0.076093696,9.807526588
1784244363.085711,-0.005093481,-0.003551245,-0.172228083,-0.000631417,-0.000228957,0.000322633,0.003828920,-0.066127047,9.783800125
1784244363.087703,-0.005098934,-0.003561517,-0.172223702,-0.000866795,-0.001285261,0.000868435,0.014819767,-0.083055206,9.813292503
1784244363.089707,-0.005101043,-0.003565753,-0.172229394,-0.001054803,-0.002068161,0.000543872,0.041939043,-0.032501347,9.775085449
1784244363.091705,-0.005099374,-0.003563934,-0.172232404,-0.000800356,-0.001667659,-0.000191988,0.046269327,-0.044333018,9.792947769
1784244363.093706,-0.005095379,-0.003556830,-0.172227383,-0.000228488,-0.000592528,-0.000001003,0.033936057,-0.025332235,9.789471626
1784244363.095707,-0.005097473,-0.003554977,-0.172224537,-0.000065953,0.000190998,0.000534865,0.004497938,-0.084962457,9.785026550
1784244363.097704,-0.005097085,-0.003554341,-0.172221407,-0.000025606,0.000205430,0.000795653,0.008299487,-0.067124985,9.790075302
1784244363.099709,-0.005099476,-0.003554078,-0.172216177,-0.000015854,0.000107165,0.001147463,0.018028354,-0.042134456,9.786658287
1784244363.101707,-0.005107170,-0.003555870,-0.172218934,-0.000695589,-0.000026576,0.001005175,0.048521399,-0.045915134,9.759314537
1784244363.103708,-0.005108193,-0.003560696,-0.172220364,-0.001120875,-0.000445977,0.000448543,0.036937661,-0.073383205,9.799477577
1784244363.105707,-0.005108548,-0.003568940,-0.172214881,-0.000930494,-0.001192312,0.000600986,0.059615474,-0.055138920,9.776303291
1784244363.107712,-0.005108689,-0.003571526,-0.172214448,-0.000699177,-0.001503794,0.000839844,0.041050561,-0.030393131,9.795273781
1784244363.109718,-0.005109406,-0.003566504,-0.172213450,-0.000556339,-0.000828587,0.000711953,0.012756309,-0.067420952,9.823702812
1784244363.111789,-0.005107486,-0.003563631,-0.172211885,-0.000322977,-0.000068555,0.000692693,0.020535231,-0.057005722,9.794187546
1784244363.113721,-0.005109157,-0.003566846,-0.172207996,-0.000214513,-0.000145405,0.000873621,0.037449483,-0.068432763,9.795474052
1784244363.115726,-0.005112102,-0.003570816,-0.172207013,-0.000465909,-0.000665584,0.000966211,0.047731090,-0.070490383,9.814300537
1784244363.117727,-0.005110691,-0.003570611,-0.172207355,-0.000355185,-0.000685943,0.000747297,0.025417386,-0.060328696,9.811655998
1784244363.119735,-0.005109018,-0.003568791,-0.172210842,0.000037851,-0.000306279,0.000283634,0.014861591,-0.081914447,9.778778076
1784244363.121728,-0.005112431,-0.003567979,-0.172211990,-0.000091716,-0.000042881,-0.000109029,0.030431710,-0.054908302,9.796451569
1784244363.123726,-0.005118061,-0.003569792,-0.172209188,-0.000696681,-0.000154135,0.000035663,0.032529417,-0.029845472,9.796612740
1784244363.125726,-0.005116733,-0.003571159,-0.172205284,-0.000814349,-0.000384762,0.000483735,0.019903842,-0.034631144,9.799262047
1784244363.127734,-0.005112491,-0.003565486,-0.172209814,-0.000243123,-0.000106775,0.000308228,0.015778696,-0.040533263,9.817600250
1784244363.129738,-0.005116199,-0.003566529,-0.172209635,-0.000169695,0.000118980,-0.000072768,0.023501689,-0.034206916,9.796130180
1784244363.131738,-0.005119418,-0.003568908,-0.172204435,-0.000592551,-0.000147499,0.000314440,0.035094637,-0.040608779,9.793410301
1784244363.133747,-0.005114568,-0.003569070,-0.172200486,-0.000376124,-0.000276835,0.000850437,0.047511976,-0.051651191,9.811732292
1784244363.135744,-0.005114280,-0.003569362,-0.172198966,0.000018739,-0.000228069,0.000989353,0.033265118,-0.080475971,9.795393944
1784244363.137738,-0.005111189,-0.003574234,-0.172200933,0.000321723,-0.000532258,0.000691544,0.016542716,-0.052134518,9.809456825
1784244363.139747,-0.005102916,-0.003574877,-0.172198847,0.001084541,-0.000777923,0.000511424,-0.002301570,-0.051883511,9.808095932
1784244363.141742,-0.005105800,-0.003571426,-0.172194660,0.001157344,-0.000378250,0.000797856,0.017651135,-0.032648757,9.839621544
1784244363.143752,-0.005105839,-0.003567149,-0.172195509,0.000616579,0.000136518,0.000808252,0.047888584,-0.020309810,9.814175606
1784244363.145750,-0.005108472,-0.003572702,-0.172204912,0.000236304,-0.000094954,-0.000108174,0.040651400,-0.027159445,9.782293320
1784244363.147749,-0.005108891,-0.003576514,-0.172214836,-0.000116437,-0.000708979,-0.001392145,0.031646110,-0.029722687,9.780921936
1784244363.149753,-0.005109908,-0.003574934,-0.172214389,-0.000261272,-0.000675616,-0.001656731,0.064790688,-0.036695842,9.756699562
1784244363.151753,-0.005105949,-0.003578187,-0.172208607,0.000010907,-0.000607917,-0.000783580,0.041264318,-0.050490357,9.785730362
1784244363.153757,-0.005102076,-0.003583619,-0.172214538,0.000530977,-0.000991393,-0.000582642,0.027320994,-0.054629583,9.762825012
1784244363.155763,-0.005100871,-0.003578607,-0.172223106,0.000719358,-0.000704745,-0.001408208,0.020324618,-0.076499790,9.763574600
1784244363.157755,-0.005100158,-0.003571876,-0.172226325,0.000755284,0.000206030,-0.001825356,-0.001686870,-0.074795082,9.815571785
1784244363.159760,-0.005101991,-0.003571614,-0.172225595,0.000577554,0.000543859,-0.001499569,0.022830063,-0.053387187,9.785244942
1784244363.161768,-0.005103645,-0.003577721,-0.172221735,0.000185219,-0.000002155,-0.000779669,0.055434700,-0.028753463,9.790814400
1784244363.163769,-0.005099501,-0.003584471,-0.172221825,0.000273940,-0.000889605,-0.000311518,0.044684205,-0.026039004,9.806513786
1784244363.165773,-0.005096002,-0.003587706,-0.172227994,0.000685873,-0.001337650,-0.000654786,0.028769307,-0.043708533,9.799659729
1784244363.167770,-0.005099167,-0.003589502,-0.172229931,0.000537598,-0.001352451,-0.001030192,0.029038077,-0.058103088,9.807188988
1784244363.169768,-0.005097606,-0.003592200,-0.172222868,0.000301244,-0.001331385,-0.000401107,0.045125417,-0.028535381,9.778701782
1784244363.171773,-0.005098709,-0.003595663,-0.172217384,0.000253622,-0.001392477,0.000562397,0.030261211,-0.068817347,9.799500465
1784244363.173776,-0.005100087,-0.003599615,-0.172219068,0.000002437,-0.001520991,0.000667778,0.037655585,-0.088590406,9.794448853
1784244363.175780,-0.005099468,-0.003598311,-0.172225550,-0.000066610,-0.001286875,-0.000065778,0.023698008,-0.055657573,9.787920952
1784244363.177783,-0.005099468,-0.003600192,-0.172229841,-0.000006831,-0.001008408,-0.000779907,0.009083728,-0.036113679,9.838247299
1784244363.179776,-0.005096572,-0.003604756,-0.172226802,0.000193580,-0.001207206,-0.000652266,0.026765399,-0.023956781,9.797991753
1784244363.181779,-0.005091741,-0.003604035,-0.172226012,0.000666520,-0.001141667,-0.000214605,0.042875580,-0.027340813,9.803812981
1784244363.183785,-0.005093125,-0.003602692,-0.172228187,0.000691171,-0.000656278,-0.000254880,0.051508125,-0.018903811,9.798943520
1784244363.185785,-0.005095738,-0.003602683,-0.172230929,0.000202887,-0.000349778,-0.000519960,0.015164787,-0.055205300,9.802711487
1784244363.187784,-0.005093332,-0.003606351,-0.172240332,0.000133136,-0.000540572,-0.001202320,0.046921138,-0.064925291,9.789230347
1784244363.189796,-0.005094928,-0.003611654,-0.172244698,0.000151001,-0.001039624,-0.001809619,0.023292579,-0.052068133,9.787943840
1784244363.191792,-0.005090133,-0.003614116,-0.172243729,0.000326402,-0.001283250,-0.001547084,-0.000401979,-0.043379344,9.805910110
1784244363.193794,-0.005088381,-0.003616370,-0.172248319,0.000672344,-0.001354976,-0.001372946,0.002171750,-0.054885954,9.781181335
1784244363.195795,-0.005089144,-0.003615854,-0.172247857,0.000546924,-0.001204944,-0.001281664,0.008274738,-0.070562407,9.769430161
1784244363.197800,-0.005086358,-0.003611147,-0.172243088,0.000585856,-0.000614948,-0.000580468,0.030943938,-0.049954679,9.791999817
1784244363.199843,-0.005085767,-0.003607201,-0.172239929,0.000706714,0.000046744,0.000112303,0.052752145,-0.028642654,9.780052185
1784244363.201808,-0.005087878,-0.003609055,-0.172240809,0.000412106,0.000175246,0.000235314,0.030553997,-0.043000948,9.822978973
1784244363.203839,-0.005089340,-0.003607026,-0.172244877,-0.000001578,0.000147999,-0.000163462,0.030142982,-0.040266097,9.817168236
1784244363.205822,-0.005093521,-0.003603290,-0.172245979,-0.000443440,0.000507758,-0.000470127,0.042229690,-0.042670663,9.818509102
1784244363.207811,-0.005103991,-0.003603242,-0.172250882,-0.001326830,0.000668230,-0.000749142,0.009785834,-0.052661583,9.832761765
1784244363.209813,-0.005112229,-0.003606354,-0.172253981,-0.002246325,0.000320903,-0.001081790,0.023942390,-0.035086334,9.792984962
1784244363.211816,-0.005114905,-0.003611119,-0.172255144,-0.002378294,-0.000299454,-0.001072587,0.049481831,-0.036513459,9.821694374
1784244363.213819,-0.005111298,-0.003616623,-0.172254980,-0.001717375,-0.000922862,-0.000849013,0.062499084,-0.037452102,9.804215431
1784244363.215828,-0.005111238,-0.003616111,-0.172258481,-0.001050820,-0.001018023,-0.000846314,0.028695997,-0.049960911,9.796930313
1784244363.217822,-0.005115621,-0.003615299,-0.172259361,-0.001048727,-0.000667710,-0.000914986,0.029767161,-0.074437961,9.771667480
1784244363.219821,-0.005120131,-0.003615275,-0.172256798,-0.001355938,-0.000447725,-0.000550507,0.069530763,-0.088861868,9.775198936
1784244363.221828,-0.005114024,-0.003619077,-0.172254756,-0.000878243,-0.000584237,-0.000086957,0.032562263,-0.064744487,9.789666176
1784244363.223829,-0.005109354,-0.003622229,-0.172258824,0.000173983,-0.000868503,-0.000200472,0.022619693,-0.070447862,9.790515900
1784244363.225824,-0.005109844,-0.003621450,-0.172258869,0.000492197,-0.000763882,-0.000426557,0.026186587,-0.036325417,9.774150848
1784244363.227827,-0.005108743,-0.003622193,-0.172259212,0.000326829,-0.000576939,-0.000338546,0.025377687,-0.028320573,9.784064293
1784244363.229827,-0.005108168,-0.003622484,-0.172261149,0.000278202,-0.000512749,-0.000401080,0.034102634,-0.047828253,9.802330017
1784244363.231832,-0.005112131,-0.003620876,-0.172258019,-0.000027027,-0.000284525,-0.000211380,0.023164429,-0.063616551,9.773972511
1784244363.233835,-0.005115105,-0.003621697,-0.172254935,-0.000449861,-0.000190204,0.000269079,0.038125925,-0.052051175,9.758816719
1784244363.235843,-0.005114308,-0.003624381,-0.172253668,-0.000435278,-0.000412183,0.000491620,0.064174436,-0.046523351,9.816712379
1784244363.237845,-0.005112498,-0.003622733,-0.172250807,-0.000168576,-0.000306555,0.000637582,0.035594501,-0.034537036,9.820796967
1784244363.239840,-0.005106636,-0.003623618,-0.172246888,0.000370151,-0.000108433,0.000925655,0.027062140,-0.034888480,9.822580338
1784244363.241846,-0.005108187,-0.003623886,-0.172249615,0.000562503,-0.000157612,0.000755029,0.013951314,-0.044414725,9.799640656
1784244363.243847,-0.005110950,-0.003627165,-0.172247857,0.000085941,-0.000401894,0.000484174,0.033991463,-0.057216354,9.799579620
1784244363.245882,-0.005110184,-0.003632236,-0.172245800,-0.000102807,-0.000907537,0.000610217,0.026868211,-0.088598683,9.815062523
1784244363.247902,-0.005109043,-0.003625364,-0.172249302,0.000165714,-0.000594086,0.000345446,-0.018766088,-0.040859308,9.799633026
1784244363.249864,-0.005110814,-0.003622180,-0.172253624,0.000187619,0.000196764,-0.000277822,0.034433372,-0.058086231,9.795090675
1784244363.251856,-0.005113255,-0.003626159,-0.172248155,-0.000148814,0.000088956,-0.000122475,0.037277550,-0.081947908,9.806147575
1784244363.253866,-0.005111427,-0.003628106,-0.172248781,-0.000090671,-0.000318385,0.000242068,0.037219193,-0.088892698,9.774720192
1784244363.255864,-0.005110046,-0.003627611,-0.172250435,0.000209282,-0.000308931,0.000022351,0.017912928,-0.051150911,9.794670105
1784244363.257864,-0.005105856,-0.003629199,-0.172241718,0.000497813,-0.000378670,0.000493787,0.007569867,-0.054846831,9.765943527
1784244363.259858,-0.005099428,-0.003630878,-0.172244728,0.001050170,-0.000576603,0.000746688,0.033329345,-0.039136972,9.778622627
1784244363.261866,-0.005096762,-0.003635962,-0.172248766,0.001380568,-0.000876699,0.000063453,0.028476993,-0.067494981,9.805784225
1784244363.263870,-0.005102215,-0.003638617,-0.172242507,0.000805196,-0.001180386,0.000195767,0.036115859,-0.068316944,9.781575203
1784244363.265867,-0.005104299,-0.003634644,-0.172237486,0.000065768,-0.000789956,0.000908817,0.040476821,-0.040290222,9.801934242
1784244363.267864,-0.005102164,-0.003633253,-0.172240466,0.000073925,-0.000237566,0.000798815,0.026243430,-0.068603449,9.776633263
1784244363.269866,-0.005099724,-0.003635417,-0.172245592,0.000384382,-0.000248214,0.000030893,0.020201672,-0.046769999,9.804563522
1784244363.271868,-0.005100806,-0.003637024,-0.172240362,0.000372221,-0.000436825,0.000029690,0.028867591,-0.034422182,9.816757202
1784244363.273885,-0.005106254,-0.003637180,-0.172237262,-0.000215548,-0.000481418,0.000588017,0.040540870,-0.034110978,9.814975739
1784244363.275882,-0.005111289,-0.003637679,-0.172236845,-0.000913360,-0.000437008,0.000669819,0.032853328,-0.037320666,9.839158058
1784244363.277877,-0.005112036,-0.003639540,-0.172235876,-0.001114598,-0.000461079,0.000585171,0.056860380,-0.057627205,9.816185951
1784244363.279876,-0.005110743,-0.003641177,-0.172226921,-0.000829462,-0.000558808,0.001101402,0.047617674,-0.079490952,9.820073128
1784244363.281883,-0.005110418,-0.003639345,-0.172227487,-0.000492394,-0.000396744,0.001370666,0.024756353,-0.078209594,9.807056427
1784244363.283890,-0.005113645,-0.003635834,-0.172231004,-0.000476326,0.000052980,0.000719870,0.017197400,-0.073514603,9.790491104
1784244363.285888,-0.005115995,-0.003631064,-0.172224671,-0.000644398,0.000577651,0.000715931,0.026011312,-0.085835837,9.806113243
1784244363.287889,-0.005117093,-0.003633607,-0.172221020,-0.000609389,0.000577200,0.001198578,0.038198095,-0.043781567,9.792943001
1784244363.289897,-0.005116345,-0.003637887,-0.172214448,-0.000373606,-0.000037481,0.001565145,0.036095336,-0.030889137,9.810956955
1784244363.291889,-0.005112314,-0.003638746,-0.172216386,0.000053352,-0.000377701,0.001454102,0.041535463,-0.026465798,9.809197426
1784244363.293897,-0.005108389,-0.003646517,-0.172218591,0.000490036,-0.000839240,0.000776508,0.055681709,-0.046156567,9.780391693
1784244363.295902,-0.005108745,-0.003656350,-0.172215819,0.000511477,-0.001786233,0.000603945,0.024177901,-0.052175019,9.801394463
1784244363.297892,-0.005110091,-0.003653264,-0.172212660,0.000244561,-0.001773306,0.000842739,0.043981794,-0.048704386,9.781708717
1784244363.299903,-0.005107140,-0.003654907,-0.172213539,0.000273719,-0.001206775,0.000767431,0.060509898,-0.052742451,9.815772057
1784244363.301905,-0.005106096,-0.003660773,-0.172214955,0.000470060,-0.001388043,0.000402658,0.027014546,-0.040127285,9.803266525
1784244363.303902,-0.005105082,-0.003662383,-0.172211871,0.000395489,-0.001519408,0.000407360,0.008452253,-0.056192677,9.764590263
1784244363.305907,-0.005104495,-0.003659761,-0.172210559,0.000310810,-0.001039912,0.000594460,0.037212938,-0.050946992,9.794240952
1784244363.307904,-0.005105751,-0.003658259,-0.172208503,0.000179903,-0.000419427,0.000659954,0.029729079,-0.039580274,9.784443855
1784244363.309905,-0.005109702,-0.003661677,-0.172216341,-0.000225818,-0.000374283,0.000091144,0.043392397,-0.059535556,9.793744087
1784244363.311903,-0.005107072,-0.003671267,-0.172222301,-0.000257661,-0.001150883,-0.000868873,0.055281751,-0.040092397,9.810467720
1784244363.313915,-0.005105460,-0.003675715,-0.172223449,0.000115607,-0.001741670,-0.001116450,0.074391253,-0.020823525,9.775641441
1784244363.315914,-0.005103309,-0.003675763,-0.172221094,0.000357041,-0.001527183,-0.000733657,0.041357018,-0.042058587,9.796993256
1784244363.317916,-0.005098803,-0.003676031,-0.172223017,0.000752735,-0.001120981,-0.000507209,0.031369153,-0.088951506,9.793544769
1784244363.319913,-0.005098517,-0.003675265,-0.172219381,0.000914806,-0.000770262,-0.000251881,0.039421111,-0.090465657,9.802957535
1784244363.321925,-0.005097694,-0.003677150,-0.172221333,0.000742238,-0.000637627,-0.000067023,0.020783572,-0.073182590,9.800359726
1784244363.323927,-0.005098695,-0.003679617,-0.172225147,0.000632700,-0.000826067,-0.000439369,0.023345461,-0.047598056,9.789318085
1784244363.325920,-0.005104563,-0.003682229,-0.172223419,0.000099726,-0.001014003,-0.000458896,0.030942149,-0.050374024,9.787963867
1784244363.327926,-0.005108795,-0.003677894,-0.172214940,-0.000610116,-0.000612561,0.000359750,0.048341468,-0.060303941,9.766843796
1784244363.329927,-0.005110609,-0.003676041,-0.172214508,-0.000852508,-0.000016537,0.000867994,0.042427730,-0.065728739,9.784288406
1784244363.331948,-0.005112763,-0.003681608,-0.172215149,-0.000890385,-0.000264043,0.000620905,0.063058771,-0.066066340,9.794618607
1784244363.333962,-0.005116305,-0.003684274,-0.172211230,-0.000938572,-0.000625558,0.000674535,0.059372153,-0.035680428,9.812742233
1784244363.335996,-0.005115452,-0.003682184,-0.172210738,-0.000769324,-0.000369587,0.000789029,0.035763793,-0.020637516,9.819093704
1784244363.337967,-0.005109640,-0.003680798,-0.172210798,-0.000191249,0.000011633,0.000603467,0.059247449,-0.047606856,9.788904190
1784244363.339958,-0.005109632,-0.003681353,-0.172207683,0.000173252,0.000108858,0.000647710,0.064992778,-0.054048441,9.802318573
1784244363.341941,-0.005110440,-0.003680580,-0.172199249,0.000074835,0.000090073,0.001256520,0.040051125,-0.075666435,9.799914360
1784244363.343943,-0.005110969,-0.003678471,-0.172197431,0.000041855,0.000292514,0.001611039,0.028162820,-0.057916712,9.782531738
1784244363.345953,-0.005109600,-0.003681154,-0.172202840,0.000162187,0.000210199,0.000929557,0.038122486,-0.048836328,9.810844421
1784244363.347983,-0.005115412,-0.003683174,-0.172205612,-0.000222596,-0.000130778,0.000123908,0.030378317,-0.023008281,9.784102440
1784244363.349955,-0.005122588,-0.003685239,-0.172206536,-0.001081792,-0.000338818,-0.000156813,0.062419787,-0.044562250,9.796099663
1784244363.351961,-0.005123378,-0.003692403,-0.172215164,-0.001331180,-0.000869980,-0.000759973,0.041057047,-0.068742298,9.769473076
1784244363.353957,-0.005123626,-0.003697829,-0.172220305,-0.001044439,-0.001476197,-0.001488674,0.026334926,-0.060181215,9.789240837
1784244363.355974,-0.005124412,-0.003697846,-0.172217160,-0.000832198,-0.001436747,-0.001222560,0.026062649,-0.044598576,9.803687096
1784244363.357963,-0.005123996,-0.003694190,-0.172218025,-0.000563759,-0.000853032,-0.000736597,0.035511158,-0.082105771,9.768486023
1784244363.359982,-0.005121867,-0.003697152,-0.172217309,-0.000171085,-0.000626921,-0.000545840,0.033879489,-0.066610821,9.797724724
1784244363.361960,-0.005121898,-0.003700480,-0.172215372,0.000016777,-0.001111106,-0.000085715,0.041513458,-0.069497697,9.748845100
1784244363.363960,-0.005116663,-0.003690338,-0.172164321,0.000153785,-0.001428021,0.000430952,0.073660955,-0.053942565,9.813835144
1784244363.365963,-0.005116933,-0.003694056,-0.172164425,0.000238506,-0.001458158,0.000538408,0.060867161,-0.061980505,9.791054726
1784244363.367962,-0.005118947,-0.003696901,-0.172162652,0.000083338,-0.001495109,0.000507950,0.033511516,-0.059888840,9.798216820
1784244363.370018,-0.005115173,-0.003694566,-0.172159761,0.000245495,-0.001112230,0.000687052,0.037912987,-0.029110746,9.809623718
1784244363.371967,-0.005116433,-0.003692967,-0.172162712,0.000349446,-0.000543175,0.000494187,0.026438566,-0.049636822,9.818449020
1784244363.374019,-0.005124579,-0.003698150,-0.172162831,-0.000357414,-0.000640945,0.000151019,0.005651817,-0.026717365,9.783159256
1784244363.375986,-0.005125399,-0.003701865,-0.172160000,-0.000841049,-0.001074926,0.000296194,0.039104652,-0.042099789,9.806853294
1784244363.377976,-0.005120195,-0.003708149,-0.172166735,-0.000342753,-0.001415481,-0.000048128,0.055193257,-0.048085749,9.800554276
1784244363.379979,-0.005120410,-0.003709741,-0.172172129,0.000059314,-0.001516568,-0.000857688,0.029632298,-0.047233760,9.789774895
1784244363.381980,-0.005125697,-0.003705986,-0.172166064,-0.000330060,-0.000958194,-0.000578519,0.032440852,-0.074618712,9.792292595
1784244363.383982,-0.005128593,-0.003705187,-0.172165871,-0.000667306,-0.000409176,0.000004647,0.039166324,-0.074339658,9.803956985
1784244363.385987,-0.005130409,-0.003707026,-0.172171012,-0.000680225,-0.000385067,-0.000330422,0.031090556,-0.037449926,9.797460556
1784244363.387979,-0.005125517,-0.003707640,-0.172175288,-0.000365225,-0.000531112,-0.000881794,0.018853713,-0.049198870,9.770474434
1784244363.389992,-0.005123858,-0.003708192,-0.172180161,0.000100213,-0.000550163,-0.001264549,0.026560610,-0.040162869,9.809094429
1784244363.391984,-0.005126686,-0.003704982,-0.172185287,-0.000008870,-0.000216894,-0.001596315,0.066943467,-0.041493550,9.797469139
1784244363.393986,-0.005125949,-0.003707351,-0.172184557,-0.000197527,0.000042741,-0.001458995,0.053440209,-0.046111923,9.778149605
1784244363.395999,-0.005124049,-0.003706586,-0.172182992,-0.000012375,0.000063644,-0.000908088,0.049300101,-0.054158460,9.783024788
1784244363.397994,-0.005125305,-0.003704912,-0.172178760,0.000069654,0.000257995,-0.000271171,0.028667567,-0.052616879,9.792429924
1784244363.399998,-0.005123109,-0.003701763,-0.172177732,0.000149331,0.000561576,0.000157647,0.049445350,-0.039233021,9.826160431
1784244363.402000,-0.005120921,-0.003701527,-0.172180712,0.000405860,0.000639586,-0.000017844,0.037137389,-0.056811813,9.800031662
1784244363.404000,-0.005122371,-0.003699684,-0.172186583,0.000412294,0.000629243,-0.000615696,0.034549784,-0.048656784,9.792012215
1784244363.406003,-0.005121437,-0.003694128,-0.172192469,0.000330961,0.000983836,-0.001247914,0.046879262,-0.030502850,9.800210953
1784244363.408000,-0.005119953,-0.003692344,-0.172196791,0.000307415,0.001223106,-0.001600216,0.032131359,-0.024982102,9.806508064
1784244363.410007,-0.005122394,-0.003697368,-0.172192588,0.000063863,0.000675678,-0.001175277,0.042770155,-0.073057674,9.806209564
1784244363.412005,-0.005121566,-0.003700563,-0.172197193,-0.000062985,-0.000065536,-0.000885592,0.042036340,-0.061217945,9.780730247
1784244363.414010,-0.005122148,-0.003702112,-0.172207117,-0.000024002,-0.000367064,-0.001629769,0.037741795,-0.044646304,9.789351463
1784244363.416008,-0.005121273,-0.003701064,-0.172211707,0.000007516,-0.000298771,-0.002170284,0.049431015,-0.041777711,9.805969238
1784244363.418018,-0.005118341,-0.003698310,-0.172208786,0.000267128,0.000085101,-0.001695320,0.040230427,-0.060877357,9.799112320
1784244363.420016,-0.005118780,-0.003696452,-0.172214687,0.000366658,0.000420264,-0.001439405,0.042184401,-0.046270259,9.820727348
1784244363.422024,-0.005120900,-0.003700411,-0.172217697,0.000091153,0.000166636,-0.001653440,0.053209819,-0.064951718,9.781613350
1784244363.424019,-0.005125192,-0.003701968,-0.172215909,-0.000365478,-0.000162574,-0.001287071,0.058856063,-0.077849194,9.820989609
1784244363.426015,-0.005128841,-0.003699283,-0.172218367,-0.000801818,0.000048477,-0.000981725,0.019417157,-0.073730946,9.816945076
1784244363.428025,-0.005129360,-0.003694771,-0.172218665,-0.000809068,0.000469750,-0.000901713,0.036650702,-0.061158497,9.782071114
1784244363.430019,-0.005127494,-0.003695600,-0.172214210,-0.000438347,0.000535721,-0.000374824,0.055934146,-0.060274865,9.812132835
1784244363.432020,-0.005124025,-0.003696445,-0.172210768,0.000044750,0.000273947,0.000260348,0.055153482,-0.052857518,9.778554916
1784244363.434032,-0.005120933,-0.003701052,-0.172205567,0.000502882,-0.000116221,0.000776276,0.033251900,-0.043801002,9.804594994
1784244363.436055,-0.005119336,-0.003699761,-0.172196820,0.000710762,-0.000257317,0.001513758,0.031910572,-0.042935524,9.811325073
1784244363.438050,-0.005117554,-0.003697414,-0.172187299,0.000703665,0.000089814,0.002342090,0.035285387,-0.025324043,9.785886765
1784244363.440043,-0.005114343,-0.003697196,-0.172183082,0.000806930,0.000271411,0.002638415,0.039023235,-0.047605690,9.825199127
1784244363.442036,-0.005115379,-0.003697989,-0.172183439,0.000736400,0.000157380,0.002184764,0.042099811,-0.055448506,9.788389206
1784244363.444036,-0.005113342,-0.003697882,-0.172181621,0.000631757,0.000129877,0.001692043,0.023094473,-0.031036830,9.792114258
1784244363.446036,-0.005113310,-0.003696832,-0.172179013,0.000628730,0.000233829,0.001532478,0.041225884,-0.051199049,9.822489738
1784244363.448038,-0.005116472,-0.003696707,-0.172176421,0.000264223,0.000259134,0.001469535,0.068404891,-0.030874195,9.813678741
1784244363.450043,-0.005116188,-0.003696987,-0.172173843,0.000015788,0.000187388,0.001423206,0.051464114,-0.020467086,9.829867363
1784244363.452041,-0.005118495,-0.003694844,-0.172178671,-0.000126454,0.000263798,0.000884784,0.023025203,-0.034420568,9.827061653
1784244363.454047,-0.005117414,-0.003693282,-0.172185391,-0.000281819,0.000413889,-0.000138820,0.010498757,-0.068313561,9.827280998
1784244363.456051,-0.005119537,-0.003695390,-0.172184393,-0.000380996,0.000232656,-0.000488962,0.024400461,-0.071392223,9.794097900
1784244363.458048,-0.005126589,-0.003696426,-0.172177017,-0.000818693,-0.000045289,0.000211316,0.048102159,-0.078403629,9.792282104
1784244363.460048,-0.005133214,-0.003697158,-0.172177941,-0.001443621,-0.000153699,0.000595136,0.050108615,-0.059329644,9.815720558
1784244363.462049,-0.005136866,-0.003698443,-0.172187060,-0.001751743,-0.000245398,-0.000244304,0.043475773,-0.053203695,9.785266876
1784244363.464063,-0.005137390,-0.003699566,-0.172192991,-0.001577246,-0.000278400,-0.001197990,0.011905036,-0.067450412,9.766315460
1784244363.466061,-0.005139558,-0.003704593,-0.172189891,-0.001346378,-0.000560641,-0.001063631,0.025579013,-0.049326446,9.776307106
1784244363.468057,-0.005140218,-0.003707455,-0.172186807,-0.001163539,-0.000950163,-0.000352991,0.035564050,-0.040045742,9.776376724
1784244363.470062,-0.005134135,-0.003712042,-0.172181815,-0.000469798,-0.001204747,0.000292118,0.046751749,-0.039614689,9.821672440
1784244363.472063,-0.005132270,-0.003711812,-0.172175467,0.000200117,-0.001177321,0.000980143,0.092458785,-0.046758369,9.798804283
1784244363.474076,-0.005130511,-0.003706731,-0.172170192,0.000388939,-0.000398260,0.001503168,0.066212118,-0.065197945,9.792834282
1784244363.476073,-0.005130218,-0.003705951,-0.172167033,0.000418929,0.000207764,0.001667607,0.043123741,-0.081514269,9.797638893
1784244363.478071,-0.005132416,-0.003702152,-0.172161236,0.000257946,0.000471004,0.001822220,0.040898066,-0.045375794,9.760208130
1784244363.480068,-0.005130203,-0.003694766,-0.172155678,0.000271709,0.001110342,0.002100021,0.019039391,-0.071138814,9.768091202
1784244363.482073,-0.005125843,-0.003687928,-0.172153831,0.000646118,0.001771816,0.002033289,0.028398156,-0.075412013,9.785109520
1784244363.484074,-0.005120582,-0.003687558,-0.172149077,0.001202616,0.001728989,0.001928048,0.035215646,-0.030737737,9.791231155
1784244363.486078,-0.005119818,-0.003692881,-0.172146767,0.001363933,0.000872238,0.001882497,0.065368809,-0.023116868,9.799379349
1784244363.488081,-0.005118565,-0.003690431,-0.172142059,0.001050277,0.000504741,0.001850058,0.039751645,-0.025140259,9.815032959
1784244363.490094,-0.005119054,-0.003687521,-0.172138095,0.000737169,0.000795246,0.001937713,0.043736789,-0.031285394,9.789891243
1784244363.492114,-0.005119572,-0.003687263,-0.172134176,0.000470705,0.000791632,0.001946153,0.016998198,-0.054112978,9.771785736
1784244363.494102,-0.005118708,-0.003683028,-0.172130734,0.000403620,0.000823849,0.001916594,0.051016487,-0.059258465,9.804064751
1784244363.496119,-0.005118967,-0.003681979,-0.172124133,0.000372980,0.000900013,0.002075902,0.038523775,-0.053674258,9.797363281
1784244363.498104,-0.005122636,-0.003689500,-0.172128245,0.000000569,0.000242404,0.001681975,0.080285706,-0.051114544,9.803248405
1784244363.500104,-0.005127077,-0.003689716,-0.172137067,-0.000558453,-0.000317131,0.000347094,0.036013395,-0.037614912,9.811812401
1784244363.502121,-0.005127561,-0.003689453,-0.172138467,-0.000743719,-0.000224270,-0.000441694,0.037243206,-0.048681751,9.790669441
1784244363.504103,-0.005120015,-0.003692130,-0.172137707,-0.000068236,-0.000313338,-0.000366038,0.041757151,-0.082469262,9.808391571
1784244363.506102,-0.005121285,-0.003691327,-0.172140434,0.000370215,-0.000341094,-0.000401061,0.028025409,-0.069538265,9.778870583
1784244363.508106,-0.005131262,-0.003692961,-0.172141910,-0.000430754,-0.000330348,-0.000572597,0.018237855,-0.061860040,9.787876129
1784244363.510107,-0.005137356,-0.003691316,-0.172138244,-0.001340138,-0.000267664,-0.000264528,0.053087279,-0.035218749,9.822154999
1784244363.512099,-0.005135275,-0.003695596,-0.172131687,-0.001246144,-0.000377471,0.000501787,0.028150456,-0.056798581,9.814369202
1784244363.514107,-0.005133472,-0.003697255,-0.172127753,-0.000619595,-0.000679582,0.001077741,0.045471221,-0.073022217,9.796350479
1784244363.516105,-0.005134216,-0.003692488,-0.172122464,-0.000355188,-0.000285071,0.001410177,0.050868206,-0.070965864,9.812507629
1784244363.518120,-0.005133428,-0.003691320,-0.172121719,-0.000195674,0.000238001,0.001436992,0.026802335,-0.056797232,9.816611290
1784244363.520108,-0.005131549,-0.003693470,-0.172122046,0.000097167,0.000151494,0.001075114,0.047581080,-0.045837235,9.813115120
1784244363.522122,-0.005133152,-0.003697438,-0.172122434,0.000089432,-0.000304681,0.000736741,0.029753603,-0.035739399,9.811369896
1784244363.524120,-0.005133033,-0.003700858,-0.172123045,-0.000115812,-0.000706734,0.000471482,0.042370722,-0.031020505,9.818136215
1784244363.526127,-0.005135131,-0.003702697,-0.172125772,-0.000299538,-0.000854267,0.000116533,0.050160568,-0.021329500,9.764407158
1784244363.528121,-0.005134293,-0.003704156,-0.172123730,-0.000395901,-0.000801262,0.000039428,0.040625960,-0.029386537,9.780486107
1784244363.530128,-0.005132925,-0.003704179,-0.172123790,-0.000230138,-0.000640305,0.000164833,0.023559736,-0.066475406,9.797266960
1784244363.532123,-0.005132261,-0.003700472,-0.172132879,-0.000031927,-0.000213249,-0.000500138,0.023266688,-0.053488325,9.798695564
1784244363.534135,-0.005134249,-0.003694934,-0.172137439,-0.000045805,0.000443429,-0.001289770,0.017440055,-0.088925906,9.815051079
1784244363.536129,-0.005132586,-0.003696808,-0.172145233,0.000012092,0.000542543,-0.001776754,0.021137852,-0.045259554,9.779467583
1784244363.538131,-0.005131316,-0.003701362,-0.172140807,0.000189825,-0.000092447,-0.001521480,0.022705443,-0.025696877,9.797976494
1784244363.540131,-0.005132643,-0.003700567,-0.172133937,0.000119990,-0.000378977,-0.000342001,0.035135664,-0.036637541,9.801952362
1784244363.542131,-0.005133376,-0.003700298,-0.172138512,-0.000051869,-0.000204660,-0.000094584,0.071169876,-0.063466161,9.792401314
1784244363.544133,-0.005133911,-0.003701570,-0.172140688,-0.000103858,-0.000128697,-0.000528272,0.052928049,-0.049038775,9.812650681
1784244363.546140,-0.005137312,-0.003699420,-0.172141030,-0.000321855,0.000052807,-0.000554963,0.046573661,-0.019641101,9.785484314
1784244363.548139,-0.005136603,-0.003699297,-0.172141880,-0.000534728,0.000221059,-0.000484034,0.002559583,-0.022645470,9.783182144
1784244363.550137,-0.005136576,-0.003700630,-0.172142714,-0.000457219,0.000107352,-0.000469413,0.030885246,-0.054875892,9.791072845
1784244363.552137,-0.005141318,-0.003695820,-0.172136620,-0.000651875,0.000312336,0.000011789,0.024579763,-0.056603145,9.793295860
1784244363.554148,-0.005142874,-0.003690720,-0.172126561,-0.000863684,0.000835864,0.001104438,0.005844178,-0.046173036,9.809484482
1784244363.556148,-0.005141281,-0.003691810,-0.172121570,-0.000588196,0.000817075,0.001826668,0.044185948,-0.066851154,9.812975883
1784244363.558197,-0.005144815,-0.003693060,-0.172124565,-0.000497753,0.000450016,0.001466122,0.034855954,-0.059108727,9.812121391
1784244363.560165,-0.005144453,-0.003689621,-0.172128081,-0.000517560,0.000493070,0.000627403,0.053400911,-0.048853736,9.785751343
1784244363.562155,-0.005141985,-0.003687533,-0.172129959,-0.000186317,0.000736253,0.000090342,0.055702366,-0.044777706,9.775468826
1784244363.564159,-0.005140955,-0.003691360,-0.172137767,0.000123519,0.000500460,-0.000591922,0.025782030,-0.030702855,9.803326607
1784244363.566156,-0.005145130,-0.003691050,-0.172145292,-0.000103205,0.000209896,-0.001469413,0.015937677,-0.029146634,9.791223526
1784244363.568165,-0.005144588,-0.003688209,-0.172144800,-0.000410842,0.000320314,-0.001547482,0.035530049,-0.040719453,9.808204651
1784244363.570160,-0.005138658,-0.003688010,-0.172149912,0.000051671,0.000392352,-0.001440843,0.048303206,-0.063442856,9.767271996
1784244363.572166,-0.005135134,-0.003688846,-0.172155276,0.000676688,0.000246169,-0.001760948,0.039880514,-0.056039050,9.749378204
1784244363.574173,-0.005136250,-0.003688695,-0.172152385,0.000715463,0.000194844,-0.001452940,0.038116038,-0.051724039,9.775855064
1784244363.576169,-0.005135647,-0.003686058,-0.172153234,0.000546633,0.000391687,-0.000920687,0.030570330,-0.043277208,9.798768044
1784244363.578182,-0.005136599,-0.003683195,-0.172156990,0.000317617,0.000664990,-0.000983687,0.014563667,-0.030565478,9.804213524
1784244363.580176,-0.005142937,-0.003681544,-0.172157049,-0.000320191,0.000796838,-0.000976549,0.024842212,-0.035078753,9.790296555
1784244363.582176,-0.005140824,-0.003683701,-0.172152072,-0.000518773,0.000544382,-0.000377158,0.057683911,-0.026710926,9.814591408
1784244363.584181,-0.005136525,-0.003689429,-0.172148421,-0.000018454,-0.000134013,0.000310487,0.033990506,-0.017202530,9.843322754
1784244363.586182,-0.005136725,-0.003688636,-0.172151953,0.000186844,-0.000424966,0.000234651,0.013369814,-0.017998958,9.803396225
1784244363.588180,-0.005135985,-0.003688644,-0.172150418,0.000086952,-0.000327361,0.000036319,0.030484255,-0.013661514,9.792680740
1784244363.590192,-0.005134383,-0.003692646,-0.172152087,0.000136925,-0.000582340,0.000016577,0.049752902,-0.052105643,9.808593750
1784244363.592185,-0.005131129,-0.003692421,-0.172155052,0.000428153,-0.000678959,-0.000303784,0.031363755,-0.051809501,9.800058365
1784244363.594192,-0.005131345,-0.003682264,-0.172151595,0.000576913,0.000149195,-0.000189274,0.044460878,-0.045228202,9.796078682
1784244363.596192,-0.005131274,-0.003678826,-0.172151104,0.000470107,0.000969369,0.000129685,0.044600975,-0.072391048,9.772142410
1784244363.598195,-0.005132523,-0.003684251,-0.172155723,0.000310563,0.000581103,-0.000185132,0.014068404,-0.070948757,9.813369751
