time_sec,roll_rad,pitch_rad,yaw_rad,gyro_x,gyro_y,gyro_z,acc_x,acc_y,acc_z
1784243937.488518,-0.006940303,-0.008174294,0.803228378,-0.000195522,-0.000260409,0.000037654,0.055944737,-0.058975499,9.818417549
1784243937.490499,-0.006940303,-0.008174294,0.803228378,-0.000258878,-0.000114973,0.000679712,0.027527796,-0.073160715,9.785122871
1784243937.492446,-0.006940549,-0.008171816,0.803228438,0.000274787,0.000005490,0.000697151,0.054341659,-0.043254785,9.815828323
1784243937.494431,-0.006940549,-0.008171816,0.803228438,0.000720222,0.000238844,0.000349721,0.123647086,-0.067141004,9.773596764
1784243937.496411,-0.006940549,-0.008171816,0.803228438,0.000624493,0.000104617,0.000545554,0.116521433,-0.060952444,9.798289299
1784243937.498417,-0.006940423,-0.008174179,0.803228378,0.000481679,-0.000046820,0.000760009,0.064767562,-0.072036833,9.812066078
1784243937.500439,-0.006940423,-0.008174179,0.803228378,0.000130033,0.000314616,0.000737953,0.097613506,-0.066877507,9.783436775
1784243937.502470,-0.006940311,-0.008175065,0.803228378,-0.000199624,0.000470715,0.000721172,0.089428760,-0.036116499,9.819942474
1784243937.504475,-0.006940311,-0.008175065,0.803228378,-0.000500145,0.000061887,0.000904510,0.103937171,-0.062980391,9.791090965
1784243937.506458,-0.006940311,-0.008175065,0.803228378,-0.000611937,-0.000380534,0.000947175,0.080577619,-0.027331270,9.797573090
1784243937.508445,-0.006937597,-0.008174720,0.803228438,-0.000309353,-0.000363329,0.000709981,0.108657882,-0.042145878,9.814093590
1784243937.510481,-0.006937597,-0.008174720,0.803228438,-0.000267183,-0.000149886,0.000375557,0.105520226,-0.080480233,9.791875839
1784243937.512462,-0.006938830,-0.008176049,0.803228378,-0.000652026,0.000010749,0.000022991,0.074105144,-0.078908786,9.816514015
1784243937.514467,-0.006938830,-0.008176049,0.803228378,-0.001167891,0.000164094,0.000127014,0.034516629,-0.087724179,9.804314613
1784243937.516457,-0.006938830,-0.008176049,0.803228378,-0.001184121,0.000074268,0.000148087,0.087194785,-0.074818097,9.784720421
1784243937.518436,-0.006938369,-0.008175628,0.803228378,-0.000166826,-0.000268380,-0.000468284,0.094079703,-0.061122481,9.799611092
1784243937.520471,-0.006938369,-0.008175628,0.803228378,0.000607149,-0.000789223,-0.000774349,0.085254051,-0.050920237,9.766940117
1784243937.522442,-0.006936839,-0.008175665,0.803228378,0.000069117,-0.000996771,-0.000673174,0.068734653,-0.041545164,9.801505089
1784243937.524483,-0.006936839,-0.008175665,0.803228378,-0.000769379,-0.000656731,-0.000669649,0.064437911,-0.062986009,9.800018311
1784243937.526478,-0.006936839,-0.008175665,0.803228378,-0.001124399,-0.000107337,-0.000412269,0.103194140,-0.086776994,9.799454689
1784243937.528481,-0.006937457,-0.008176277,0.803228378,-0.001204489,0.000180203,0.000226181,0.109001264,-0.089488633,9.792269707
1784243937.530441,-0.006937457,-0.008176277,0.803228378,-0.001319043,0.000227732,0.000780553,0.084278613,-0.093572550,9.781012535
1784243937.532460,-0.006940398,-0.008176561,0.803228378,-0.001184913,0.000209112,0.000679005,0.077603035,-0.086973563,9.810190201
1784243937.534453,-0.006940398,-0.008176561,0.803228378,-0.000658016,-0.000416183,-0.000191977,0.071604885,-0.066416867,9.765481949
1784243937.536469,-0.006940398,-0.008176561,0.803228378,-0.000583733,-0.001119027,-0.001044970,0.091379724,-0.062365096,9.790184975
1784243937.538451,-0.006940040,-0.008177614,0.803228378,-0.000939488,-0.001033866,-0.001465121,0.082374029,-0.064931519,9.789263725
1784243937.540481,-0.006940040,-0.008177614,0.803228378,-0.000706549,-0.000494476,-0.001226200,0.094787411,-0.039225832,9.806476593
1784243937.542439,-0.006937694,-0.008178175,0.803228378,-0.000140801,-0.000180127,-0.000672870,0.085515462,-0.063751884,9.806758881
1784243937.544428,-0.006937694,-0.008178175,0.803228378,0.000140673,-0.000380261,-0.000507047,0.102992408,-0.065774307,9.807660103
1784243937.546498,-0.006937694,-0.008178175,0.803228378,0.000148541,-0.000414607,-0.000602560,0.098201230,-0.055248983,9.785306931
1784243937.548439,-0.006937090,-0.008179251,0.803228378,0.000051472,0.000101013,-0.000597085,0.088576466,-0.032912038,9.811890602
1784243937.550458,-0.006937090,-0.008179251,0.803228378,-0.000128716,0.000475272,-0.000178086,0.096949041,-0.046790421,9.795222282
1784243937.552441,-0.006935993,-0.008180479,0.803228378,-0.000299452,0.000407352,-0.000037276,0.081596427,-0.055058513,9.788429260
1784243937.554434,-0.006935993,-0.008180479,0.803228378,0.000011331,0.000356390,-0.000457517,0.032587066,-0.062117141,9.798201561
1784243937.556465,-0.006935993,-0.008180479,0.803228378,0.000584879,0.000674843,-0.000652814,0.052081384,-0.083379768,9.791805267
1784243937.558493,-0.006936701,-0.008177171,0.803228378,0.000515622,0.001002303,-0.000831432,0.069660529,-0.077300735,9.787379265
1784243937.560458,-0.006936701,-0.008177171,0.803228378,-0.000131427,0.001264844,-0.000890160,0.078037940,-0.088304117,9.807490349
1784243937.562440,-0.006938750,-0.008177851,0.803228378,-0.000220533,0.001738639,-0.000714140,0.082189612,-0.078545228,9.813834190
1784243937.564499,-0.006938750,-0.008177851,0.803228378,0.000070706,0.001488525,-0.001003853,0.080070674,-0.067806758,9.819728851
1784243937.566439,-0.006938750,-0.008177851,0.803228378,-0.000067203,0.000820796,-0.000676613,0.090120107,-0.054370403,9.802341461
1784243937.568448,-0.006937240,-0.008178415,0.803228378,-0.000487901,0.000981137,0.000323048,0.078729585,-0.032591593,9.784535408
1784243937.570566,-0.006937240,-0.008178415,0.803228378,-0.000412930,0.001168374,0.000637098,0.086408146,-0.065421686,9.787919998
1784243937.572483,-0.006937485,-0.008179801,0.803228378,0.000346088,0.001120395,0.000342470,0.078233987,-0.070951283,9.824191093
1784243937.574461,-0.006937485,-0.008179801,0.803228378,0.000502842,0.001128702,-0.000359952,0.066050552,-0.042257149,9.780426979
1784243937.576484,-0.006937485,-0.008179801,0.803228378,0.000090330,0.000941776,-0.000765259,0.112700097,-0.080972493,9.785156250
1784243937.578457,-0.006938151,-0.008181003,0.803228378,-0.000140576,0.000745431,-0.000176208,0.114134684,-0.072996393,9.795071602
1784243937.580483,-0.006938151,-0.008181003,0.803228378,-0.000670484,0.000623520,0.000378816,0.078911737,-0.090933435,9.797611237
1784243937.582454,-0.006939926,-0.008180851,0.803228378,-0.001437890,0.000236930,0.000112963,0.067874633,-0.075181007,9.807565689
1784243937.584485,-0.006939926,-0.008180851,0.803228378,-0.001782999,-0.000282211,0.000116878,0.081712380,-0.044822179,9.797910690
1784243937.586466,-0.006939926,-0.008180851,0.803228378,-0.001657320,-0.000793558,0.000625039,0.088945068,-0.040034287,9.804672241
1784243937.588464,-0.006937941,-0.008180865,0.803228378,-0.001308405,-0.000877980,0.000527895,0.091635197,-0.076864585,9.812509537
1784243937.590478,-0.006937941,-0.008180865,0.803228378,-0.000615057,-0.000458237,0.000460506,0.092088401,-0.074808590,9.837629318
1784243937.592472,-0.006937987,-0.008181667,0.803228378,0.000233652,-0.000033380,0.000936125,0.065004230,-0.050715946,9.837758064
1784243937.594465,-0.006937987,-0.008181667,0.803228378,0.000941026,0.000096831,0.001010975,0.076051064,-0.067202121,9.804935455
1784243937.596466,-0.006937987,-0.008181667,0.803228378,0.001470958,-0.000237350,0.000557684,0.098666564,-0.051070828,9.827027321
1784243937.598475,-0.006937334,-0.008181754,0.803228378,0.000950853,-0.000634127,0.000405690,0.072393887,-0.072147295,9.813866615
1784243937.600461,-0.006937334,-0.008181754,0.803228378,-0.000278895,-0.000951880,0.000600334,0.072393887,-0.072147295,9.813866615
1784243937.602470,-0.006937229,-0.008181505,0.803228378,-0.000356849,-0.000866091,0.000402212,0.070807159,-0.019112872,9.793581009
1784243937.604466,-0.006937229,-0.008181505,0.803228378,0.000404265,-0.000486324,-0.000082035,0.070807159,-0.019112872,9.793581009
1784243937.606471,-0.006937229,-0.008181505,0.803228378,0.000213358,-0.000422159,0.000302953,0.052305054,-0.063377313,9.813902855
1784243937.608489,-0.006937229,-0.008181505,0.803228378,-0.000671088,-0.000587906,0.001321168,0.052305054,-0.063377313,9.813902855
1784243937.610475,-0.006936478,-0.008179858,0.803228378,-0.000909612,-0.000149960,0.001236301,0.097473435,-0.078114681,9.788744926
1784243937.612475,-0.006936938,-0.008181365,0.803228378,-0.000587735,0.000742918,0.000654959,0.075328499,-0.092863329,9.760384560
1784243937.614478,-0.006936938,-0.008181365,0.803228378,-0.000139289,0.001138411,0.000338687,0.060083386,-0.090961866,9.772486687
1784243937.616480,-0.006937743,-0.008180953,0.803228378,0.000239016,0.001156753,-0.000019497,0.057660758,-0.067725599,9.785634995
1784243937.618501,-0.006937743,-0.008180953,0.803228378,0.000117118,0.001385079,0.000586623,0.079266548,-0.061790522,9.794212341
1784243937.620488,-0.006937845,-0.008181469,0.803228378,-0.000353737,0.001514441,0.001857745,0.077539288,-0.056776360,9.785275459
1784243937.622479,-0.006937845,-0.008181469,0.803228378,-0.000410856,0.001141935,0.002077577,0.070731476,-0.063784368,9.774913788
1784243937.624495,-0.006937845,-0.008181469,0.803228378,-0.000131475,0.000313227,0.001567211,0.078672603,-0.073873363,9.793237686
1784243937.626487,-0.006938203,-0.008180911,0.803228378,-0.000164543,-0.000326913,0.001682234,0.083395489,-0.055453166,9.777669907
1784243937.628491,-0.006938203,-0.008180911,0.803228378,-0.000598412,-0.000300860,0.001443187,0.078689069,-0.035342958,9.793485641
1784243937.630485,-0.006936584,-0.008181042,0.803228378,-0.000968197,-0.000279973,0.001052347,0.072776198,-0.041571472,9.797922134
1784243937.632489,-0.006936584,-0.008181042,0.803228378,-0.000787660,-0.000292367,0.001544413,0.094519429,-0.062414877,9.791532516
1784243937.634508,-0.006936584,-0.008181042,0.803228378,0.000321858,-0.000325070,0.001110020,0.074388936,-0.091969006,9.825397491
1784243937.636513,-0.006937252,-0.008181436,0.803228378,0.001912378,-0.000152475,-0.000323305,0.062882818,-0.079613276,9.809773445
1784243937.638508,-0.006937252,-0.008181436,0.803228378,0.002258369,0.000246807,-0.000518800,0.075842649,-0.045846861,9.826591492
1784243937.640505,-0.006936321,-0.008181614,0.803228378,0.001330840,0.000294093,0.000039574,0.070161425,-0.071626075,9.807589531
1784243937.642503,-0.006936321,-0.008181614,0.803228378,0.000908409,0.000308696,0.000302220,0.088882692,-0.047010891,9.777727127
1784243937.644518,-0.006936321,-0.008181614,0.803228378,0.001158599,0.000044326,0.000330444,0.085998863,-0.061457422,9.798256874
1784243937.646515,-0.006935373,-0.008181311,0.803228378,0.001174900,-0.000539801,-0.000084685,0.081493244,-0.063572958,9.788823128
1784243937.648513,-0.006935373,-0.008181311,0.803228378,0.001118792,-0.000673511,-0.000891034,0.081320569,-0.077904522,9.788282394
1784243937.650506,-0.006936400,-0.008181826,0.803228378,0.001639891,-0.000563091,-0.001133416,0.074808739,-0.096660666,9.791295052
1784243937.652512,-0.006936400,-0.008181826,0.803228378,0.001965676,-0.000323509,-0.000749581,0.069408894,-0.097929202,9.790384293
1784243937.654507,-0.006936400,-0.008181826,0.803228378,0.001102164,-0.000062010,-0.000976677,0.081869863,-0.066984698,9.826909065
1784243937.656520,-0.006936083,-0.008181278,0.803228378,0.000110178,-0.000116044,-0.001721711,0.104818299,-0.025935732,9.809710503
1784243937.658511,-0.006936083,-0.008181278,0.803228378,-0.000345271,-0.000448489,-0.001904632,0.113915086,-0.052540228,9.817169189
1784243937.660511,-0.006936105,-0.008184349,0.803228378,-0.001150072,-0.000833108,-0.001461776,0.107767761,-0.077640347,9.829556465
1784243937.662509,-0.006936105,-0.008184349,0.803228378,-0.001987306,-0.000895047,-0.001066135,0.103357799,-0.072922006,9.804028511
1784243937.664516,-0.006936105,-0.008184349,0.803228378,-0.001763146,-0.000767953,-0.000974200,0.057893574,-0.083619848,9.815123558
1784243937.666517,-0.006936543,-0.008182903,0.803228378,-0.001074032,-0.000537151,-0.000887569,0.063460164,-0.069687575,9.799077988
1784243937.668518,-0.006936543,-0.008182903,0.803228378,-0.000914683,-0.000240654,-0.000607667,0.053132545,-0.069209136,9.813417435
1784243937.670519,-0.006937323,-0.008180983,0.803228378,-0.001105839,-0.000038570,-0.000530690,0.071546882,-0.069711566,9.787877083
1784243937.672534,-0.006937323,-0.008180983,0.803228378,-0.001048821,-0.000110124,-0.000367209,0.066395395,-0.049566995,9.799659729
1784243937.674525,-0.006937323,-0.008180983,0.803228378,-0.000719362,-0.000098781,0.000637236,0.070539758,-0.041892119,9.784020424
1784243937.676528,-0.006934855,-0.008180402,0.803228378,-0.000095421,0.000318771,0.001462112,0.090906844,-0.065386966,9.774921417
1784243937.678523,-0.006934855,-0.008180402,0.803228378,0.000524302,0.000627481,0.001034360,0.082436517,-0.059575066,9.791987419
1784243937.680562,-0.006935005,-0.008181290,0.803228378,0.000811515,0.000587698,0.000143354,0.088570289,-0.071766399,9.794157028
1784243937.682535,-0.006935005,-0.008181290,0.803228378,0.000732604,0.000669707,-0.000487522,0.069167696,-0.045321833,9.764718056
1784243937.684567,-0.006935005,-0.008181290,0.803228378,0.000407326,0.001143551,-0.000493932,0.088152662,-0.069489047,9.789688110
1784243937.686544,-0.006935467,-0.008181945,0.803228378,-0.000248647,0.001292612,-0.000067117,0.106497906,-0.072968602,9.804925919
1784243937.688536,-0.006935467,-0.008181945,0.803228378,-0.000803749,0.000916941,0.000096579,0.076831475,-0.077052861,9.802631378
1784243937.690567,-0.006935687,-0.008181455,0.803228378,-0.000558903,0.000439606,-0.000000896,0.080415569,-0.041173548,9.791208267
1784243937.692564,-0.006935687,-0.008181455,0.803228378,-0.000673835,-0.000230279,0.000142456,0.066686019,-0.062573157,9.800921440
1784243937.694542,-0.006935687,-0.008181455,0.803228378,-0.001460249,-0.000547053,-0.000024054,0.072544754,-0.060014188,9.808565140
1784243937.696553,-0.006934981,-0.008180413,0.803228378,-0.001716587,-0.000005164,-0.000483530,0.080827788,-0.081488833,9.789155960
1784243937.698545,-0.006934981,-0.008180413,0.803228378,-0.001397564,0.000470487,-0.000221291,0.094406128,-0.070198737,9.815245628
1784243937.700583,-0.006934633,-0.008180575,0.803228378,-0.001096286,0.000544935,0.000184964,0.104169585,-0.044124689,9.785383224
1784243937.702548,-0.006934633,-0.008180575,0.803228378,-0.000389293,0.000469800,0.000174089,0.054596901,-0.060187660,9.802268028
1784243937.704545,-0.006934633,-0.008180575,0.803228378,0.000392623,0.000033652,0.000254725,0.043012805,-0.053715855,9.795126915
1784243937.706549,-0.006932683,-0.008177339,0.803228438,0.000672171,-0.000335500,0.000402979,0.061646253,-0.073057480,9.772153854
1784243937.708549,-0.006932683,-0.008177339,0.803228438,0.000878680,-0.000422137,0.000132912,0.068349652,-0.036173422,9.802884102
1784243937.710547,-0.006930721,-0.008175780,0.803228498,0.001026586,-0.000684211,0.000097525,0.052650169,-0.074737526,9.772583008
1784243937.712551,-0.006930721,-0.008175780,0.803228498,0.001259564,-0.000827350,0.000866491,0.078374714,-0.098514400,9.793526649
1784243937.714554,-0.006930721,-0.008175780,0.803228498,0.000950307,-0.000150504,0.001105333,0.099011853,-0.099614374,9.785021782
1784243937.716563,-0.006933196,-0.008176743,0.803228378,-0.000013074,0.000603625,0.001099091,0.089277692,-0.089083046,9.770733833
1784243937.718560,-0.006933196,-0.008176743,0.803228378,-0.000449850,0.000679396,0.001543621,0.059273347,-0.080939785,9.813796043
1784243937.720559,-0.006933321,-0.008174767,0.803228438,-0.000190951,0.000602157,0.001903739,0.031990673,-0.035819020,9.818543434
1784243937.722558,-0.006933321,-0.008174767,0.803228438,0.000130667,0.001085981,0.001916577,0.032695770,-0.051938038,9.815751076
1784243937.724560,-0.006933321,-0.008174767,0.803228438,0.000317550,0.001963918,0.001441382,0.085287318,-0.045389265,9.808220863
1784243937.726559,-0.006931806,-0.008175263,0.803228498,0.000505895,0.002387708,0.000967726,0.072936207,-0.065335050,9.800011635
1784243937.728562,-0.006931806,-0.008175263,0.803228498,0.000616052,0.002043773,0.001431324,0.075881131,-0.080701366,9.813364983
1784243937.730565,-0.006933373,-0.008174952,0.803228438,0.000511196,0.001381678,0.001694257,0.099948511,-0.058484018,9.796047211
1784243937.732564,-0.006933373,-0.008174952,0.803228438,0.000129609,0.000925620,0.001073130,0.113516718,-0.049300183,9.803292274
1784243937.734563,-0.006933373,-0.008174952,0.803228438,0.000015293,0.000699063,0.000711754,0.063318737,-0.081340924,9.799900055
1784243937.736570,-0.006934719,-0.008173556,0.803228438,0.000744175,0.000434160,0.000629748,0.073390201,-0.066109546,9.782073021
1784243937.738573,-0.006934719,-0.008173556,0.803228438,0.001170669,0.000567511,0.000373089,0.075303309,-0.055067055,9.800976753
1784243937.740572,-0.006933484,-0.008174082,0.803228438,0.000072605,0.000893511,0.000564240,0.084548026,-0.070777401,9.788331985
1784243937.742573,-0.006933484,-0.008174082,0.803228438,-0.000643448,0.000640906,0.001224397,0.056132428,-0.080899544,9.813795090
1784243937.744579,-0.006933484,-0.008174082,0.803228438,-0.000025001,0.000412358,0.001093117,0.076207444,-0.056241199,9.775414467
1784243937.746574,-0.006933256,-0.008173842,0.803228438,0.000556009,0.000516990,0.000584006,0.101623453,-0.070395283,9.766831398
1784243937.748578,-0.006933256,-0.008173842,0.803228438,0.000600793,0.000792850,0.000610776,0.090896331,-0.064659566,9.798687935
1784243937.750585,-0.006932781,-0.008173940,0.803228438,0.000524461,0.001063774,0.001153996,0.056242336,-0.035957776,9.794355392
1784243937.752578,-0.006932781,-0.008173940,0.803228438,0.000718046,0.000880911,0.001475796,0.042442303,-0.025997538,9.804718018
1784243937.754582,-0.006932781,-0.008173940,0.803228438,0.001217237,0.000350067,0.001347542,0.070542634,-0.039843090,9.810933113
1784243937.756599,-0.006931348,-0.008172717,0.803228498,0.001488502,-0.000180751,0.001433679,0.074795447,-0.062012471,9.770444870
1784243937.758591,-0.006931348,-0.008172717,0.803228498,0.001237556,-0.000273847,0.001370989,0.083637103,-0.070467375,9.809403419
1784243937.760587,-0.006931834,-0.008172854,0.803228498,0.000314968,-0.000294925,0.000873110,0.084327355,-0.052760996,9.775445938
1784243937.762589,-0.006931834,-0.008172854,0.803228498,-0.000522571,-0.000595487,0.000346092,0.083265565,-0.064584084,9.801819801
1784243937.764589,-0.006931834,-0.008172854,0.803228498,-0.000551920,-0.000534932,0.000325681,0.082885280,-0.060390882,9.779878616
1784243937.766590,-0.006930736,-0.008173409,0.803228498,-0.000336383,-0.000331049,0.000257923,0.073316954,-0.070335157,9.809395790
1784243937.768590,-0.006930736,-0.008173409,0.803228498,-0.000448692,-0.000104854,-0.000242728,0.056721114,-0.106448002,9.814079285
1784243937.770590,-0.006932798,-0.008171751,0.803228438,-0.000786785,-0.000085399,0.000059252,0.071823709,-0.084042527,9.786439896
1784243937.772592,-0.006932798,-0.008171751,0.803228438,-0.001073292,-0.000448663,0.000259024,0.063728772,-0.084488757,9.800776482
1784243937.774596,-0.006932798,-0.008171751,0.803228438,-0.000934081,-0.000425743,-0.000134844,0.104464583,-0.056285810,9.793824196
1784243937.776597,-0.006932751,-0.008172819,0.803228438,0.000220980,0.000065019,-0.000327199,0.071631238,-0.062966712,9.784334183
1784243937.778600,-0.006932751,-0.008172819,0.803228438,0.001279556,0.000420634,-0.000539200,0.070659138,-0.069623761,9.777117729
1784243937.780650,-0.006932771,-0.008172031,0.803228438,0.001578553,0.000521910,-0.000550855,0.059081841,-0.062287822,9.774463654
1784243937.782616,-0.006932771,-0.008172031,0.803228438,0.001616397,0.000739741,-0.000251948,0.057082016,-0.078067474,9.791846275
1784243937.784624,-0.006932771,-0.008172031,0.803228438,0.001572559,0.000971528,-0.000088060,0.084281899,-0.091520324,9.807476044
1784243937.786642,-0.006933527,-0.008171890,0.803228438,0.001448603,0.000909709,-0.000349188,0.075216137,-0.061834164,9.807659149
1784243937.788624,-0.006933527,-0.008171890,0.803228438,0.001194764,0.000864335,-0.000196694,0.063372791,-0.038461272,9.818555832
1784243937.790629,-0.006932701,-0.008170691,0.803228438,0.000411601,0.000781078,0.000346409,0.097783946,-0.052158378,9.792498589
1784243937.792664,-0.006932701,-0.008170691,0.803228438,0.000111856,0.000593947,0.000344639,0.092400901,-0.051673219,9.796979904
1784243937.794625,-0.006932701,-0.008170691,0.803228438,0.000474092,0.000579129,0.000056121,0.091817722,-0.062050067,9.808120728
1784243937.796624,-0.006933019,-0.008171915,0.803228438,0.000302143,0.000480602,0.000241897,0.099481627,-0.060648117,9.786169052
1784243937.798621,-0.006933019,-0.008171915,0.803228438,-0.000438813,0.000307912,0.000303485,0.085189208,-0.054269005,9.796957016
1784243937.800622,-0.006932443,-0.008171464,0.803228498,-0.001481363,0.000283836,-0.000680834,0.066330075,-0.054945711,9.800072670
1784243937.802620,-0.006932443,-0.008171464,0.803228498,-0.001534389,0.000314669,-0.001721441,0.085855357,-0.037563469,9.777786255
1784243937.804617,-0.006932443,-0.008171464,0.803228498,-0.000688370,0.000376941,-0.001719708,0.083538696,-0.080970429,9.774366379
1784243937.806643,-0.006933023,-0.008171030,0.803228438,-0.000305397,0.000604150,-0.001609493,0.074211985,-0.074012637,9.757814407
1784243937.808627,-0.006933023,-0.008171030,0.803228438,-0.000494969,0.000796041,-0.002071354,0.097962834,-0.074962437,9.785627365
1784243937.810627,-0.006933244,-0.008171396,0.803228438,-0.000434633,0.000932585,-0.002227000,0.102152653,-0.063281350,9.773602486
1784243937.812632,-0.006933244,-0.008171396,0.803228438,0.000024752,0.001131587,-0.001689307,0.101146780,-0.071015559,9.791932106
1784243937.814624,-0.006933244,-0.008171396,0.803228438,0.000066435,0.000972734,-0.001137294,0.083224535,-0.068555318,9.793275833
1784243937.816638,-0.006934338,-0.008171304,0.803228438,-0.000013060,0.000644641,-0.001133657,0.081147783,-0.053025998,9.818479538
1784243937.818638,-0.006934338,-0.008171304,0.803228438,0.000039216,0.000566322,-0.001111885,0.062559612,-0.067674741,9.832715034
1784243937.820632,-0.006933753,-0.008171021,0.803228438,-0.000155523,0.000727437,-0.001041023,0.076404884,-0.038472194,9.796600342
1784243937.822629,-0.006933753,-0.008171021,0.803228438,-0.000496214,0.000707053,-0.001658402,0.076216318,-0.053334408,9.807713509
1784243937.824640,-0.006933753,-0.008171021,0.803228438,-0.001092548,0.000334092,-0.001803823,0.066418178,-0.046955545,9.810435295
1784243937.826689,-0.006932516,-0.008170648,0.803228438,-0.001241409,-0.000107659,-0.001097923,0.089347214,-0.080429062,9.813829422
1784243937.828649,-0.006932516,-0.008170648,0.803228438,-0.000463296,-0.000349808,-0.000455467,0.090679564,-0.082581192,9.799021721
1784243937.830643,-0.006932358,-0.008170606,0.803228498,0.000054622,-0.000074596,-0.000165525,0.079182997,-0.068529017,9.796859741
1784243937.832639,-0.006932358,-0.008170606,0.803228498,-0.000053275,0.000348664,-0.000206560,0.051394697,-0.065494336,9.798197746
1784243937.834641,-0.006932358,-0.008170606,0.803228498,-0.000406510,0.000353648,-0.000184424,0.089067183,-0.028533570,9.825369835
1784243937.836643,-0.006930782,-0.008170695,0.803228498,-0.001155294,0.000091593,-0.000008094,0.111375749,-0.040356725,9.809623718
1784243937.838654,-0.006930782,-0.008170695,0.803228498,-0.001067263,-0.000034256,0.000139782,0.087668464,-0.071789883,9.799088478
1784243937.840658,-0.006931091,-0.008170509,0.803228498,0.000031505,0.000188444,-0.000001822,0.090508267,-0.061743475,9.767324448
1784243937.842647,-0.006931091,-0.008170509,0.803228498,0.000434570,0.000373405,-0.000177691,0.101179168,-0.105107687,9.797543526
1784243937.844647,-0.006931091,-0.008170509,0.803228498,0.000125449,-0.000008548,-0.000111076,0.090834402,-0.069606215,9.801346779
1784243937.846649,-0.006931946,-0.008170610,0.803228498,0.000131585,-0.000666278,-0.000226761,0.084373169,-0.047941532,9.790718079
1784243937.848650,-0.006931946,-0.008170610,0.803228498,0.000264021,-0.001090707,-0.000653512,0.084638596,-0.063578226,9.783893585
1784243937.850649,-0.006932140,-0.008170523,0.803228498,-0.000104690,-0.000944903,-0.000962600,0.061554875,-0.080263019,9.777488708
1784243937.852650,-0.006932140,-0.008170523,0.803228498,-0.000513053,-0.000422201,-0.001348135,0.054562837,-0.062888145,9.804045677
1784243937.854664,-0.006932140,-0.008170523,0.803228498,-0.000487625,-0.000296336,-0.001720160,0.123281769,-0.057966549,9.807281494
1784243937.856660,-0.006931634,-0.008172031,0.803228498,-0.000149958,-0.000609161,-0.001162539,0.076938450,-0.068103179,9.804033279
1784243937.858656,-0.006931634,-0.008172031,0.803228498,0.000043432,-0.000517257,0.000021607,0.085008979,-0.070281133,9.780714035
1784243937.860662,-0.006931733,-0.008173360,0.803228498,-0.000244344,-0.000117272,0.000163348,0.079397045,-0.087002926,9.811087608
1784243937.862665,-0.006931733,-0.008173360,0.803228498,-0.000670043,0.000021201,-0.000835752,0.034003194,-0.092687346,9.810110092
1784243937.864663,-0.006931733,-0.008173360,0.803228498,-0.000870209,0.000159658,-0.002014496,0.068417713,-0.067552343,9.804925919
1784243937.866667,-0.006932397,-0.008173153,0.803228498,-0.000928387,0.000165043,-0.002133468,0.063928500,-0.067917377,9.801331520
1784243937.868664,-0.006932397,-0.008173153,0.803228498,-0.000526806,-0.000311327,-0.000994585,0.072495103,-0.064458825,9.803604126
1784243937.870668,-0.006931146,-0.008172436,0.803228498,-0.000269658,-0.000638537,-0.000399540,0.096897706,-0.050437707,9.804165840
1784243937.872666,-0.006931146,-0.008172436,0.803228498,-0.000543897,-0.000185193,-0.000414230,0.087329544,-0.097565316,9.832995415
1784243937.874668,-0.006931146,-0.008172436,0.803228498,-0.000363799,0.000281530,0.000136038,0.079051614,-0.117692843,9.779955864
1784243937.876673,-0.006934011,-0.008172411,0.803228438,0.000161375,0.000292636,0.000644007,0.095583811,-0.084919207,9.803942680
1784243937.878671,-0.006934011,-0.008172411,0.803228438,0.000234664,0.000019062,0.000524597,0.115063466,-0.071949795,9.772213936
1784243937.880713,-0.006934571,-0.008174037,0.803228438,-0.000198247,-0.000012777,0.000401665,0.076988034,-0.065685317,9.778942108
1784243937.882686,-0.006934571,-0.008174037,0.803228438,-0.000656846,0.000126680,0.000457203,0.072972409,-0.026648849,9.778292656
1784243937.884722,-0.006934571,-0.008174037,0.803228438,-0.000614924,-0.000117655,0.000478281,0.026023634,-0.048553918,9.792901039
1784243937.886695,-0.006933175,-0.008171883,0.803228438,-0.000679679,-0.000622149,0.001069323,0.059156075,-0.054812390,9.794237137
1784243937.888691,-0.006933175,-0.008171883,0.803228438,-0.001280792,-0.000389500,0.001466251,0.093027845,-0.074082777,9.796836853
1784243937.890694,-0.006934076,-0.008172869,0.803228438,-0.001472009,0.000717155,0.001129209,0.090647094,-0.085268945,9.799005508
1784243937.892688,-0.006934076,-0.008172869,0.803228438,-0.000841827,0.000864748,0.001260319,0.097494289,-0.076329194,9.789652824
1784243937.894691,-0.006934076,-0.008172869,0.803228438,0.000149992,0.000189348,0.001875818,0.100416489,-0.057527069,9.786639214
1784243937.896704,-0.006934321,-0.008173771,0.803228438,0.000750539,0.000007837,0.001802236,0.097077571,-0.072828785,9.802228928
1784243937.898699,-0.006934321,-0.008173771,0.803228438,0.000870793,0.000564991,0.001427037,0.074873038,-0.053294901,9.804574013
1784243937.900694,-0.006933537,-0.008173288,0.803228438,0.000580614,0.001207275,0.001425202,0.093645386,-0.059382122,9.807691574
1784243937.902699,-0.006933537,-0.008173288,0.803228438,-0.000160535,0.001106902,0.001094925,0.112590604,-0.088321105,9.810663223
1784243937.904700,-0.006933537,-0.008173288,0.803228438,-0.000562601,0.000437436,0.000995633,0.065435141,-0.093315177,9.778754234
1784243937.906699,-0.006935572,-0.008172666,0.803228438,-0.000586632,-0.000216593,0.001157473,0.074704655,-0.068808198,9.781160355
1784243937.908701,-0.006935572,-0.008172666,0.803228438,-0.000438477,-0.000477293,0.001024112,0.088339552,-0.053829487,9.792479515
1784243937.910698,-0.006934975,-0.008173425,0.803228438,0.000109226,-0.000114419,0.001002946,0.090949833,-0.060589757,9.793334961
1784243937.912704,-0.006934975,-0.008173425,0.803228438,0.000094283,0.000281716,0.000770982,0.066942081,-0.041909717,9.792983055
1784243937.914778,-0.006934975,-0.008173425,0.803228438,-0.000644041,0.000199714,0.000670985,0.072775148,-0.041174378,9.805098534
1784243937.916732,-0.006931638,-0.008172967,0.803228498,-0.000842838,-0.000137542,0.001228944,0.074468233,-0.084858857,9.833513260
1784243937.918728,-0.006931638,-0.008172967,0.803228498,-0.000783306,0.000066098,0.001385514,0.096223965,-0.068013728,9.819744110
1784243937.920727,-0.006931460,-0.008173938,0.803228498,-0.001022032,0.000708336,0.000707598,0.086612023,-0.047601808,9.801933289
1784243937.922727,-0.006931460,-0.008173938,0.803228498,-0.000874283,0.000848082,0.000320736,0.087024532,-0.048703797,9.830171585
1784243937.924721,-0.006931460,-0.008173938,0.803228498,-0.000356373,0.000511268,0.000398156,0.077812031,-0.070329048,9.800432205
1784243937.926719,-0.006932487,-0.008172920,0.803228498,0.000037159,0.000033508,0.000164458,0.066486128,-0.076714322,9.836696625
1784243937.928721,-0.006932487,-0.008172920,0.803228498,0.000218833,-0.000024529,-0.000148754,0.086674049,-0.079028428,9.810697556
1784243937.930725,-0.006933719,-0.008172791,0.803228438,0.000069253,0.000637536,-0.000265139,0.061885346,-0.086470649,9.830801010
1784243937.932721,-0.006933719,-0.008172791,0.803228438,-0.000238478,0.001104762,-0.000476686,0.085660361,-0.052476548,9.796071053
1784243937.934723,-0.006933719,-0.008172791,0.803228438,0.000036871,0.000810105,-0.000687696,0.083055191,-0.081644766,9.807089806
1784243937.936726,-0.006934328,-0.008172878,0.803228438,0.000399610,0.000557261,-0.000769163,0.074257448,-0.067169584,9.803587914
1784243937.938720,-0.006934328,-0.008172878,0.803228438,0.000284107,0.000446945,-0.000467666,0.102396809,-0.042306665,9.784943581
1784243937.940726,-0.006932883,-0.008173930,0.803228438,0.000141589,0.000024118,-0.000069511,0.092823535,-0.053505797,9.801899910
1784243937.942730,-0.006932883,-0.008173930,0.803228438,0.000057235,-0.000280576,-0.000357068,0.089577951,-0.063612849,9.779864311
1784243937.944730,-0.006932883,-0.008173930,0.803228438,-0.000036821,-0.000213096,-0.000745507,0.065392859,-0.058895916,9.790183067
1784243937.946736,-0.006932306,-0.008173812,0.803228498,0.000203590,-0.000005719,-0.000954902,0.081675835,-0.046731677,9.814486504
1784243937.948733,-0.006932306,-0.008173812,0.803228498,0.000825771,-0.000292112,-0.001000860,0.073297746,-0.034517951,9.813211441
1784243937.950732,-0.006930612,-0.008173467,0.803228498,0.001369248,-0.000537164,-0.001124658,0.061323807,-0.060302515,9.806309700
1784243937.952736,-0.006930612,-0.008173467,0.803228498,0.001263299,-0.000331623,-0.001321812,0.076888442,-0.073361069,9.787410736
1784243937.954745,-0.006930612,-0.008173467,0.803228498,0.000713498,-0.000393335,-0.001377107,0.054602243,-0.061766475,9.772220612
1784243937.956742,-0.006930280,-0.008171705,0.803228498,0.000599471,-0.000728482,-0.001562965,0.052671470,-0.070922092,9.803094864
1784243937.958740,-0.006930280,-0.008171705,0.803228498,0.000839730,-0.001138998,-0.001554359,0.052071717,-0.048702952,9.766921997
1784243937.960739,-0.006929378,-0.008170675,0.803228498,0.001093224,-0.000828144,-0.001345997,0.066754431,-0.058385704,9.778979301
1784243937.962744,-0.006929378,-0.008170675,0.803228498,0.001243616,-0.000368992,-0.000922188,0.079040065,-0.044225261,9.781771660
1784243937.964744,-0.006929378,-0.008170675,0.803228498,0.001096840,-0.000407510,-0.000976970,0.100334316,-0.063849397,9.793770790
1784243937.966745,-0.006928284,-0.008171360,0.803228438,0.000795574,-0.000159391,-0.001683565,0.102388285,-0.079153322,9.799951553
1784243937.968746,-0.006928284,-0.008171360,0.803228438,0.000248916,0.000072909,-0.001223746,0.114391319,-0.089513101,9.785997391
1784243937.970750,-0.006929193,-0.008173453,0.803228438,-0.000353825,-0.000155072,-0.000331706,0.099206112,-0.082680888,9.797683716
1784243937.972752,-0.006929193,-0.008173453,0.803228438,-0.000626019,-0.000084758,-0.000366250,0.070564263,-0.075641215,9.804428101
1784243937.974787,-0.006929193,-0.008173453,0.803228438,-0.000186200,0.000323221,-0.000984123,0.061142374,-0.076324180,9.791411400
1784243937.976767,-0.006929283,-0.008172222,0.803228498,0.000532100,0.000599026,-0.001578139,0.067426629,-0.076385602,9.788726807
1784243937.978799,-0.006929283,-0.008172222,0.803228498,0.000059472,0.000719250,-0.001778231,0.076128438,-0.061728019,9.791070938
1784243937.980820,-0.006928451,-0.008171860,0.803228438,-0.000959811,0.000291138,-0.001765476,0.064612545,-0.085418433,9.803910255
1784243937.982769,-0.006928451,-0.008171860,0.803228438,-0.000983680,-0.000425022,-0.001667035,0.086773761,-0.070135973,9.820170403
1784243937.984777,-0.006928451,-0.008171860,0.803228438,-0.000237839,-0.000559981,-0.001429489,0.089198589,-0.055359747,9.817127228
1784243937.986782,-0.006927322,-0.008172018,0.803228438,0.000269772,-0.000551798,-0.000949021,0.068727210,-0.079598993,9.797225952
1784243937.988774,-0.006927322,-0.008172018,0.803228438,0.000403296,-0.000668952,-0.000654222,0.062657930,-0.099625275,9.789022446
1784243937.990762,-0.006929453,-0.008170629,0.803228498,0.000302407,-0.000662828,-0.000330959,0.080060892,-0.069099762,9.812547684
1784243937.992764,-0.006929453,-0.008170629,0.803228498,-0.000350213,-0.000706119,-0.000096651,0.090583652,-0.053448427,9.797863007
1784243937.994777,-0.006929453,-0.008170629,0.803228498,-0.001164013,-0.000283364,-0.000032277,0.066795588,-0.053197775,9.805463791
1784243937.996779,-0.006928489,-0.008170211,0.803228498,-0.001015173,0.000087724,0.000160562,0.096434958,-0.051353317,9.807746887
1784243937.998768,-0.006928489,-0.008170211,0.803228498,-0.000011073,-0.000425345,0.000261999,0.085253716,-0.048896648,9.797439575
1784243938.000816,-0.006927426,-0.008170092,0.803228438,0.000718756,-0.000943307,0.000371192,0.081538029,-0.058356404,9.811273575
1784243938.002796,-0.006927426,-0.008170092,0.803228438,0.000877414,-0.000687086,0.000525883,0.073578119,-0.085600190,9.813332558
1784243938.004821,-0.006927426,-0.008170092,0.803228438,-0.000069263,-0.000232672,-0.000065643,0.084716052,-0.056077354,9.800083160
1784243938.006792,-0.006925662,-0.008170042,0.803228438,-0.001462850,0.000126388,-0.000894666,0.070304468,-0.059960000,9.804975510
1784243938.008787,-0.006925662,-0.008170042,0.803228438,-0.001418036,-0.000112991,-0.000922050,0.070906527,-0.048623640,9.784873009
1784243938.010789,-0.006924340,-0.008168570,0.803228438,-0.000793408,-0.000655623,-0.000636228,0.090029359,-0.061976198,9.800947189
1784243938.012789,-0.006924340,-0.008168570,0.803228438,-0.001069727,-0.000090188,-0.000243302,0.093027726,-0.075299464,9.778895378
1784243938.014791,-0.006924340,-0.008168570,0.803228438,-0.001484358,0.000665788,0.000080623,0.094146274,-0.094134264,9.779223442
1784243938.016786,-0.006925899,-0.008169865,0.803228438,-0.000905441,0.000686915,0.000008167,0.071236730,-0.094854623,9.795784950
1784243938.018795,-0.006925899,-0.008169865,0.803228438,0.000272830,0.000459494,0.000063543,0.060008932,-0.095197015,9.801153183
1784243938.020795,-0.006928321,-0.008168930,0.803228498,0.000727549,-0.000171909,0.000443633,0.085429378,-0.106479272,9.829799652
1784243938.022795,-0.006928321,-0.008168930,0.803228498,0.000347235,-0.001183289,0.000896839,0.061780434,-0.099051334,9.772885323
1784243938.024790,-0.006928321,-0.008168930,0.803228498,-0.000017595,-0.001719912,0.001029401,0.055812154,-0.070558898,9.809377670
1784243938.026798,-0.006928535,-0.008166189,0.803228498,-0.000072258,-0.001014275,0.000988002,0.088047199,-0.076805867,9.810712814
1784243938.028792,-0.006928535,-0.008166189,0.803228498,-0.000124812,0.000091118,0.001412412,0.093234546,-0.056240644,9.807712555
1784243938.030803,-0.006928280,-0.008167879,0.803228498,-0.000260576,0.000266800,0.001826239,0.094119936,-0.054320760,9.851212502
1784243938.032795,-0.006928280,-0.008167879,0.803228498,-0.000311154,-0.000163383,0.002070519,0.089250818,-0.053326253,9.783067703
1784243938.034799,-0.006928280,-0.008167879,0.803228498,-0.000130139,-0.000371785,0.002357717,0.084453657,-0.078411825,9.790972710
1784243938.036798,-0.006929060,-0.008167867,0.803228498,0.000078486,-0.000110560,0.002587412,0.074185409,-0.074222490,9.787402153
1784243938.038800,-0.006929060,-0.008167867,0.803228498,-0.000237883,0.000176667,0.002447658,0.070589177,-0.074634008,9.788742065
1784243938.040801,-0.006929163,-0.008167758,0.803228498,-0.000668915,0.000173742,0.002073570,0.079152331,-0.070797436,9.800879478
1784243938.042804,-0.006929163,-0.008167758,0.803228498,-0.000531627,0.000094969,0.001765238,0.089985684,-0.065563068,9.801371574
1784243938.044803,-0.006929163,-0.008167758,0.803228498,0.000128650,0.000048546,0.001704039,0.078470930,-0.053680751,9.789331436
1784243938.046808,-0.006928342,-0.008167448,0.803228498,0.000644037,-0.000130190,0.001748962,0.088219352,-0.063694172,9.793760300
1784243938.048815,-0.006928342,-0.008167448,0.803228498,0.000926736,-0.000597951,0.001220054,0.096028551,-0.048176866,9.802833557
1784243938.050816,-0.006926740,-0.008168794,0.803228438,0.001191339,-0.000578031,0.000620231,0.104134366,-0.044807952,9.818555832
1784243938.052812,-0.006926740,-0.008168794,0.803228438,0.001245504,0.000135959,0.000836808,0.084959842,-0.073505893,9.793246269
1784243938.054820,-0.006926740,-0.008168794,0.803228438,0.000772739,0.000208758,0.001460623,0.082021885,-0.056868825,9.790211678
1784243938.056819,-0.006926849,-0.008168717,0.803228438,-0.000012799,-0.000556988,0.001187731,0.080393597,-0.043778647,9.779534340
1784243938.058816,-0.006926849,-0.008168717,0.803228438,-0.000511175,-0.001111638,0.000339202,0.079504117,-0.079673387,9.788269997
1784243938.060826,-0.006926841,-0.008169050,0.803228438,-0.000961407,-0.001173987,-0.000078607,0.063059978,-0.066056803,9.793272972
1784243938.062826,-0.006926841,-0.008169050,0.803228438,-0.001287556,-0.001022212,-0.000255513,0.046361264,-0.074307643,9.786478996
1784243938.064890,-0.006926841,-0.008169050,0.803228438,-0.001086418,-0.000466506,-0.000363158,0.102865018,-0.038916331,9.811418533
1784243938.066827,-0.006925492,-0.008169711,0.803228438,-0.000630355,0.000203087,-0.000132728,0.122158766,-0.038356654,9.823993683
1784243938.068823,-0.006925492,-0.008169711,0.803228438,-0.000231131,0.000256516,0.000303601,0.099052072,-0.058059532,9.800980568
1784243938.070824,-0.006925221,-0.008169462,0.803228438,0.000166185,0.000009181,0.000150689,0.041344192,-0.042970411,9.799228668
1784243938.072823,-0.006925221,-0.008169462,0.803228438,0.000183527,-0.000275397,-0.000070030,0.080734640,-0.051523741,9.796970367
1784243938.074827,-0.006925221,-0.008169462,0.803228438,0.000063669,-0.000916471,0.000290054,0.074303254,-0.062350124,9.818862915
1784243938.076828,-0.006922232,-0.008168683,0.803228498,0.000519971,-0.001333690,0.000282735,0.095093630,-0.088077806,9.807956696
1784243938.078830,-0.006922232,-0.008168683,0.803228498,0.000899828,-0.000681748,-0.000114336,0.091090634,-0.086126111,9.792722702
1784243938.080826,-0.006923437,-0.008169265,0.803228438,0.000818014,0.000172376,0.000031189,0.078561626,-0.045264877,9.802835464
1784243938.082831,-0.006923437,-0.008169265,0.803228438,0.000626896,0.000380816,0.000333258,0.077655517,-0.047753543,9.776368141
1784243938.084827,-0.006923437,-0.008169265,0.803228438,0.000433326,0.000445466,0.000191704,0.099079192,-0.056629799,9.788885117
1784243938.086835,-0.006921933,-0.008169426,0.803228438,0.000075231,0.000459569,-0.000020257,0.100240812,-0.072287530,9.783405304
1784243938.088831,-0.006921933,-0.008169426,0.803228438,-0.000332654,0.000220325,-0.000320706,0.072826885,-0.037523918,9.795706749
1784243938.090834,-0.006919455,-0.008167864,0.803228498,-0.000465735,0.000152707,-0.000610933,0.040160637,-0.065480970,9.816568375
1784243938.092840,-0.006919455,-0.008167864,0.803228498,-0.000415451,0.000423523,-0.000441254,0.079030618,-0.079458140,9.821895599
1784243938.094837,-0.006919455,-0.008167864,0.803228498,0.000094103,0.000833030,-0.000532333,0.071415342,-0.078855209,9.813823700
1784243938.096842,-0.006919964,-0.008165939,0.803228498,0.000681721,0.001005127,-0.000942027,0.082162440,-0.082001738,9.795878410
1784243938.098840,-0.006919964,-0.008165939,0.803228498,0.000164189,0.000619160,-0.001317044,0.072412930,-0.070781156,9.810736656
1784243938.100841,-0.006919945,-0.008165213,0.803228498,-0.000737819,0.000201869,-0.001952868,0.079251520,-0.063124873,9.792859077
1784243938.102840,-0.006919945,-0.008165213,0.803228498,-0.001284605,0.000023899,-0.002613751,0.083444059,-0.049801368,9.801915169
1784243938.104850,-0.006919945,-0.008165213,0.803228498,-0.001554080,0.000108739,-0.003075746,0.106427021,-0.041611940,9.806025505
1784243938.106854,-0.006918064,-0.008167274,0.803228498,-0.001098387,0.000358959,-0.002995028,0.109696761,-0.068904065,9.794644356
1784243938.108849,-0.006918064,-0.008167274,0.803228498,-0.000479299,0.000480163,-0.002286244,0.082859397,-0.061811078,9.790628433
1784243938.110847,-0.006917948,-0.008166686,0.803228498,-0.000391206,0.000411486,-0.001951872,0.071443424,-0.077012494,9.806660652
1784243938.112850,-0.006917948,-0.008166686,0.803228498,-0.000402837,0.000055844,-0.001637901,0.068055943,-0.097965993,9.798005104
1784243938.114855,-0.006917948,-0.008166686,0.803228498,-0.000359087,-0.000366457,-0.001301693,0.089198805,-0.093353152,9.804331779
1784243938.116858,-0.006919086,-0.008167447,0.803228498,-0.000196846,-0.000420750,-0.001506445,0.098301053,-0.082729794,9.806201935
1784243938.118863,-0.006919086,-0.008167447,0.803228498,0.000287350,-0.000067933,-0.001706992,0.046092331,-0.057482868,9.815279961
1784243938.120857,-0.006919064,-0.008166328,0.803228498,0.000407431,0.000512707,-0.001382308,0.066240542,-0.062541969,9.797333717
1784243938.122862,-0.006919064,-0.008166328,0.803228498,0.000024777,0.001063109,-0.000550107,0.091392145,-0.061456457,9.788397789
1784243938.124862,-0.006919064,-0.008166328,0.803228498,-0.000351828,0.000746043,-0.000092428,0.077125929,-0.052033823,9.812206268
1784243938.126864,-0.006917425,-0.008165293,0.803228498,-0.000199009,-0.000224298,-0.000285956,0.085111760,-0.061769873,9.780768394
1784243938.128863,-0.006917425,-0.008165293,0.803228498,0.000206050,-0.000572926,-0.000659150,0.081553094,-0.057832133,9.800517082
1784243938.130863,-0.006917844,-0.008165405,0.803228498,0.000161392,-0.000463583,-0.000875378,0.074479029,-0.086799763,9.791357994
1784243938.132862,-0.006917844,-0.008165405,0.803228498,-0.000158223,-0.000147728,-0.000887624,0.092094839,-0.077594548,9.788295746
1784243938.134866,-0.006917844,-0.008165405,0.803228498,-0.000384476,0.000764164,-0.000549751,0.102936238,-0.072296582,9.779821396
1784243938.136864,-0.006917499,-0.008167871,0.803228498,-0.000549256,0.001428576,-0.000321666,0.080403313,-0.079265535,9.792307854
1784243938.138870,-0.006917499,-0.008167871,0.803228498,-0.000911450,0.001109447,-0.000846336,0.096516132,-0.083033934,9.789162636
1784243938.140872,-0.006919423,-0.008169298,0.803228498,-0.001070901,0.000480409,-0.001320856,0.067145370,-0.096842743,9.830739021
1784243938.142876,-0.006919423,-0.008169298,0.803228498,-0.000643708,0.000211305,-0.001177222,0.084602751,-0.101451181,9.817276955
1784243938.144876,-0.006919423,-0.008169298,0.803228498,-0.000313496,0.000244954,-0.000403360,0.104307979,-0.066843286,9.829623222
1784243938.146909,-0.006919209,-0.008171427,0.803228498,-0.000288444,0.000573017,0.000937968,0.101324826,-0.055425946,9.804586411
1784243938.148885,-0.006919209,-0.008171427,0.803228498,-0.000141624,0.000973278,0.001807902,0.072588488,-0.057237394,9.796029091
1784243938.150886,-0.006918911,-0.008171385,0.803228498,-0.000145934,0.000891401,0.001897829,0.072900765,-0.068451703,9.797302246
1784243938.152885,-0.006918911,-0.008171385,0.803228498,-0.000640745,0.000460511,0.001725816,0.078387320,-0.059609171,9.804089546
1784243938.154887,-0.006918911,-0.008171385,0.803228498,-0.001055210,0.000235309,0.001907796,0.089447118,-0.036376860,9.793488503
1784243938.156905,-0.006916801,-0.008172871,0.803228498,-0.000903578,0.000192908,0.001951506,0.081526741,-0.061282281,9.781664848
1784243938.158914,-0.006916801,-0.008172871,0.803228498,-0.000468162,0.000017289,0.001531763,0.080277935,-0.052391656,9.793825150
1784243938.160897,-0.006915607,-0.008172886,0.803228498,0.000356274,0.000008992,0.001371871,0.086014755,-0.058089934,9.828764915
1784243938.162890,-0.006915607,-0.008172886,0.803228498,0.000976828,0.000270064,0.001690155,0.093177356,-0.059528992,9.829211235
1784243938.164897,-0.006915607,-0.008172886,0.803228498,0.000702623,0.000267656,0.002316935,0.095701836,-0.075477049,9.799071312
1784243938.166899,-0.006915560,-0.008173510,0.803228498,0.000324525,0.000361585,0.002160025,0.090500437,-0.062210508,9.770010948
1784243938.168897,-0.006915560,-0.008173510,0.803228498,0.000573692,0.000285120,0.001269517,0.059810828,-0.074165709,9.805322647
1784243938.170898,-0.006916456,-0.008172994,0.803228498,0.000296269,-0.000290933,0.001158717,0.061175175,-0.072823174,9.803091049
1784243938.172897,-0.006916456,-0.008172994,0.803228498,-0.000297753,-0.000078928,0.001496088,0.079590037,-0.072105728,9.795042992
1784243938.174897,-0.006916456,-0.008172994,0.803228498,-0.000215648,0.000827036,0.001566346,0.101200074,-0.066542305,9.792858124
1784243938.176902,-0.006915746,-0.008174247,0.803228498,-0.000288652,0.000964926,0.001867134,0.088030048,-0.079372808,9.793659210
1784243938.178905,-0.006915746,-0.008174247,0.803228498,-0.000349893,0.000379835,0.002353200,0.103374206,-0.071171492,9.809866905
1784243938.180907,-0.006915806,-0.008175672,0.803228498,-0.000159210,-0.000223283,0.001786040,0.076940060,-0.068090461,9.802240372
1784243938.182907,-0.006915806,-0.008175672,0.803228498,0.000236215,-0.000499215,0.000688219,0.057210285,-0.065302350,9.823758125
1784243938.184904,-0.006915806,-0.008175672,0.803228498,0.000743520,-0.000276700,0.000884026,0.065810606,-0.059956565,9.812592506
1784243938.186912,-0.006916306,-0.008174991,0.803228498,0.000876602,-0.000168260,0.001387031,0.047036633,-0.053882062,9.811268806
1784243938.188922,-0.006916306,-0.008174991,0.803228498,0.001025106,-0.000446704,0.001246104,0.081156641,-0.052956045,9.808618546
1784243938.190914,-0.006915248,-0.008175559,0.803228498,0.001119132,-0.000341860,0.000892407,0.052151427,-0.038752787,9.816751480
1784243938.192920,-0.006915248,-0.008175559,0.803228498,0.000831763,0.000207995,0.000366037,0.073184788,-0.044325396,9.806424141
1784243938.194924,-0.006915248,-0.008175559,0.803228498,0.000871347,0.000297674,0.000342283,0.103347443,-0.037034843,9.797982216
1784243938.196934,-0.006913565,-0.008176422,0.803228498,0.001058260,0.000034436,0.000792745,0.108118542,-0.051366072,9.788478851
1784243938.198924,-0.006913565,-0.008176422,0.803228498,0.000475780,0.000194506,0.000778736,0.075336516,-0.051562853,9.812206268
1784243938.200930,-0.006912278,-0.008176380,0.803228498,-0.000144907,0.000424660,0.000209245,0.057731424,-0.061088853,9.797334671
1784243938.202930,-0.006912278,-0.008176380,0.803228498,-0.000418768,0.000356522,-0.000224705,0.063073911,-0.063515306,9.813912392
1784243938.204941,-0.006912278,-0.008176380,0.803228498,-0.000692712,0.000127254,-0.000469745,0.052953362,-0.048028383,9.796516418
1784243938.206959,-0.006909546,-0.008175179,0.803228498,-0.000873915,-0.000021743,-0.000684228,0.052497808,-0.085666664,9.797620773
1784243938.208953,-0.006909546,-0.008175179,0.803228498,-0.001148651,0.000156141,-0.000333657,0.080653109,-0.058246341,9.797374725
1784243938.210980,-0.006908604,-0.008175109,0.803228498,-0.001691237,0.000344636,-0.000277056,0.079052724,-0.078473188,9.809348106
1784243938.212970,-0.006908604,-0.008175109,0.803228498,-0.002049111,0.000537207,-0.000506232,0.081995763,-0.057885572,9.807241440
1784243938.214944,-0.006908604,-0.008175109,0.803228498,-0.001265182,0.000393584,-0.000239863,0.078903936,-0.053810500,9.806817055
1784243938.216938,-0.006905340,-0.008175862,0.803228557,0.000046268,0.000226201,0.000081373,0.076469034,-0.071503066,9.778903961
1784243938.218942,-0.006905340,-0.008175862,0.803228557,0.000352804,0.000273917,0.000206994,0.066666111,-0.028382467,9.781413078
1784243938.220954,-0.006902877,-0.008175117,0.803228557,0.000266036,0.000060033,0.000296629,0.080083393,-0.033358507,9.763908386
1784243938.222947,-0.006902877,-0.008175117,0.803228557,0.000458495,0.000083005,0.000110605,0.085086092,-0.063593514,9.785239220
1784243938.224944,-0.006902877,-0.008175117,0.803228557,0.000222869,0.000411106,-0.000240396,0.109957539,-0.084172286,9.799029350
1784243938.226953,-0.006903671,-0.008177245,0.803228498,0.000051369,0.000633008,-0.000640607,0.082627147,-0.080260143,9.802166939
1784243938.228951,-0.006903671,-0.008177245,0.803228498,0.000398533,0.000934782,-0.001129195,0.037506901,-0.100300975,9.803340912
1784243938.230944,-0.006905136,-0.008175084,0.803228557,0.000652499,0.001279831,-0.001358064,0.080218941,-0.058936190,9.769124985
1784243938.232947,-0.006905136,-0.008175084,0.803228557,0.000507597,0.001155774,-0.001364942,0.080041908,-0.071275979,9.803567886
1784243938.234947,-0.006905136,-0.008175084,0.803228557,0.000649320,0.000575316,-0.001137617,0.069951281,-0.051500227,9.813100815
1784243938.236947,-0.006904458,-0.008174857,0.803228557,0.001093755,-0.000119658,-0.001225713,0.085812204,-0.074683584,9.831348419
1784243938.238952,-0.006904458,-0.008174857,0.803228557,0.000987128,-0.000332316,-0.001451403,0.107977115,-0.060182575,9.831461906
1784243938.240954,-0.006903719,-0.008176471,0.803228557,0.000496636,-0.000142570,-0.001325724,0.084756598,-0.091726035,9.772506714
1784243938.242954,-0.006903719,-0.008176471,0.803228557,0.000156271,-0.000112411,-0.001252794,0.085964218,-0.064567700,9.794649124
1784243938.244958,-0.006903719,-0.008176471,0.803228557,0.000339798,-0.000346306,-0.001326768,0.075512193,-0.036802400,9.815440178
1784243938.246958,-0.006901900,-0.008176572,0.803228557,0.000888564,-0.000645617,-0.001633442,0.075077929,-0.073462084,9.804892540
1784243938.248962,-0.006901900,-0.008176572,0.803228557,0.001037392,-0.000715413,-0.002109148,0.078918539,-0.090069309,9.802101135
1784243938.250962,-0.006903127,-0.008176970,0.803228498,0.000872236,-0.000909406,-0.002113943,0.068859495,-0.069638923,9.782496452
1784243938.252960,-0.006903127,-0.008176970,0.803228498,0.000608410,-0.000836289,-0.001611019,0.070004225,-0.047840230,9.802361488
1784243938.254967,-0.006903127,-0.008176970,0.803228498,0.000371270,0.000063755,-0.001294153,0.084126376,-0.068531848,9.788346291
1784243938.256966,-0.006902888,-0.008177102,0.803228498,0.000163030,0.000739027,-0.001261837,0.080014117,-0.074332215,9.792339325
1784243938.258965,-0.006902888,-0.008177102,0.803228498,-0.000321053,0.000674240,-0.000862836,0.071702696,-0.093913577,9.788619995
1784243938.260972,-0.006905064,-0.008177165,0.803228498,-0.000620703,0.000605816,-0.000138959,0.091532126,-0.086999163,9.788682938
1784243938.262969,-0.006905064,-0.008177165,0.803228498,0.000009258,0.000473056,0.000678092,0.074684873,-0.068153925,9.815238953
1784243938.264963,-0.006905064,-0.008177165,0.803228498,0.000502823,0.000127079,0.000766521,0.062522314,-0.073237509,9.795916557
1784243938.266981,-0.006906061,-0.008176018,0.803228498,0.000013542,-0.000131041,0.000378263,0.068377092,-0.033930432,9.802450180
1784243938.268975,-0.006906061,-0.008176018,0.803228498,0.000056211,-0.000022376,0.000910040,0.073572040,-0.050084688,9.796524048
1784243938.270975,-0.006905617,-0.008175066,0.803228557,0.000703139,0.000175586,0.001389333,0.087337367,-0.062345147,9.794665337
1784243938.272974,-0.006905617,-0.008175066,0.803228557,0.001048321,0.000304821,0.001467432,0.069597706,-0.043043632,9.821672440
1784243938.274972,-0.006905617,-0.008175066,0.803228557,0.001047951,0.000492453,0.001398084,0.091810361,-0.063324004,9.798249245
1784243938.276986,-0.006905041,-0.008175959,0.803228557,0.000902423,0.000436589,0.000714448,0.089568466,-0.063282534,9.796454430
1784243938.278981,-0.006905041,-0.008175959,0.803228557,0.000902762,0.000109305,-0.000200193,0.082795806,-0.065960370,9.807190895
1784243938.280982,-0.006904543,-0.008176017,0.803228557,0.000558828,-0.000074619,-0.000343240,0.092392318,-0.052956693,9.788454056
1784243938.282976,-0.006904543,-0.008176017,0.803228557,0.000182975,-0.000029034,-0.000157818,0.097638302,-0.064250141,9.791973114
1784243938.284982,-0.006904543,-0.008176017,0.803228557,-0.000037219,-0.000120517,-0.000330230,0.059664264,-0.087480530,9.787752151
1784243938.286984,-0.006905586,-0.008175896,0.803228498,-0.000682435,0.000176612,-0.000219900,0.065742686,-0.103350952,9.803346634
1784243938.288981,-0.006905586,-0.008175896,0.803228498,-0.000789671,0.000567265,0.000168901,0.081564479,-0.094116375,9.799387932
1784243938.290981,-0.006906833,-0.008176138,0.803228498,-0.000222223,0.000446363,0.000866097,0.088479087,-0.078565314,9.805322647
1784243938.292990,-0.006906833,-0.008176138,0.803228498,-0.000209125,0.000198618,0.001697404,0.094439223,-0.067911245,9.808534622
1784243938.294989,-0.006906833,-0.008176138,0.803228498,-0.000814146,-0.000114912,0.001597264,0.070456102,-0.047010466,9.810886383
1784243938.296993,-0.006905149,-0.008176427,0.803228498,-0.001163348,-0.000393873,0.000802105,0.084993459,-0.069998518,9.804028511
1784243938.298993,-0.006905149,-0.008176427,0.803228498,-0.001451625,-0.000293398,0.000657721,0.104509406,-0.051879328,9.804163933
1784243938.301028,-0.006903893,-0.008178937,0.803228498,-0.001897035,-0.000061096,0.001437590,0.090074465,-0.058783237,9.792897224
1784243938.302997,-0.006903893,-0.008178937,0.803228498,-0.001697037,0.000102920,0.001934314,0.045907222,-0.072723083,9.816526413
1784243938.305002,-0.006903893,-0.008178937,0.803228498,-0.001633351,0.000822241,0.001487052,0.083112955,-0.077946603,9.790974617
1784243938.306999,-0.006904824,-0.008180107,0.803228498,-0.002163674,0.001462133,0.000890178,0.059490789,-0.064228505,9.794626236
1784243938.308998,-0.006904824,-0.008180107,0.803228498,-0.002233554,0.001306926,0.001427201,0.096486352,-0.048516098,9.786691666
1784243938.311003,-0.006904496,-0.008181851,0.803228498,-0.001710168,0.000826796,0.001961698,0.074411720,-0.054604422,9.800530434
1784243938.312999,-0.006904496,-0.008181851,0.803228498,-0.001094044,0.000211479,0.001212703,0.044035193,-0.043014444,9.800575256
1784243938.315006,-0.006904496,-0.008181851,0.803228498,-0.001222487,-0.000087329,0.000793346,0.071710713,-0.055449948,9.798281670
1784243938.317004,-0.006903821,-0.008181122,0.803228498,-0.001436915,0.000253385,0.000635183,0.078857437,-0.057419628,9.810379982
1784243938.319010,-0.006903821,-0.008181122,0.803228498,-0.000450615,0.000708252,0.000035530,0.089638598,-0.057865672,9.790660858
1784243938.321012,-0.006903835,-0.008182195,0.803228498,0.000573207,0.000856111,-0.000365744,0.091895454,-0.055762716,9.805919647
1784243938.323010,-0.006903835,-0.008182195,0.803228498,0.000519097,0.000611028,-0.000426631,0.081043229,-0.064793445,9.772227287
1784243938.325010,-0.006903835,-0.008182195,0.803228498,-0.000011108,0.000221014,-0.000346582,0.075949833,-0.077727437,9.773036003
1784243938.327012,-0.006905314,-0.008181360,0.803228498,-0.000106984,0.000059093,-0.000178814,0.107078485,-0.063017450,9.790645599
1784243938.329017,-0.006905314,-0.008181360,0.803228498,-0.000032021,-0.000024982,0.000034081,0.078583747,-0.082679965,9.771661758
1784243938.331035,-0.006905469,-0.008181093,0.803228498,-0.000215216,-0.000300762,0.000368117,0.078319587,-0.067843795,9.765030861
1784243938.333024,-0.006905469,-0.008181093,0.803228498,-0.000224067,-0.000647998,0.000773309,0.072049901,-0.065641150,9.781626701
1784243938.335020,-0.006905469,-0.008181093,0.803228498,-0.000445861,-0.000824534,0.000725586,0.075806633,-0.049373318,9.818498611
1784243938.337026,-0.006904144,-0.008181358,0.803228498,-0.001327572,-0.000832620,-0.000085881,0.099299684,-0.037462857,9.802457809
1784243938.339027,-0.006904144,-0.008181358,0.803228498,-0.001587255,-0.000572537,-0.000692988,0.098805577,-0.042273398,9.786734581
1784243938.341023,-0.006903591,-0.008182205,0.803228498,-0.000535182,-0.000674854,0.000237026,0.076547861,-0.063586019,9.799578667
1784243938.343026,-0.006903591,-0.008182205,0.803228498,0.000045248,-0.001110689,0.001453776,0.046001129,-0.064281784,9.826442719
1784243938.345031,-0.006903591,-0.008182205,0.803228498,-0.000370679,-0.000586092,0.001513142,0.056979075,-0.086985350,9.785959244
1784243938.347035,-0.006904288,-0.008181360,0.803228498,-0.000378211,0.000228740,0.000927456,0.050178792,-0.092312813,9.791299820
1784243938.349029,-0.006904288,-0.008181360,0.803228498,-0.000318158,0.000121765,0.000154007,0.055544596,-0.056154795,9.800501823
1784243938.351030,-0.006904135,-0.008180492,0.803228498,-0.000801853,-0.000151015,0.000003825,0.061794430,-0.059729941,9.787931442
1784243938.353033,-0.006904135,-0.008180492,0.803228498,-0.000680236,-0.000012304,-0.000193207,0.060680844,-0.077230267,9.793647766
1784243938.355039,-0.006904135,-0.008180492,0.803228498,-0.000138703,0.000156301,-0.000407854,0.078510292,-0.048912156,9.811779976
1784243938.357053,-0.006903319,-0.008179928,0.803228498,0.000249491,-0.000139434,0.000191612,0.101641469,-0.065795213,9.813037872
1784243938.359049,-0.006903319,-0.008179928,0.803228498,0.000546124,-0.000855902,0.000120097,0.078780726,-0.064104065,9.805405617
1784243938.361084,-0.006903528,-0.008179395,0.803228498,0.000258577,-0.001278318,-0.000600164,0.073839188,-0.064491965,9.805845261
1784243938.363057,-0.006903528,-0.008179395,0.803228498,-0.000141824,-0.000706120,-0.000452351,0.072907843,-0.065964267,9.825562477
1784243938.365079,-0.006903528,-0.008179395,0.803228498,-0.000158795,0.000154307,0.000217844,0.082091160,-0.050648242,9.797424316
1784243938.367069,-0.006902955,-0.008179357,0.803228498,0.000309362,-0.000013592,0.000305270,0.074193120,-0.072135307,9.808935165
1784243938.369064,-0.006902955,-0.008179357,0.803228498,0.000776059,-0.000384600,-0.000390404,0.080737181,-0.050287966,9.812220573
1784243938.371060,-0.006901645,-0.008179454,0.803228498,0.000652609,-0.000037905,-0.000894493,0.092551947,-0.076723464,9.790990829
1784243938.373054,-0.006901645,-0.008179454,0.803228498,0.000692002,0.000605372,-0.000627521,0.097167857,-0.064416103,9.816181183
1784243938.375052,-0.006901645,-0.008179454,0.803228498,0.000791389,0.001016577,0.000000000,0.072783723,-0.077480882,9.807106972
1784243938.377056,-0.006902436,-0.008179068,0.803228498,0.000260349,0.000762675,0.000778034,0.079241231,-0.062800914,9.810346603
1784243938.379054,-0.006902436,-0.008179068,0.803228498,0.000071197,0.000362576,0.000856540,0.084547855,-0.071184032,9.782501221
1784243938.381063,-0.006902500,-0.008179815,0.803228498,0.000280099,0.000163010,-0.000005849,0.099946439,-0.057689846,9.810399055
1784243938.383062,-0.006902500,-0.008179815,0.803228498,0.000120426,-0.000340542,-0.000383856,0.059053883,-0.062913850,9.799566269
1784243938.385062,-0.006902500,-0.008179815,0.803228498,0.000077568,-0.000477719,-0.000080176,0.059057511,-0.062885225,9.795531273
1784243938.387062,-0.006902182,-0.008177648,0.803228498,0.000143657,-0.000088514,-0.000542037,0.055748634,-0.075518258,9.813829422
1784243938.389068,-0.006902182,-0.008177648,0.803228498,0.000061762,-0.000250019,-0.001458842,0.068392150,-0.108586110,9.778658867
1784243938.391070,-0.006904782,-0.008176479,0.803228498,-0.000179928,-0.000386365,-0.001693875,0.079075433,-0.115478471,9.783555984
1784243938.393105,-0.006904782,-0.008176479,0.803228498,-0.000604954,0.000017649,-0.001321131,0.062343016,-0.088026576,9.796718597
1784243938.395085,-0.006904782,-0.008176479,0.803228498,-0.000591125,0.000180939,-0.000797081,0.043449484,-0.054627065,9.796464920
1784243938.397105,-0.006905027,-0.008174410,0.803228557,-0.000460647,-0.000242154,-0.000291783,0.051853992,-0.064200722,9.804482460
1784243938.399079,-0.006905027,-0.008174410,0.803228557,-0.000403139,-0.000763523,-0.000322065,0.060206477,-0.079048157,9.798116684
1784243938.401076,-0.006906608,-0.008173261,0.803228557,0.000204718,-0.000715354,-0.000683826,0.075306594,-0.055851690,9.785280228
1784243938.403077,-0.006906608,-0.008173261,0.803228557,0.000908221,0.000176351,-0.000202054,0.093664728,-0.093982629,9.821817398
1784243938.405081,-0.006906608,-0.008173261,0.803228557,0.000881932,0.001190966,0.000276452,0.095459528,-0.059252489,9.786173820
1784243938.407094,-0.006906195,-0.008173510,0.803228557,0.000928776,0.001213187,0.000007387,0.092750683,-0.060565058,9.786611557
1784243938.409083,-0.006906195,-0.008173510,0.803228557,0.001550401,0.000377188,-0.000210489,0.066313677,-0.056696225,9.794233322
1784243938.411081,-0.006905327,-0.008172481,0.803228557,0.001533423,-0.000173650,-0.000225218,0.071239918,-0.021676024,9.775183678
1784243938.413085,-0.006905327,-0.008172481,0.803228557,0.000784654,-0.000064561,0.000018451,0.089126147,-0.027662713,9.765747070
1784243938.415134,-0.006905327,-0.008172481,0.803228557,-0.000246683,0.000183468,-0.000020493,0.088650391,-0.067486741,9.759215355
1784243938.417112,-0.006903973,-0.008173277,0.803228557,-0.000800751,0.000165365,-0.000266280,0.077906914,-0.064311601,9.773123741
1784243938.419106,-0.006903973,-0.008173277,0.803228557,-0.000861852,0.000093490,-0.000282649,0.086576395,-0.051125083,9.793392181
1784243938.421121,-0.006902723,-0.008173451,0.803228557,-0.001030556,0.000206011,-0.000546578,0.082346238,-0.030397790,9.784553528
1784243938.423127,-0.006902723,-0.008173451,0.803228557,-0.001066393,-0.000036500,-0.000812724,0.107501984,-0.065653734,9.782558441
1784243938.425112,-0.006902723,-0.008173451,0.803228557,-0.000588162,-0.000450935,-0.001277909,0.094236314,-0.085318118,9.799454689
1784243938.427112,-0.006904013,-0.008174979,0.803228557,0.000343162,-0.000450379,-0.002065476,0.075593442,-0.066456258,9.826907158
1784243938.429101,-0.006904013,-0.008174979,0.803228557,0.000986046,-0.000360591,-0.002476302,0.071962848,-0.071191572,9.806250572
1784243938.431104,-0.006904486,-0.008174916,0.803228557,0.000725313,-0.000722400,-0.002273672,0.053038001,-0.077250175,9.810227394
1784243938.433105,-0.006904486,-0.008174916,0.803228557,-0.000193434,-0.001447533,-0.001895115,0.075805865,-0.087779716,9.800766945
1784243938.435105,-0.006904486,-0.008174916,0.803228557,-0.000551746,-0.001584817,-0.001345890,0.104563899,-0.084986493,9.797225952
1784243938.437113,-0.006904950,-0.008176464,0.803228498,-0.000395458,-0.001387990,-0.000185293,0.086233228,-0.076528870,9.838061333
1784243938.439111,-0.006904950,-0.008176464,0.803228498,-0.000102609,-0.001373634,0.000840274,0.096118659,-0.077760763,9.804438591
1784243938.441112,-0.006905575,-0.008176844,0.803228498,0.000462450,-0.000838462,0.000525814,0.082010821,-0.094951279,9.789967537
1784243938.443118,-0.006905575,-0.008176844,0.803228498,0.000769775,-0.000191829,-0.000297712,0.103885494,-0.067440927,9.788372040
1784243938.445114,-0.006905575,-0.008176844,0.803228498,0.000771851,-0.000010786,-0.000177538,0.052009698,-0.052029453,9.793801308
1784243938.447115,-0.006904921,-0.008175976,0.803228557,0.000680514,0.000098349,0.000848428,0.064824536,-0.030755069,9.803364754
1784243938.449116,-0.006904921,-0.008175976,0.803228557,0.001105780,0.000479421,0.001453880,0.103076018,-0.025092760,9.757259369
1784243938.451115,-0.006903163,-0.008177195,0.803228498,0.002140688,0.000701632,0.000848784,0.109157436,-0.075287417,9.811191559
1784243938.453116,-0.006903163,-0.008177195,0.803228498,0.002494266,0.000581167,0.000189147,0.069174364,-0.080427527,9.786910057
1784243938.455129,-0.006903163,-0.008177195,0.803228498,0.002044925,0.000496383,0.000465678,0.076976813,-0.104174398,9.772866249
1784243938.457128,-0.006904973,-0.008176953,0.803228498,0.001517585,0.000363893,0.000810831,0.077774905,-0.075485185,9.769465446
1784243938.459135,-0.006904973,-0.008176953,0.803228498,0.001148060,-0.000109105,0.000789419,0.073726170,-0.076326191,9.769007683
1784243938.461126,-0.006905495,-0.008176616,0.803228498,0.000768201,-0.000650587,0.000790600,0.043849278,-0.058261018,9.802719116
1784243938.463132,-0.006905495,-0.008176616,0.803228498,0.000005457,-0.000789372,0.001044838,0.072179779,-0.052863318,9.811748505
1784243938.465129,-0.006905495,-0.008176616,0.803228498,-0.000475148,-0.000639296,0.001231566,0.102963574,-0.068433456,9.803607941
1784243938.467129,-0.006904735,-0.008177659,0.803228498,-0.000662203,-0.000460835,0.001548758,0.057691496,-0.063430421,9.811666489
1784243938.469131,-0.006904735,-0.008177659,0.803228498,-0.000870507,-0.000276830,0.001906378,0.084931605,-0.038165268,9.801094055
1784243938.471134,-0.006903628,-0.008177669,0.803228498,-0.001204106,-0.000371049,0.001551578,0.092901163,-0.083188258,9.817402840
1784243938.473156,-0.006903628,-0.008177669,0.803228498,-0.001375609,-0.000635018,0.000732530,0.098138794,-0.061415505,9.770470619
1784243938.475144,-0.006903628,-0.008177669,0.803228498,-0.001227343,-0.000632603,0.000191536,0.093477473,-0.075702310,9.771719933
1784243938.477143,-0.006904252,-0.008178177,0.803228498,-0.001086275,-0.000831627,0.000193501,0.057319202,-0.058363542,9.792868614
1784243938.479145,-0.006904252,-0.008178177,0.803228498,-0.000659336,-0.001123328,0.000068268,0.064704828,-0.079826683,9.773459435
1784243938.481299,-0.006904646,-0.008177415,0.803228498,-0.000093559,-0.001159359,0.000104787,0.065477543,-0.088927776,9.791784286
1784243938.483197,-0.006904646,-0.008177415,0.803228498,0.000521026,-0.000793688,0.000440777,0.067913301,-0.072038919,9.806688309
1784243938.485185,-0.006904646,-0.008177415,0.803228498,0.000813893,0.000247007,0.000906232,0.053406898,-0.047995977,9.791137695
1784243938.487175,-0.006903579,-0.008176412,0.803228557,0.000507972,0.001338601,0.000614530,0.059683789,-0.046494480,9.820743561
1784243938.489172,-0.006903579,-0.008176412,0.803228557,0.000189108,0.001507978,-0.000107061,0.077666909,-0.046447817,9.781756401
1784243938.491194,-0.006902519,-0.008176083,0.803228557,0.000238723,0.001014474,-0.000328841,0.066725902,-0.059421532,9.798699379
1784243938.493198,-0.006902519,-0.008176083,0.803228557,0.000345216,0.000351647,-0.001051590,0.096220843,-0.069659308,9.799109459
1784243938.495189,-0.006902519,-0.008176083,0.803228557,0.000024182,-0.000129130,-0.001217691,0.069233753,-0.073879808,9.811161041
1784243938.497184,-0.006902560,-0.008175666,0.803228557,0.000317553,-0.000022500,-0.000450771,0.062370878,-0.048190452,9.802352905
1784243938.499188,-0.006902560,-0.008175666,0.803228557,0.001054314,-0.000023676,0.000306883,0.051166669,-0.048751861,9.775439262
1784243938.501283,-0.006901430,-0.008173930,0.803228557,0.000941590,0.000108576,0.000840484,0.067954220,-0.069284394,9.797291756
1784243938.503173,-0.006901430,-0.008173930,0.803228557,0.000954571,0.000548426,0.000816081,0.089121364,-0.063264072,9.794660568
1784243938.505206,-0.006901430,-0.008173930,0.803228557,0.000964896,0.000836055,0.000274619,0.083244033,-0.067996077,9.777587891
1784243938.507190,-0.006901684,-0.008174028,0.803228557,-0.000220296,0.001059777,-0.000338268,0.105008461,-0.048650779,9.790286064
1784243938.509178,-0.006901684,-0.008174028,0.803228557,-0.001483241,0.001134966,-0.000442890,0.109788708,-0.061288722,9.794692993
1784243938.511174,-0.006900931,-0.008175171,0.803228557,-0.001503997,0.000818067,-0.000194814,0.084573813,-0.067737065,9.801800728
1784243938.513177,-0.006900931,-0.008175171,0.803228557,-0.001357422,0.000495359,0.000003703,0.056951921,-0.052851889,9.774521828
1784243938.515187,-0.006900931,-0.008175171,0.803228557,-0.001465794,0.000319687,-0.000357141,0.049316611,-0.088781215,9.800287247
1784243938.517189,-0.006901057,-0.008172663,0.803228557,-0.000732491,-0.000047936,-0.001125507,0.072106235,-0.096302219,9.808778763
1784243938.519192,-0.006901057,-0.008172663,0.803228557,-0.000254108,-0.000441691,-0.001595785,0.090895511,-0.102255896,9.793066978
1784243938.521180,-0.006903108,-0.008173947,0.803228557,-0.000540299,-0.000691562,-0.000982435,0.087060086,-0.047207288,9.808659554
1784243938.523185,-0.006903108,-0.008173947,0.803228557,-0.000317747,-0.000955549,0.000331100,0.099076837,-0.057458952,9.779464722
1784243938.525184,-0.006903108,-0.008173947,0.803228557,0.000299919,-0.000968685,0.000621802,0.100905359,-0.052757867,9.808189392
1784243938.527188,-0.006902033,-0.008174844,0.803228557,0.000395666,-0.000500590,-0.000121073,0.083014630,-0.048832927,9.792505264
1784243938.529188,-0.006902033,-0.008174844,0.803228557,-0.000041151,-0.000190014,-0.000681276,0.075164005,-0.068324648,9.775336266
1784243938.531186,-0.006901923,-0.008174145,0.803228557,-0.000025672,-0.000884987,-0.001148135,0.050741561,-0.080881424,9.820960999
1784243938.533188,-0.006901923,-0.008174145,0.803228557,0.000341818,-0.001828860,-0.001201280,0.088741548,-0.057040915,9.802322388
1784243938.535194,-0.006901923,-0.008174145,0.803228557,0.000567095,-0.001348270,-0.000872519,0.100603834,-0.077427521,9.812514305
1784243938.537192,-0.006902580,-0.008174914,0.803228557,0.000738788,-0.000313835,-0.000701402,0.076490723,-0.067684442,9.808965683
1784243938.539189,-0.006902580,-0.008174914,0.803228557,0.000297427,-0.000094461,-0.000526466,0.091648839,-0.075946406,9.809377670
1784243938.541192,-0.006903006,-0.008175599,0.803228557,-0.000299426,-0.000379779,-0.000708825,0.096715935,-0.064435787,9.819766998
1784243938.543194,-0.006903006,-0.008175599,0.803228557,-0.000212003,-0.000878592,-0.001275707,0.088610627,-0.069421664,9.779378891
1784243938.545200,-0.006903006,-0.008175599,0.803228557,0.000125298,-0.000958706,-0.001397832,0.083399303,-0.052181076,9.821626663
1784243938.547202,-0.006901836,-0.008175432,0.803228557,0.000139361,-0.000480903,-0.000455227,0.096263714,-0.066078797,9.799581528
1784243938.549198,-0.006901836,-0.008175432,0.803228557,-0.000195699,-0.000326211,0.000085411,0.067112505,-0.102370530,9.789009094
1784243938.551205,-0.006903809,-0.008174801,0.803228557,-0.000496510,-0.000656800,-0.000516150,0.086223766,-0.117435426,9.793861389
1784243938.553206,-0.006903809,-0.008174801,0.803228557,-0.000374222,-0.001081636,-0.000900708,0.044205718,-0.105095401,9.772380829
1784243938.555207,-0.006903809,-0.008174801,0.803228557,0.000259903,-0.000987667,-0.000419564,0.045686085,-0.091489770,9.809680939
1784243938.557223,-0.006905561,-0.008171825,0.803228557,0.000656034,-0.000236856,0.000313729,0.072583832,-0.056868918,9.807239532
1784243938.559212,-0.006905561,-0.008171825,0.803228557,0.000580815,0.000133369,0.000954673,0.093574956,-0.028832341,9.796231270
1784243938.561212,-0.006903367,-0.008173036,0.803228557,0.000267907,-0.000114460,0.001147524,0.094761737,-0.041049473,9.810949326
1784243938.563210,-0.006903367,-0.008173036,0.803228557,0.000079326,-0.000112224,0.000765592,0.097057268,-0.038641270,9.783168793
1784243938.565296,-0.006903367,-0.008173036,0.803228557,0.000596179,0.000276009,0.000869640,0.091551200,-0.048043054,9.792070389
1784243938.567228,-0.006901713,-0.008172237,0.803228557,0.001568796,0.000656084,0.001650948,0.084945925,-0.073210545,9.814767838
1784243938.569223,-0.006901713,-0.008172237,0.803228557,0.001911333,0.000505595,0.002108848,0.087100632,-0.082855970,9.781084061
1784243938.571224,-0.006902627,-0.008172664,0.803228557,0.001764014,0.000315007,0.001665115,0.074917957,-0.050508562,9.790695190
1784243938.573218,-0.006902627,-0.008172664,0.803228557,0.001535123,0.000540228,0.000892400,0.051826429,-0.067660399,9.786974907
1784243938.575229,-0.006902627,-0.008172664,0.803228557,0.001136117,0.001028908,0.000637805,0.062892251,-0.079133525,9.805294037
1784243938.577224,-0.006901968,-0.008170093,0.803228557,0.000666559,0.001566718,0.000471116,0.069551483,-0.085456245,9.800328255
1784243938.579223,-0.006901968,-0.008170093,0.803228557,-0.000003641,0.001587603,-0.000230561,0.067175806,-0.059417743,9.797353745
1784243938.581227,-0.006901146,-0.008169181,0.803228557,-0.000171124,0.001132377,-0.000906303,0.094231434,-0.049793087,9.781302452
1784243938.583228,-0.006901146,-0.008169181,0.803228557,0.000522384,0.001006951,-0.001233663,0.096518785,-0.083418310,9.780191422
1784243938.585229,-0.006901146,-0.008169181,0.803228557,0.000835633,0.001652849,-0.001017043,0.085974172,-0.065704912,9.765501022
1784243938.587236,-0.006901220,-0.008170064,0.803228557,0.000536301,0.001893306,-0.000572529,0.072035849,-0.104152486,9.778690338
1784243938.589240,-0.006901220,-0.008170064,0.803228557,0.000546082,0.001382603,-0.000342424,0.080703452,-0.055012040,9.783496857
1784243938.591240,-0.006901038,-0.008170142,0.803228557,0.000514534,0.000864550,0.000221470,0.074061356,-0.083712354,9.798998833
1784243938.593244,-0.006901038,-0.008170142,0.803228557,0.000201696,0.000506286,0.000956840,0.056380369,-0.062326454,9.784771919
1784243938.595237,-0.006901038,-0.008170142,0.803228557,0.000372455,0.000173316,0.000788761,0.077731818,-0.075825416,9.817434311
1784243938.597244,-0.006902033,-0.008169886,0.803228557,0.000966544,-0.000092755,0.000739140,0.095502682,-0.054048661,9.810418129
1784243938.599247,-0.006902033,-0.008169886,0.803228557,0.001142275,-0.000468897,0.001531950,0.122824691,-0.021247672,9.811102867
1784243938.601283,-0.006898756,-0.008172052,0.803228617,0.000946515,-0.000665212,0.001748387,0.099032290,-0.022652136,9.799413681
1784243938.603250,-0.006898756,-0.008172052,0.803228617,0.000646590,-0.000460229,0.001203726,0.050746910,-0.044870265,9.797431946
1784243938.605257,-0.006898756,-0.008172052,0.803228617,0.000624610,-0.000546566,0.000733739,0.072989032,-0.060054913,9.813495636
1784243938.607295,-0.006898267,-0.008171182,0.803228617,0.000952819,-0.000488839,0.000663355,0.093686074,-0.056224138,9.804574013
1784243938.609260,-0.006898267,-0.008171182,0.803228617,0.001158704,-0.000193884,0.000523177,0.066517770,-0.076869763,9.795449257
1784243938.611254,-0.006898362,-0.008170370,0.803228617,0.001109058,-0.000066303,0.000329997,0.059972581,-0.061946753,9.787915230
1784243938.613253,-0.006898362,-0.008170370,0.803228617,0.000675448,0.000101703,0.000387624,0.104586340,-0.083188288,9.796342850
1784243938.615254,-0.006898362,-0.008170370,0.803228617,-0.000072300,0.000443967,0.000556506,0.077455863,-0.062298156,9.805864334
1784243938.617256,-0.006897533,-0.008170064,0.803228617,-0.000417242,0.000728475,0.000463427,0.096220225,-0.069259048,9.805836678
1784243938.619276,-0.006897533,-0.008170064,0.803228617,0.000108817,0.000909687,0.000342554,0.099978253,-0.057438657,9.774983406
1784243938.621264,-0.006897343,-0.008171177,0.803228617,0.000616932,0.000913582,0.000380346,0.094035573,-0.066739291,9.770433426
1784243938.623264,-0.006897343,-0.008171177,0.803228617,0.000493946,0.000366417,-0.000029213,0.083292268,-0.063157529,9.790172577
1784243938.625263,-0.006897343,-0.008171177,0.803228617,-0.000176527,-0.000171910,-0.000004342,0.103398599,-0.068547308,9.818851471
1784243938.627266,-0.006896649,-0.008172372,0.803228617,-0.000969906,-0.000257125,0.000394090,0.107954383,-0.063604109,9.808575630
1784243938.629267,-0.006896649,-0.008172372,0.803228617,-0.001165978,-0.000090107,0.000812589,0.089205779,-0.092082419,9.814650536
1784243938.631271,-0.006897732,-0.008172171,0.803228617,-0.000987442,-0.000174762,0.001911103,0.074714676,-0.065081798,9.824225426
1784243938.633268,-0.006897732,-0.008172171,0.803228617,-0.000822648,-0.000485476,0.002168471,0.065449767,-0.016804077,9.793591499
1784243938.635269,-0.006897732,-0.008172171,0.803228617,-0.000662189,-0.000456400,0.001725636,0.069309309,-0.030425018,9.811888695
1784243938.637280,-0.006895305,-0.008171237,0.803228617,-0.000598432,-0.000204308,0.001999946,0.088482484,-0.043380115,9.771923065
1784243938.639290,-0.006895305,-0.008171237,0.803228617,-0.000862042,-0.000286753,0.002107545,0.088584341,-0.070845038,9.790576935
1784243938.641279,-0.006895620,-0.008172137,0.803228617,-0.001475252,-0.000863474,0.002056018,0.076548167,-0.061962705,9.823349953
1784243938.643275,-0.006895620,-0.008172137,0.803228617,-0.001776405,-0.001160292,0.002199918,0.050417077,-0.073816039,9.773036003
1784243938.645286,-0.006895620,-0.008172137,0.803228617,-0.001935247,-0.000958543,0.001548997,0.075550787,-0.073277049,9.777995110
1784243938.647287,-0.006896596,-0.008172587,0.803228617,-0.002011162,-0.000557688,0.000697197,0.052436411,-0.054640297,9.782127380
1784243938.649313,-0.006896596,-0.008172587,0.803228617,-0.001235164,-0.000275518,0.000222351,0.057861067,-0.050744418,9.791572571
1784243938.651328,-0.006895721,-0.008171531,0.803228617,-0.000309267,-0.000146398,-0.000033164,0.062509768,-0.075362846,9.779762268
1784243938.653286,-0.006895721,-0.008171531,0.803228617,-0.000137428,0.000242179,-0.000398980,0.097088329,-0.073959641,9.772183418
1784243938.655301,-0.006895721,-0.008171531,0.803228617,-0.000067568,0.000453078,-0.000539600,0.124362200,-0.079533629,9.813868523
1784243938.657294,-0.006896536,-0.008173639,0.803228617,0.000123082,0.000295236,0.000006311,0.117336616,-0.066476196,9.817532539
1784243938.659296,-0.006896536,-0.008173639,0.803228617,-0.000152360,0.000241039,0.000024595,0.092628464,-0.070445634,9.790135384
1784243938.661291,-0.006896763,-0.008173646,0.803228617,-0.000369838,0.000274954,-0.000160274,0.063636832,-0.054514132,9.807246208
1784243938.663295,-0.006896763,-0.008173646,0.803228617,0.000052628,0.000596947,0.000104770,0.053986385,-0.074427634,9.789624214
1784243938.665310,-0.006896763,-0.008173646,0.803228617,0.000448856,0.000773134,0.000857274,0.078297794,-0.067205429,9.801350594
1784243938.667329,-0.006896848,-0.008173844,0.803228617,0.000006661,0.000294735,0.001834166,0.073377311,-0.066211291,9.796420097
1784243938.669304,-0.006896848,-0.008173844,0.803228617,-0.000422972,-0.000067625,0.002058175,0.096886300,-0.051743429,9.798775673
1784243938.671322,-0.006895993,-0.008174951,0.803228617,-0.000084578,-0.000337297,0.002005745,0.088796489,-0.053365022,9.789343834
1784243938.673305,-0.006895993,-0.008174951,0.803228617,-0.000312303,-0.000941843,0.001838160,0.071779877,-0.050446060,9.787552834
1784243938.675308,-0.006895993,-0.008174951,0.803228617,-0.001146070,-0.001354835,0.001354132,0.073465638,-0.058624573,9.800504684
1784243938.677311,-0.006895714,-0.008174483,0.803228617,-0.001278785,-0.001211497,0.001113062,0.082595043,-0.047381550,9.778167725
1784243938.679308,-0.006895714,-0.008174483,0.803228617,-0.000916918,-0.000587720,0.000561980,0.084384911,-0.045822553,9.807769775
1784243938.681311,-0.006894878,-0.008174215,0.803228617,-0.000540598,0.000103786,-0.000541999,0.108812757,-0.067570940,9.797790527
1784243938.683309,-0.006894878,-0.008174215,0.803228617,-0.000129227,-0.000042906,-0.001187175,0.097123951,-0.070436366,9.780724525
1784243938.685313,-0.006894878,-0.008174215,0.803228617,0.000038394,-0.000547426,-0.001154154,0.062249359,-0.056444529,9.829199791
1784243938.687316,-0.006894642,-0.008173237,0.803228617,-0.000179323,-0.000516867,-0.000875695,0.066628486,-0.066674761,9.810756683
1784243938.689314,-0.006894642,-0.008173237,0.803228617,-0.000263530,-0.000350085,-0.000888539,0.061430354,-0.091782816,9.759480476
1784243938.691314,-0.006896107,-0.008172166,0.803228617,-0.000036597,-0.000479255,-0.001620907,0.069803223,-0.066447921,9.773102760
1784243938.693322,-0.006896107,-0.008172166,0.803228617,0.000361605,-0.000668850,-0.001667192,0.073619209,-0.082439028,9.809765816
1784243938.695315,-0.006896107,-0.008172166,0.803228617,0.000488711,-0.000630863,-0.000779546,0.078520462,-0.085205927,9.811994553
1784243938.697329,-0.006896451,-0.008171769,0.803228617,0.000134308,-0.000235618,-0.000582862,0.081162728,-0.091308385,9.783265114
1784243938.699331,-0.006896451,-0.008171769,0.803228617,-0.000700197,0.000134176,-0.001035750,0.061119020,-0.076508604,9.817413330
1784243938.701332,-0.006897171,-0.008170980,0.803228617,-0.001512066,-0.000062212,-0.001368593,0.057668481,-0.065638416,9.807168007
1784243938.703328,-0.006897171,-0.008170980,0.803228617,-0.001184235,-0.000327281,-0.000942368,0.063777231,-0.045300532,9.771438599
1784243938.705331,-0.006897171,-0.008170980,0.803228617,-0.000198728,0.000097998,-0.000049577,0.085891321,-0.070816904,9.791470528
1784243938.707333,-0.006897435,-0.008171373,0.803228617,0.000050638,0.000434181,0.000058659,0.099847980,-0.067382827,9.787470818
1784243938.709335,-0.006897435,-0.008171373,0.803228617,-0.000080005,0.000022240,-0.000805342,0.077797011,-0.071663395,9.799078941
1784243938.711335,-0.006897726,-0.008170513,0.803228617,0.000439693,-0.000214038,-0.001180699,0.091753677,-0.068229310,9.795080185
1784243938.713336,-0.006897726,-0.008170513,0.803228617,0.000821056,-0.000029086,-0.000982803,0.079248659,-0.062337048,9.808107376
1784243938.715349,-0.006897726,-0.008170513,0.803228617,0.000576007,0.000149941,-0.001272464,0.058062863,-0.069720335,9.813418388
1784243938.717345,-0.006897899,-0.008169742,0.803228617,0.000198013,0.000175956,-0.001719052,0.064803921,-0.070533976,9.789659500
1784243938.719343,-0.006897899,-0.008169742,0.803228617,0.000157094,0.000208387,-0.001719006,0.094876923,-0.069219537,9.802698135
1784243938.721339,-0.006898936,-0.008171616,0.803228557,0.000304002,-0.000025314,-0.001160520,0.095416181,-0.064862944,9.756099701
1784243938.723347,-0.006898936,-0.008171616,0.803228557,-0.000203567,-0.000171159,-0.000718405,0.091801949,-0.064200841,9.795554161
1784243938.725342,-0.006898936,-0.008171616,0.803228557,-0.001201270,0.000109229,-0.000702054,0.118215941,-0.070277691,9.783435822
1784243938.727347,-0.006899526,-0.008174469,0.803228557,-0.001514773,0.000022593,-0.000943831,0.067920491,-0.074008465,9.768569946
1784243938.729344,-0.006899526,-0.008174469,0.803228557,-0.001041724,-0.000389957,-0.001138848,0.072448373,-0.067664504,9.813446999
1784243938.731349,-0.006898863,-0.008173170,0.803228617,-0.000692043,-0.000257573,-0.001440961,0.072645217,-0.053142149,9.787089348
1784243938.733345,-0.006898863,-0.008173170,0.803228617,-0.000397916,0.000109206,-0.001785842,0.064913027,-0.060351692,9.806762695
1784243938.735347,-0.006898863,-0.008173170,0.803228617,-0.000061689,0.000083335,-0.001424761,0.071610354,-0.063942134,9.795536041
1784243938.737351,-0.006899136,-0.008172564,0.803228557,0.000002455,0.000101441,-0.000999333,0.050899960,-0.069904611,9.789201736
1784243938.739347,-0.006899136,-0.008172564,0.803228557,-0.000113031,0.000100151,-0.000978580,0.057296485,-0.058948223,9.812142372
1784243938.741360,-0.006898085,-0.008171666,0.803228617,-0.000238280,-0.000315543,-0.000767268,0.079383805,-0.053164791,9.778128624
1784243938.743351,-0.006898085,-0.008171666,0.803228617,-0.000005702,-0.000625959,0.000055060,0.107518390,-0.063903235,9.788398743
1784243938.745355,-0.006898085,-0.008171666,0.803228617,0.000529604,-0.000425054,0.000819544,0.061690681,-0.068654187,9.782943726
1784243938.747359,-0.006896962,-0.008171191,0.803228617,0.000485300,-0.000397462,0.000959919,0.059525874,-0.099515058,9.779156685
1784243938.749357,-0.006896962,-0.008171191,0.803228617,-0.000327614,-0.000674710,0.001023180,0.061220065,-0.069226757,9.801321030
1784243938.751364,-0.006896782,-0.008170281,0.803228617,-0.001205788,-0.000620171,0.000835566,0.116309911,-0.078832731,9.792794228
1784243938.753359,-0.006896782,-0.008170281,0.803228617,-0.001607553,-0.000295460,0.000773065,0.107862644,-0.071622893,9.802247047
1784243938.755372,-0.006896782,-0.008170281,0.803228617,-0.001271227,-0.000355342,0.000997658,0.089646421,-0.057398628,9.787975311
1784243938.757371,-0.006896208,-0.008171014,0.803228617,-0.000647393,-0.000597721,0.000619212,0.067646131,-0.095221609,9.790848732
1784243938.759367,-0.006896208,-0.008171014,0.803228617,-0.000623156,-0.000515229,-0.000052861,0.089425407,-0.074948601,9.799070358
1784243938.761373,-0.006895920,-0.008171749,0.803228617,-0.000733335,-0.000509525,-0.000254137,0.100425810,-0.055427171,9.806378365
1784243938.763368,-0.006895920,-0.008171749,0.803228617,-0.000308547,-0.000618811,-0.000400594,0.080869108,-0.075894266,9.821471214
1784243938.765370,-0.006895920,-0.008171749,0.803228617,0.000183151,-0.000539172,-0.000379747,0.091588020,-0.044510245,9.799265862
1784243938.767374,-0.006894564,-0.008171952,0.803228617,0.000431204,-0.000606737,-0.000239072,0.072029985,-0.069040425,9.755602837
1784243938.769372,-0.006894564,-0.008171952,0.803228617,0.000989581,-0.000840133,-0.000118966,0.088435292,-0.083368868,9.787806511
1784243938.771378,-0.006895540,-0.008172778,0.803228617,0.001647012,-0.001106621,0.000582152,0.096874565,-0.091452368,9.775207520
1784243938.773378,-0.006895540,-0.008172778,0.803228617,0.001187767,-0.001110648,0.001092478,0.046697415,-0.084117658,9.779242516
1784243938.775380,-0.006895540,-0.008172778,0.803228617,0.000207516,-0.000778426,0.000779117,0.057634871,-0.069145791,9.796386719
1784243938.777380,-0.006895519,-0.008170850,0.803228617,0.000126299,-0.000595456,0.000262685,0.087086089,-0.047407236,9.773689270
1784243938.779382,-0.006895519,-0.008170850,0.803228617,0.000911876,-0.000764020,0.000662358,0.074128293,-0.040730949,9.803308487
1784243938.781381,-0.006894511,-0.008170730,0.803228617,0.001249042,-0.000849500,0.001151920,0.090620011,-0.051945560,9.775455475
1784243938.783391,-0.006894511,-0.008170730,0.803228617,0.000827703,-0.000847041,0.000930204,0.094431400,-0.065541439,9.853384018
1784243938.785389,-0.006894511,-0.008170730,0.803228617,0.000235023,-0.000500626,0.000842359,0.092703663,-0.100147195,9.808324814
1784243938.787405,-0.006895323,-0.008171095,0.803228617,-0.000355316,0.000166539,0.000924838,0.078244157,-0.107245065,9.824406624
1784243938.789415,-0.006895323,-0.008171095,0.803228617,-0.000557272,0.000002352,0.000945560,0.093511030,-0.071384855,9.794612885
1784243938.791396,-0.006894839,-0.008172231,0.803228617,-0.000635847,-0.000442645,0.001067262,0.096691996,-0.067866847,9.798225403
1784243938.793399,-0.006894839,-0.008172231,0.803228617,-0.001107939,-0.000602348,0.001481111,0.088731125,-0.057933658,9.801868439
1784243938.795395,-0.006894839,-0.008172231,0.803228617,-0.000960592,-0.000435999,0.001784951,0.057765495,-0.058388367,9.795557976
1784243938.797403,-0.006894271,-0.008171549,0.803228617,0.000256827,0.000181730,0.001270702,0.072233468,-0.048386887,9.812225342
1784243938.799397,-0.006894271,-0.008171549,0.803228617,0.000711990,0.000729490,0.000390484,0.063056178,-0.066492043,9.791477203
1784243938.801401,-0.006894015,-0.008171231,0.803228617,0.000403708,0.000644799,0.000503719,0.115583114,-0.066532321,9.765523911
1784243938.803404,-0.006894015,-0.008171231,0.803228617,0.000297623,-0.000033800,0.001178671,0.094472006,-0.067247063,9.778051376
1784243938.805408,-0.006894015,-0.008171231,0.803228617,0.000081038,-0.000198015,0.000913808,0.050757546,-0.081970938,9.785088539
1784243938.807408,-0.006894603,-0.008170543,0.803228617,-0.000284940,0.000407004,0.000327425,0.034460530,-0.092219710,9.806529045
1784243938.809402,-0.006894603,-0.008170543,0.803228617,-0.000064801,0.000873966,0.000641294,0.069817960,-0.063900054,9.792844772
1784243938.811410,-0.006894021,-0.008171044,0.803228617,0.000631385,0.000649061,0.001084270,0.096022390,-0.049441248,9.791617393
1784243938.813413,-0.006894021,-0.008171044,0.803228617,0.000594265,0.000241204,0.001061764,0.073115498,-0.050545979,9.799210548
1784243938.815409,-0.006894021,-0.008171044,0.803228617,0.000390071,0.000200307,0.000667427,0.094969966,-0.062811360,9.783460617
1784243938.817422,-0.006893911,-0.008170760,0.803228617,0.000370215,0.000280108,-0.000106427,0.089898214,-0.073953502,9.784281731
1784243938.819417,-0.006893911,-0.008170760,0.803228617,-0.000169741,0.000218357,-0.000743882,0.074232593,-0.068986870,9.807162285
1784243938.821417,-0.006894184,-0.008170161,0.803228617,-0.000583123,0.000028599,-0.001046633,0.056177419,-0.078923278,9.787803650
1784243938.823416,-0.006894184,-0.008170161,0.803228617,-0.000360727,-0.000134722,-0.001031818,0.049365655,-0.046346344,9.818492889
1784243938.825422,-0.006894184,-0.008170161,0.803228617,-0.000108015,-0.000148895,-0.000659262,0.082835160,-0.064028636,9.787476540
1784243938.827502,-0.006893506,-0.008170547,0.803228617,-0.000466645,-0.000119252,-0.000081617,0.086932108,-0.061185930,9.758357048
1784243938.829561,-0.006893506,-0.008170547,0.803228617,-0.000891027,-0.000184455,0.000103775,0.080358543,-0.046892118,9.776375771
1784243938.831462,-0.006892050,-0.008170260,0.803228617,-0.000363334,0.000122326,-0.000299420,0.061406035,-0.054790258,9.787066460
1784243938.833447,-0.006892050,-0.008170260,0.803228617,0.000075277,0.000450125,-0.000087025,0.088784136,-0.052246887,9.821182251
1784243938.835487,-0.006892050,-0.008170260,0.803228617,-0.000220938,0.000692906,0.000499989,0.092654809,-0.066995494,9.808986664
1784243938.837466,-0.006891140,-0.008170127,0.803228617,-0.000523396,0.001125238,0.000513717,0.076465636,-0.069098279,9.818821907
1784243938.839455,-0.006891140,-0.008170127,0.803228617,-0.000905883,0.001443375,0.000288805,0.072560012,-0.059083294,9.803639412
1784243938.841450,-0.006890613,-0.008169468,0.803228617,-0.000859762,0.001547410,-0.000164067,0.104438528,-0.058112621,9.798743248
1784243938.843450,-0.006890613,-0.008169468,0.803228617,-0.000665096,0.001477246,-0.000458432,0.112906098,-0.061920010,9.814867020
1784243938.845469,-0.006890613,-0.008169468,0.803228617,-0.001028726,0.001538581,-0.000510585,0.104797922,-0.066118076,9.789725304
1784243938.847464,-0.006890464,-0.008171747,0.803228617,-0.001257382,0.001618094,-0.000421963,0.077606723,-0.050165053,9.800561905
1784243938.849460,-0.006890464,-0.008171747,0.803228617,-0.001244115,0.001601640,-0.000285324,0.110793136,-0.053160612,9.783986092
1784243938.851463,-0.006889683,-0.008172690,0.803228617,-0.001074637,0.001230492,-0.000602723,0.077071190,-0.058950000,9.776743889
1784243938.853460,-0.006889683,-0.008172690,0.803228617,-0.001388215,0.000589278,-0.001233845,0.092608683,-0.069791369,9.824211121
1784243938.855488,-0.006889683,-0.008172690,0.803228617,-0.001978047,0.000179059,-0.001531402,0.081316307,-0.077532880,9.799044609
1784243938.857476,-0.006890572,-0.008173256,0.803228617,-0.001558137,-0.000059271,-0.001367394,0.086965598,-0.056058407,9.793360710
1784243938.859458,-0.006890572,-0.008173256,0.803228617,-0.000545649,-0.000114184,-0.001300287,0.084085070,-0.033699598,9.804708481
1784243938.861466,-0.006888952,-0.008173146,0.803228617,0.000068156,0.000099247,-0.001268237,0.080857769,-0.043256946,9.768329620
1784243938.863464,-0.006888952,-0.008173146,0.803228617,-0.000118032,0.000225117,-0.001173853,0.079468586,-0.043579914,9.816296577
1784243938.865457,-0.006888952,-0.008173146,0.803228617,-0.000492556,-0.000040485,-0.001125517,0.072332308,-0.079117529,9.786025047
1784243938.867460,-0.006889910,-0.008173207,0.803228617,-0.000295894,-0.000275478,-0.001017583,0.045059811,-0.070290551,9.790987015
1784243938.869472,-0.006889910,-0.008173207,0.803228617,0.000428424,-0.000236499,-0.001009067,0.051501900,-0.056948099,9.793321609
1784243938.871469,-0.006889307,-0.008171674,0.803228617,0.000848126,-0.000170608,-0.001056982,0.062755711,-0.053968824,9.795144081
1784243938.873468,-0.006889307,-0.008171674,0.803228617,0.000304536,-0.000042448,-0.000930323,0.107356749,-0.077742331,9.781584740
1784243938.875465,-0.006889307,-0.008171674,0.803228617,-0.000487933,0.000180962,-0.000801856,0.103924550,-0.101885624,9.780529022
1784243938.877471,-0.006891312,-0.008173765,0.803228617,-0.000593355,0.000448280,-0.000977713,0.083566621,-0.076697499,9.803536415
1784243938.879475,-0.006891312,-0.008173765,0.803228617,-0.000508414,0.000516277,-0.001268739,0.108485878,-0.057687789,9.794714928
1784243938.881471,-0.006890171,-0.008174947,0.803228617,-0.000666305,0.000420977,-0.000958402,0.103582323,-0.091313235,9.806599617
1784243938.883477,-0.006890171,-0.008174947,0.803228617,-0.000403311,0.000343270,-0.000045802,0.080794014,-0.082566001,9.814703941
1784243938.885478,-0.006890171,-0.008174947,0.803228617,0.000112148,0.000034169,0.000130727,0.072229259,-0.086415276,9.804359436
1784243938.887481,-0.006891461,-0.008174428,0.803228617,0.000216986,-0.000221763,-0.000120363,0.063716635,-0.083774082,9.826336861
1784243938.889482,-0.006891461,-0.008174428,0.803228617,-0.000030511,-0.000190717,0.000022351,0.083984129,-0.042601585,9.796581268
1784243938.891472,-0.006889588,-0.008175223,0.803228617,-0.000119804,-0.000167532,-0.000126262,0.108999260,-0.051914558,9.801029205
1784243938.893484,-0.006889588,-0.008175223,0.803228617,-0.000386691,-0.000488569,-0.000543609,0.106170841,-0.063492075,9.796021461
1784243938.895480,-0.006889588,-0.008175223,0.803228617,-0.000724234,-0.000577016,-0.000829007,0.067808017,-0.044195991,9.797899246
1784243938.897480,-0.006888524,-0.008175070,0.803228557,-0.000242279,-0.000147310,-0.000708074,0.058211148,-0.058012929,9.804977417
1784243938.899481,-0.006888524,-0.008175070,0.803228557,0.000306715,0.000178602,-0.000132191,0.083032236,-0.047072876,9.797000885
1784243938.901522,-0.006887424,-0.008176208,0.803228617,0.000413464,-0.000028358,-0.000112748,0.088664092,-0.064541787,9.786133766
1784243938.903499,-0.006887424,-0.008176208,0.803228617,0.000648618,-0.000754474,-0.000480627,0.045992095,-0.064758360,9.830475807
1784243938.905490,-0.006887424,-0.008176208,0.803228617,0.000260960,-0.001116085,-0.000640268,0.062075175,-0.072408967,9.806233406
1784243938.907487,-0.006887082,-0.008174382,0.803228617,-0.000739939,-0.000939786,-0.000755256,0.110543348,-0.074179813,9.778919220
1784243938.909488,-0.006887082,-0.008174382,0.803228617,-0.001031841,-0.000632535,-0.001414991,0.115191959,-0.059588131,9.797848701
1784243938.911496,-0.006887015,-0.008177068,0.803228617,-0.000721334,-0.000574791,-0.002148421,0.081691876,-0.083384380,9.802145958
1784243938.913491,-0.006887015,-0.008177068,0.803228617,-0.000392272,-0.000880691,-0.001890212,0.067842819,-0.078269042,9.800821304
1784243938.915563,-0.006887015,-0.008177068,0.803228617,-0.000388215,-0.001085098,-0.001359397,0.080011167,-0.075571164,9.777536392
1784243938.917537,-0.006887808,-0.008176265,0.803228617,-0.000271521,-0.000749254,-0.000969822,0.070101634,-0.078176968,9.783787727
1784243938.919519,-0.006887808,-0.008176265,0.803228617,0.000157017,-0.000420738,-0.000287868,0.078521557,-0.086413085,9.792709351
1784243938.921514,-0.006888330,-0.008175042,0.803228557,0.000102590,-0.000645333,0.000187709,0.063522317,-0.065144368,9.790141106
1784243938.923509,-0.006888330,-0.008175042,0.803228557,-0.000677962,-0.000905079,-0.000099364,0.096502401,-0.047578849,9.780870438
1784243938.925514,-0.006888330,-0.008175042,0.803228557,-0.001265382,-0.001113427,-0.000092008,0.087915771,-0.052816529,9.776793480
1784243938.927514,-0.006888197,-0.008176371,0.803228617,-0.001026283,-0.001382277,0.000220639,0.084905699,-0.077175438,9.805327415
1784243938.929511,-0.006888197,-0.008176371,0.803228617,-0.000342458,-0.001294864,0.000324424,0.068382487,-0.071072444,9.795935631
1784243938.931506,-0.006888254,-0.008175712,0.803228557,0.000032415,-0.000853974,0.000744920,0.074959971,-0.046124343,9.804172516
1784243938.933509,-0.006888254,-0.008175712,0.803228557,-0.000150248,-0.000817524,0.001319714,0.085018016,-0.069804549,9.776681900
1784243938.935521,-0.006888254,-0.008175712,0.803228557,-0.000319366,-0.000772804,0.001774593,0.082148641,-0.045736577,9.799697876
1784243938.937519,-0.006886941,-0.008176694,0.803228617,-0.000383564,-0.000238657,0.002397685,0.074169993,-0.037970055,9.793015480
1784243938.939511,-0.006886941,-0.008176694,0.803228617,-0.000071082,-0.000174406,0.002362963,0.073006570,-0.060321636,9.787939072
1784243938.941522,-0.006886432,-0.008176452,0.803228617,-0.000299146,-0.000622237,0.001612116,0.083358720,-0.056959204,9.800523758
1784243938.943520,-0.006886432,-0.008176452,0.803228617,-0.001434642,-0.000255273,0.001266023,0.086883217,-0.024387322,9.813288689
1784243938.945526,-0.006886432,-0.008176452,0.803228617,-0.001569583,0.000508016,0.001108021,0.076171607,-0.056524184,9.815313339
1784243938.947525,-0.006886389,-0.008176669,0.803228617,-0.001060858,0.000372886,0.001098342,0.100087248,-0.045636225,9.816304207
1784243938.949527,-0.006886389,-0.008176669,0.803228617,-0.000896494,-0.000372188,0.001231775,0.119656086,-0.060636934,9.811294556
1784243938.951528,-0.006886769,-0.008179788,0.803228617,-0.000847405,-0.000822440,0.001040554,0.074946217,-0.083012350,9.825006485
1784243938.953527,-0.006886769,-0.008179788,0.803228617,-0.000608328,-0.000878775,0.000271275,0.080043919,-0.071260080,9.801325798
1784243938.955534,-0.006886769,-0.008179788,0.803228617,-0.000073508,-0.001013589,-0.000307138,0.080558494,-0.068314150,9.764134407
1784243938.957537,-0.006886411,-0.008180009,0.803228617,0.000012522,-0.000678870,-0.000347488,0.084570877,-0.068976015,9.786997795
1784243938.959530,-0.006886411,-0.008180009,0.803228617,-0.000497061,0.000042218,-0.000880583,0.086470120,-0.061285105,9.773151398
1784243938.961532,-0.006886053,-0.008180255,0.803228617,-0.000603269,-0.000028644,-0.001380149,0.071123607,-0.067478739,9.789685249
1784243938.963534,-0.006886053,-0.008180255,0.803228617,-0.000345650,-0.000683164,-0.000880418,0.067417659,-0.040082283,9.787167549
1784243938.965537,-0.006886053,-0.008180255,0.803228617,-0.000116316,-0.000656337,-0.000531548,0.088798046,-0.052542228,9.799661636
1784243938.967540,-0.006884818,-0.008181036,0.803228617,0.000274983,-0.000060581,-0.000707077,0.064727277,-0.075191639,9.814736366
1784243938.969539,-0.006884818,-0.008181036,0.803228617,0.000430388,0.000104388,-0.000764446,0.078659542,-0.074381731,9.801753044
1784243938.971538,-0.006885744,-0.008182075,0.803228617,0.000306444,0.000046688,-0.000735399,0.087708220,-0.067018099,9.821086884
1784243938.973539,-0.006885744,-0.008182075,0.803228617,0.000447932,-0.000216160,-0.000336012,0.099085629,-0.056578923,9.781711578
1784243938.975545,-0.006885744,-0.008182075,0.803228617,0.000517421,-0.000103175,0.000263460,0.099608496,-0.085889138,9.807079315
1784243938.977546,-0.006887001,-0.008183184,0.803228617,-0.000060945,0.000363122,0.000827672,0.077427156,-0.063740604,9.819751740
1784243938.979543,-0.006887001,-0.008183184,0.803228617,-0.000471301,-0.000015500,0.000945881,0.084903218,-0.079221271,9.777965546
1784243938.981544,-0.006887576,-0.008184023,0.803228557,0.000078578,-0.000442808,0.000761723,0.075329617,-0.053643685,9.789777756
1784243938.983551,-0.006887576,-0.008184023,0.803228557,0.000678960,-0.000561361,0.001134407,0.070758656,-0.022737894,9.799386978
1784243938.985548,-0.006887576,-0.008184023,0.803228557,0.000519822,-0.000588513,0.001603856,0.100495890,-0.049200226,9.812695503
1784243938.987550,-0.006878240,-0.008187233,0.803196251,0.000335602,-0.000388838,0.001477143,0.094125211,-0.057926342,9.791112900
1784243938.989550,-0.006878240,-0.008187233,0.803196251,0.000418608,-0.000316647,0.001185731,0.089813799,-0.079888284,9.799934387
1784243938.991558,-0.006878848,-0.008187487,0.803196192,0.000603250,-0.000516499,0.000827817,0.054965906,-0.102059864,9.830245972
1784243938.993560,-0.006878848,-0.008187487,0.803196192,0.001028655,-0.000538568,0.000459920,0.042386923,-0.104856543,9.805109024
1784243938.995556,-0.006878848,-0.008187487,0.803196192,0.001031879,-0.000462117,0.000318302,0.088574044,-0.070521086,9.808063507
1784243938.997566,-0.006878949,-0.008187642,0.803196192,0.000578825,-0.000795281,-0.000148792,0.099230297,-0.042063296,9.819464684
1784243938.999562,-0.006878949,-0.008187642,0.803196192,0.000577089,-0.000806653,-0.000631669,0.052874353,-0.091105171,9.805656433
1784243939.001565,-0.006880814,-0.008185939,0.803196251,0.000851626,-0.000333592,-0.000709542,0.106023006,-0.076006375,9.791904449
1784243939.003568,-0.006880814,-0.008185939,0.803196251,0.000888910,-0.000057221,-0.001091844,0.082812086,-0.065426566,9.795087814
1784243939.005563,-0.006880814,-0.008185939,0.803196251,0.000948852,-0.000214898,-0.001588916,0.085241914,-0.050205555,9.792498589
1784243939.007575,-0.006879876,-0.008187008,0.803196192,0.001188725,-0.000461195,-0.001409895,0.068662658,-0.049408145,9.773209572
1784243939.009569,-0.006879876,-0.008187008,0.803196192,0.001096482,-0.000206977,-0.001078917,0.079106465,-0.074806832,9.797717094
1784243939.011567,-0.006880645,-0.008186404,0.803196251,0.000486904,-0.000050936,-0.001001294,0.066068277,-0.039280400,9.802862167
1784243939.013576,-0.006880645,-0.008186404,0.803196251,-0.000214157,-0.000241916,-0.000712179,0.085037597,-0.067218535,9.791045189
1784243939.015574,-0.006880645,-0.008186404,0.803196251,-0.000328581,-0.000406525,0.000022429,0.081886545,-0.066447705,9.814359665
1784243939.017577,-0.006881071,-0.008186103,0.803196251,0.000074320,-0.000729010,0.000448916,0.075014524,-0.042451624,9.791642189
1784243939.019579,-0.006881071,-0.008186103,0.803196251,0.000116803,-0.000990921,-0.000269895,0.064130701,-0.052136991,9.787087440
1784243939.021579,-0.006879725,-0.008185339,0.803196251,-0.000172433,-0.000709845,-0.000863628,0.104092315,-0.048382096,9.817186356
1784243939.023579,-0.006879725,-0.008185339,0.803196251,-0.000631986,0.000051036,-0.000553330,0.100683585,-0.071124278,9.808071136
1784243939.025586,-0.006879725,-0.008185339,0.803196251,-0.001203115,0.000446994,-0.000509056,0.048844796,-0.051773358,9.826527596
1784243939.027583,-0.006877596,-0.008184195,0.803196311,-0.001084440,-0.000077407,-0.000949829,0.056328814,-0.065570287,9.799993515
1784243939.029591,-0.006877596,-0.008184195,0.803196311,-0.000437593,-0.000448135,-0.001161664,0.106495142,-0.073800936,9.795954704
1784243939.031590,-0.006878451,-0.008185678,0.803196251,0.000038241,-0.000268941,-0.001205162,0.063991919,-0.061337862,9.821100235
1784243939.033588,-0.006878451,-0.008185678,0.803196251,-0.000137622,0.000029337,-0.001254797,0.098763049,-0.082630627,9.791407585
1784243939.035587,-0.006878451,-0.008185678,0.803196251,-0.000971569,0.000287361,-0.000822504,0.074814104,-0.057812668,9.809926033
1784243939.037596,-0.006877026,-0.008185170,0.803196311,-0.001255395,0.000362404,-0.000273023,0.079431958,-0.085106149,9.796303749
1784243939.039600,-0.006877026,-0.008185170,0.803196311,-0.000472237,-0.000042475,-0.000054239,0.055800010,-0.072681054,9.792775154
1784243939.041596,-0.006877595,-0.008184297,0.803196311,0.000712401,-0.000503050,-0.000382202,0.100481860,-0.052958421,9.774114609
1784243939.043594,-0.006877595,-0.008184297,0.803196311,0.001006371,-0.000090598,-0.001249670,0.074029997,-0.050017308,9.786212921
1784243939.045601,-0.006877595,-0.008184297,0.803196311,0.000173979,0.000523931,-0.001358022,0.088958412,-0.075492568,9.813411713
1784243939.047600,-0.006876996,-0.008183584,0.803196311,-0.000418297,0.000698812,-0.001005209,0.100009158,-0.087489955,9.842488289
1784243939.049603,-0.006876996,-0.008183584,0.803196311,-0.000508249,0.000642427,-0.000730618,0.070087425,-0.041914981,9.788055420
1784243939.051604,-0.006875563,-0.008183413,0.803196311,-0.000612452,0.000490341,0.000028345,0.100707233,-0.069316536,9.805841446
1784243939.053607,-0.006875563,-0.008183413,0.803196311,-0.000343945,0.000448163,0.000528015,0.088433474,-0.045388181,9.802396774
1784243939.055616,-0.006875563,-0.008183413,0.803196311,0.000432261,0.000433935,0.000116806,0.105877914,-0.049288295,9.815389633
1784243939.057611,-0.006874504,-0.008184990,0.803196311,0.000797096,0.000123730,-0.000834609,0.090974577,-0.059989169,9.771818161
1784243939.059613,-0.006874504,-0.008184990,0.803196311,0.000261470,-0.000651252,-0.001586193,0.050171897,-0.056803670,9.775385857
1784243939.061611,-0.006874198,-0.008183748,0.803196311,-0.000400828,-0.001215209,-0.001755055,0.067091048,-0.066165775,9.801346779
1784243939.063613,-0.006874198,-0.008183748,0.803196311,-0.000384358,-0.000536241,-0.001419909,0.080231383,-0.055190712,9.809498787
1784243939.065690,-0.006874198,-0.008183748,0.803196311,-0.000439372,0.000515197,-0.000865883,0.075874172,-0.081972130,9.803047180
1784243939.067618,-0.006874432,-0.008183734,0.803196311,-0.001151894,0.000964423,-0.000465113,0.081992880,-0.059934605,9.780328751
1784243939.069622,-0.006874432,-0.008183734,0.803196311,-0.001655823,0.000968969,-0.000409604,0.098023646,-0.068808630,9.802255630
1784243939.071626,-0.006874852,-0.008185240,0.803196311,-0.001337669,0.000732895,-0.000694344,0.088663220,-0.063738070,9.799140930
1784243939.073625,-0.006874852,-0.008185240,0.803196311,-0.001193433,0.000779179,-0.001117319,0.083126776,-0.076621793,9.793672562
1784243939.075622,-0.006874852,-0.008185240,0.803196311,-0.001631410,0.000729531,-0.001553142,0.066641822,-0.067379914,9.783852577
1784243939.077626,-0.006875057,-0.008184034,0.803196311,-0.001522135,0.000201992,-0.001746328,0.081953458,-0.063893117,9.769991875
1784243939.079626,-0.006875057,-0.008184034,0.803196311,-0.000811986,-0.000317322,-0.001525777,0.100110479,-0.081421636,9.808003426
1784243939.081630,-0.006875706,-0.008184847,0.803196311,-0.000040003,-0.000501941,-0.001110898,0.061964523,-0.080577202,9.820975304
1784243939.083627,-0.006875706,-0.008184847,0.803196311,0.000002691,-0.000181515,-0.000698644,0.076749481,-0.082968570,9.815594673
1784243939.085631,-0.006875706,-0.008184847,0.803196311,-0.000474118,-0.000086937,-0.000345746,0.062992774,-0.070234716,9.813870430
1784243939.087667,-0.006875635,-0.008184162,0.803196311,-0.000314664,0.000100500,0.000237735,0.114204615,-0.067176074,9.795556068
1784243939.089648,-0.006875635,-0.008184162,0.803196311,-0.000484005,0.000634779,0.000881178,0.080590390,-0.063199349,9.800930023
1784243939.091640,-0.006875019,-0.008183118,0.803196311,-0.001116620,0.000671716,0.000986112,0.071554825,-0.068027839,9.803131104
1784243939.093639,-0.006875019,-0.008183118,0.803196311,-0.000857632,0.000262314,0.000501662,0.095215261,-0.078607030,9.799052238
1784243939.095652,-0.006875019,-0.008183118,0.803196311,-0.000488408,-0.000020985,0.000329633,0.077839538,-0.068896137,9.787889481
1784243939.097646,-0.006875164,-0.008181795,0.803196311,-0.000470466,0.000060672,0.000638762,0.098814607,-0.079386786,9.776185036
1784243939.099647,-0.006875164,-0.008181795,0.803196311,-0.000224122,0.000095660,0.001514058,0.083794937,-0.057063524,9.814421654
1784243939.101677,-0.006874924,-0.008181429,0.803196311,0.000154493,0.000067217,0.001790682,0.080288857,-0.087868996,9.805253983
1784243939.103662,-0.006874924,-0.008181429,0.803196311,0.000577289,0.000050889,0.001017659,0.078037471,-0.052744094,9.784405708
1784243939.105655,-0.006874924,-0.008181429,0.803196311,0.000722988,0.000164303,0.000852101,0.106902368,-0.039381057,9.806487083
1784243939.107691,-0.006872863,-0.008182811,0.803196311,0.000305780,0.000430012,0.001146874,0.122347087,-0.060680967,9.812642097
1784243939.109663,-0.006872863,-0.008182811,0.803196311,-0.000561772,0.000271554,0.001051875,0.074212924,-0.069952741,9.817020416
1784243939.111658,-0.006873446,-0.008182485,0.803196311,-0.000978858,-0.000061414,0.000855436,0.079159915,-0.069926947,9.804471016
1784243939.113659,-0.006873446,-0.008182485,0.803196311,-0.001119077,-0.000233414,0.000658830,0.084575303,-0.068941034,9.782067299
1784243939.115658,-0.006873446,-0.008182485,0.803196311,-0.001347217,-0.000320914,0.000443408,0.083705984,-0.067086831,9.774904251
1784243939.117668,-0.006872911,-0.008183405,0.803196311,-0.001053417,0.000365906,0.000363595,0.080842346,-0.082184434,9.760906219
1784243939.119659,-0.006872911,-0.008183405,0.803196311,0.000086168,0.001180254,0.000308672,0.075823195,-0.050053027,9.788006783
1784243939.121670,-0.006871656,-0.008183254,0.803196311,0.000944141,0.001016788,0.000336697,0.079879753,-0.048744988,9.785778046
1784243939.123668,-0.006871656,-0.008183254,0.803196311,0.000390889,0.000692427,0.000679029,0.086913243,-0.059308600,9.809478760
1784243939.125669,-0.006871656,-0.008183254,0.803196311,-0.000335044,0.000763609,0.001254547,0.089199632,-0.055756833,9.809951782
1784243939.127669,-0.006871687,-0.008184384,0.803196311,-0.000609943,0.000779827,0.001168560,0.032439027,-0.036638025,9.806881905
1784243939.129672,-0.006871687,-0.008184384,0.803196311,-0.000506103,0.000430038,0.000833611,0.031334415,-0.052851692,9.820675850
1784243939.131680,-0.006871394,-0.008183730,0.803196311,0.000199630,0.000091560,0.001384419,0.090628758,-0.085008591,9.825456619
1784243939.133676,-0.006871394,-0.008183730,0.803196311,0.000952438,0.000289290,0.002293982,0.106072441,-0.071158290,9.803145409
1784243939.135718,-0.006871394,-0.008183730,0.803196311,0.001125500,0.000675909,0.002217220,0.086443037,-0.059877999,9.827407837
1784243939.137690,-0.006870858,-0.008184122,0.803196311,0.001231269,0.000549550,0.001220300,0.098443523,-0.071473531,9.798203468
1784243939.139685,-0.006870858,-0.008184122,0.803196311,0.001682941,-0.000101971,0.000076341,0.082889825,-0.059139207,9.792888641
1784243939.141681,-0.006870950,-0.008183965,0.803196311,0.002015553,-0.000199980,-0.000538295,0.087168947,-0.077048376,9.783362389
1784243939.143682,-0.006870950,-0.008183965,0.803196311,0.001738667,0.000272314,-0.000676967,0.078962736,-0.050509438,9.783525467
1784243939.145686,-0.006870950,-0.008183965,0.803196311,0.001025993,0.000207240,-0.000672768,0.065498844,-0.050359219,9.786651611
1784243939.147688,-0.006869969,-0.008182997,0.803196311,0.000845429,-0.000276351,-0.000581342,0.081825487,-0.075034916,9.761849403
1784243939.149684,-0.006869969,-0.008182997,0.803196311,0.001003483,-0.000508427,-0.000080366,0.070738785,-0.061700366,9.796895027
1784243939.151684,-0.006870568,-0.008181866,0.803196311,0.000503339,-0.000654850,0.000608671,0.081668906,-0.123992436,9.779021263
1784243939.153687,-0.006870568,-0.008181866,0.803196311,-0.000763653,-0.000765909,0.000477355,0.093268074,-0.092349999,9.781924248
1784243939.155701,-0.006870568,-0.008181866,0.803196311,-0.001846191,-0.000662004,-0.000122981,0.089760818,-0.047985081,9.787137985
1784243939.157698,-0.006870595,-0.008182896,0.803196311,-0.001821177,-0.000507412,-0.000179500,0.087647922,-0.037198912,9.786308289
1784243939.159695,-0.006870595,-0.008182896,0.803196311,-0.001258972,-0.000221552,-0.000074429,0.059707832,-0.047520395,9.775903702
1784243939.161696,-0.006869721,-0.008181463,0.803196311,-0.000559491,-0.000014772,-0.000268211,0.048500061,-0.046083655,9.783075333
1784243939.163703,-0.006869721,-0.008181463,0.803196311,0.000146195,-0.000100791,-0.000320127,0.080787636,-0.045836974,9.816284180
1784243939.165702,-0.006869721,-0.008181463,0.803196311,0.000350959,-0.000287665,-0.000106405,0.087356135,-0.059765492,9.809926033
1784243939.167700,-0.006869231,-0.008182703,0.803196311,0.000163726,0.000193017,-0.000146379,0.081087805,-0.097573489,9.782327652
1784243939.169697,-0.006869231,-0.008182703,0.803196311,0.000071352,0.001210344,-0.000442490,0.088449232,-0.080827378,9.808445930
1784243939.171700,-0.006870209,-0.008183202,0.803196311,0.000506119,0.001620397,-0.000388473,0.066001914,-0.081851989,9.803934097
1784243939.173702,-0.006870209,-0.008183202,0.803196311,0.000851050,0.001215957,-0.000208580,0.084822163,-0.046323959,9.814492226
1784243939.175706,-0.006870209,-0.008183202,0.803196311,0.000484171,0.000429107,-0.000911638,0.087796375,-0.059838012,9.819339752
1784243939.177709,-0.006869769,-0.008182476,0.803196311,0.000544825,-0.000018768,-0.001891937,0.088119701,-0.070559844,9.814338684
1784243939.179706,-0.006869769,-0.008182476,0.803196311,0.001241419,0.000071936,-0.001302983,0.084135696,-0.066431940,9.808086395
1784243939.181708,-0.006870008,-0.008182643,0.803196311,0.000919394,0.000467511,-0.000313813,0.104866445,-0.060713932,9.785725594
1784243939.183708,-0.006870008,-0.008182643,0.803196311,-0.000250012,0.001076841,-0.000423292,0.052512251,-0.084742114,9.793589592
1784243939.185712,-0.006870008,-0.008182643,0.803196311,-0.000818208,0.000960915,-0.000704285,0.080160201,-0.063047335,9.780305862
1784243939.187717,-0.006869494,-0.008182362,0.803196311,-0.000391391,-0.000013123,-0.001147279,0.099799059,-0.073847868,9.751563072
1784243939.189713,-0.006869494,-0.008182362,0.803196311,0.000208485,-0.000779149,-0.001578162,0.088160440,-0.068211935,9.799112320
1784243939.191723,-0.006869558,-0.008182887,0.803196311,0.000903773,-0.000749212,-0.001364867,0.085889250,-0.070022739,9.805822372
1784243939.193720,-0.006869558,-0.008182887,0.803196311,0.002101538,-0.000198976,-0.000537524,0.078414194,-0.057775993,9.798272133
1784243939.195722,-0.006869558,-0.008182887,0.803196311,0.002233124,0.000368085,0.000678696,0.055939276,-0.058613386,9.830526352
1784243939.197738,-0.006869120,-0.008181903,0.803196311,0.001227425,0.000813827,0.001111837,0.070671178,-0.065881461,9.817939758
1784243939.199729,-0.006869120,-0.008181903,0.803196311,0.000439684,0.000891910,0.000649686,0.061032254,-0.045682572,9.830164909
1784243939.201758,-0.006868376,-0.008181423,0.803196311,-0.000644057,0.000542412,-0.000033045,0.086918980,-0.060884230,9.778983116
1784243939.203760,-0.006868376,-0.008181423,0.803196311,-0.001302838,0.000717050,-0.000311187,0.093747467,-0.052497365,9.784422874
1784243939.205737,-0.006868376,-0.008181423,0.803196311,-0.000748573,0.001280001,-0.000004288,0.087274939,-0.068511672,9.779830933
1784243939.207745,-0.006868309,-0.008181232,0.803196311,-0.000064519,0.000946571,0.000630778,0.063675255,-0.053805437,9.770487785
1784243939.209736,-0.006868309,-0.008181232,0.803196311,-0.000183769,0.000370447,0.000747596,0.068267763,-0.043709267,9.791627884
1784243939.211735,-0.006867435,-0.008180629,0.803196311,-0.000956935,-0.000197536,-0.000198174,0.097819328,-0.051068500,9.765156746
1784243939.213735,-0.006867435,-0.008180629,0.803196311,-0.001194554,-0.000631820,-0.001049221,0.071521781,-0.108715370,9.791213989
1784243939.215736,-0.006867435,-0.008180629,0.803196311,-0.000888824,-0.000073386,-0.001338632,0.090497114,-0.060615804,9.797816277
1784243939.217746,-0.006867675,-0.008180708,0.803196311,-0.000825027,0.000712350,-0.001421243,0.092291154,-0.061455235,9.786605835
1784243939.219747,-0.006867675,-0.008180708,0.803196311,-0.000838251,0.000886423,-0.000996340,0.074424557,-0.053692590,9.798295021
1784243939.221745,-0.006867277,-0.008179897,0.803196311,-0.000739561,0.001029179,-0.000542127,0.076618865,-0.058972869,9.780776978
1784243939.223744,-0.006867277,-0.008179897,0.803196311,-0.000955049,0.001263597,-0.000427590,0.075199232,-0.061967712,9.826487541
1784243939.225753,-0.006867277,-0.008179897,0.803196311,-0.001061716,0.001196294,0.000232261,0.083293006,-0.062341101,9.801386833
1784243939.227752,-0.006866737,-0.008180250,0.803196311,-0.000614837,0.001089824,0.000352433,0.077089027,-0.092346519,9.810602188
1784243939.229752,-0.006866737,-0.008180250,0.803196311,0.000053526,0.000831783,-0.000083987,0.055136696,-0.051774364,9.815323830
1784243939.231754,-0.006866128,-0.008179178,0.803196311,0.000393314,0.000604079,0.000464118,0.073314190,-0.071167476,9.800422668
1784243939.233763,-0.006866128,-0.008179178,0.803196311,0.000261155,0.000564745,0.001441166,0.076315060,-0.079608060,9.847894669
1784243939.235757,-0.006866128,-0.008179178,0.803196311,-0.000125321,0.000379331,0.001808617,0.089370914,-0.079431392,9.799489021
1784243939.237759,-0.006866314,-0.008179507,0.803196311,-0.000476144,0.000357759,0.001300595,0.099835381,-0.068698093,9.783427238
1784243939.239757,-0.006866314,-0.008179507,0.803196311,-0.000514286,0.000340918,0.000732276,0.091993570,-0.046882983,9.817184448
1784243939.241768,-0.006865694,-0.008179724,0.803196311,-0.000617271,0.000094585,0.000461252,0.057127472,-0.074061260,9.795456886
1784243939.243762,-0.006865694,-0.008179724,0.803196311,-0.000514402,-0.000374218,0.000172226,0.040607255,-0.067529395,9.788759232
1784243939.245781,-0.006865694,-0.008179724,0.803196311,-0.000381046,-0.000303159,0.000090428,0.054646723,-0.058173239,9.770897865
1784243939.247778,-0.006865737,-0.008179006,0.803196311,-0.000800099,0.000579922,0.000395686,0.077011310,-0.026290787,9.783678055
1784243939.249779,-0.006865737,-0.008179006,0.803196311,-0.001199368,0.000935047,0.000814878,0.085131600,-0.060397372,9.776741982
1784243939.251777,-0.006865711,-0.008178649,0.803196311,-0.000863649,0.000576129,0.000937292,0.091936246,-0.057061717,9.736420631
1784243939.253770,-0.006865711,-0.008178649,0.803196311,-0.000384678,0.000258026,0.001044578,0.106744498,-0.090374887,9.794952393
1784243939.255775,-0.006865711,-0.008178649,0.803196311,-0.000668401,0.000103450,0.001392936,0.068235643,-0.083173744,9.796754837
1784243939.257779,-0.006866689,-0.008178207,0.803196311,-0.001023061,-0.000296103,0.001735137,0.045293085,-0.086991683,9.807915688
1784243939.259787,-0.006866689,-0.008178207,0.803196311,-0.000682511,-0.000517760,0.001353951,0.069031052,-0.053290110,9.814431190
1784243939.261828,-0.006865642,-0.008177958,0.803196311,-0.000212423,-0.000231205,0.001006903,0.077679351,-0.042702332,9.822130203
1784243939.263823,-0.006865642,-0.008177958,0.803196311,0.000168310,0.000262576,0.001170923,0.071230017,-0.056102015,9.827865601
1784243939.265791,-0.006865642,-0.008177958,0.803196311,0.000714171,0.000472523,0.001759349,0.107898906,-0.068499871,9.804059982
1784243939.267789,-0.006866212,-0.008179069,0.803196311,0.000943476,0.000262870,0.002907796,0.090618640,-0.049524881,9.813131332
1784243939.269793,-0.006866212,-0.008179069,0.803196311,0.000750300,0.000240019,0.003744578,0.069214359,-0.076059207,9.802629471
1784243939.271789,-0.006866614,-0.008178536,0.803196311,0.000705259,0.000515863,0.003453357,0.104466893,-0.054646585,9.815354347
1784243939.273792,-0.006866614,-0.008178536,0.803196311,0.000927641,0.000789377,0.002700461,0.051064540,-0.054826554,9.810818672
1784243939.275798,-0.006866614,-0.008178536,0.803196311,0.000654201,0.000866889,0.002222821,0.043198489,-0.075655788,9.792743683
1784243939.277795,-0.006866332,-0.008176695,0.803196311,-0.000032984,0.000841499,0.001404287,0.051326681,-0.072515450,9.777528763
1784243939.279794,-0.006866332,-0.008176695,0.803196311,-0.000624205,0.000823427,0.000898111,0.082571857,-0.047159337,9.810000420
1784243939.281797,-0.006865684,-0.008177199,0.803196311,-0.000571269,0.000478515,0.000943478,0.090566032,-0.055208471,9.793368340
1784243939.283797,-0.006865684,-0.008177199,0.803196311,0.000262418,0.000165233,0.000887187,0.081900410,-0.065932974,9.804948807
1784243939.285797,-0.006865684,-0.008177199,0.803196311,0.000676553,0.000443624,0.000758436,0.092823364,-0.053912412,9.796069145
1784243939.287802,-0.006864693,-0.008177994,0.803196311,0.000577620,0.000380871,0.000644474,0.081405796,-0.069126554,9.813894272
1784243939.289803,-0.006864693,-0.008177994,0.803196311,0.000172845,-0.000379897,0.000340320,0.058828775,-0.082522392,9.785093307
1784243939.291800,-0.006864904,-0.008176756,0.803196311,-0.000371762,-0.000607761,0.000174324,0.057894260,-0.084830180,9.796285629
1784243939.293808,-0.006864904,-0.008176756,0.803196311,-0.000475380,-0.000347040,0.000399225,0.070190705,-0.069773808,9.799083710
1784243939.295815,-0.006864904,-0.008176756,0.803196311,-0.000283573,-0.000519973,0.000561466,0.072227299,-0.087241247,9.794490814
1784243939.297811,-0.006866103,-0.008175666,0.803196311,0.000108292,-0.000773669,0.000516880,0.066796899,-0.089561507,9.815543175
1784243939.299807,-0.006866103,-0.008175666,0.803196311,0.000504750,-0.000743248,0.000413567,0.086270288,-0.076236337,9.796815872
1784243939.301811,-0.006865615,-0.008175611,0.803196311,0.000557542,-0.000931101,-0.000222846,0.089352220,-0.045231164,9.778636932
1784243939.303810,-0.006865615,-0.008175611,0.803196311,0.000614946,-0.000995936,-0.000722138,0.095039025,-0.056187328,9.796953201
1784243939.305812,-0.006865615,-0.008175611,0.803196311,0.000838226,-0.000850896,-0.000470747,0.073940009,-0.056806676,9.796032906
1784243939.307815,-0.006865428,-0.008176276,0.803196311,0.000890500,-0.000888925,-0.000144172,0.038070813,-0.053296860,9.808126450
1784243939.309814,-0.006865428,-0.008176276,0.803196311,0.000461639,-0.000658609,-0.000068037,0.082952358,-0.054592829,9.783501625
