time_sec,roll_rad,pitch_rad,yaw_rad,gyro_x,gyro_y,gyro_z,acc_x,acc_y,acc_z
1784243449.843801,-0.006415132,-0.006312623,0.904715598,0.001412676,0.000010849,0.001386573,0.058283705,-0.052576981,9.796493530
1784243449.845809,-0.006415132,-0.006312623,0.904715598,0.000968539,-0.000400317,0.000850840,0.073188640,-0.044700228,9.796109200
1784243449.847761,-0.006413717,-0.006313239,0.904715598,0.000343406,-0.000226845,0.000173892,0.052584872,-0.042526279,9.779516220
1784243449.849776,-0.006413717,-0.006313239,0.904715598,0.000087372,0.000021158,0.000042772,0.078195028,-0.038126726,9.807813644
1784243449.851843,-0.006413717,-0.006313239,0.904715598,0.000095999,-0.000054814,0.000361325,0.067826711,-0.043643110,9.783109665
1784243449.853783,-0.006413227,-0.006314395,0.904715598,-0.000094813,0.000036514,0.000503632,0.043961197,-0.048056480,9.816683769
1784243449.855798,-0.006413227,-0.006314395,0.904715598,0.000133165,0.000515394,0.000231094,0.041795123,-0.080953673,9.784190178
1784243449.857857,-0.006414052,-0.006312618,0.904715598,0.000410301,0.000992149,-0.000472009,0.059116255,-0.058774088,9.784348488
1784243449.859899,-0.006414052,-0.006312618,0.904715598,-0.000094918,0.001184429,-0.000877888,0.067915551,-0.072426483,9.798169136
1784243449.861825,-0.006414052,-0.006312618,0.904715598,-0.000533007,0.001488579,-0.001389386,0.077446632,-0.103608169,9.755387306
1784243449.863790,-0.006417255,-0.006312935,0.904715598,-0.000384538,0.001506341,-0.001636037,0.093105599,-0.067795426,9.794634819
1784243449.865775,-0.006417255,-0.006312935,0.904715598,-0.000053286,0.000523820,-0.001315460,0.080884181,-0.075369999,9.810715675
1784243449.867834,-0.006417640,-0.006313423,0.904715598,0.000295553,-0.000370542,-0.001497939,0.071446016,-0.076586783,9.809802055
1784243449.869910,-0.006417640,-0.006313423,0.904715598,0.000523074,-0.000209833,-0.001951323,0.043888226,-0.091085583,9.819096565
1784243449.871798,-0.006417640,-0.006313423,0.904715598,0.000418646,0.000070267,-0.001974249,0.035421003,-0.051711801,9.778990746
1784243449.873803,-0.006417894,-0.006310985,0.904715598,0.000281570,-0.000127315,-0.000964331,0.074397512,-0.055932399,9.798279762
1784243449.875764,-0.006417894,-0.006310985,0.904715598,0.000776790,-0.000334101,0.000169119,0.059831258,-0.072383404,9.806678772
1784243449.877741,-0.006418430,-0.006311134,0.904715598,0.001717632,-0.000504569,0.000273564,0.066376962,-0.088923372,9.789541245
1784243449.879779,-0.006418430,-0.006311134,0.904715598,0.001861339,-0.000586139,0.000222665,0.075156927,-0.067975253,9.789236069
1784243449.881754,-0.006418430,-0.006311134,0.904715598,0.001439693,-0.000855103,0.000057219,0.061888572,-0.051692076,9.791570663
1784243449.883748,-0.006418343,-0.006312556,0.904715598,0.001170335,-0.000977238,-0.000423871,0.056040268,-0.012931502,9.833061218
1784243449.885740,-0.006418343,-0.006312556,0.904715598,0.001068555,-0.000619354,-0.000428717,0.059983231,-0.023867488,9.788608551
1784243449.887754,-0.006415828,-0.006312649,0.904715598,0.001007137,-0.000739969,0.000089152,0.061714225,-0.065226302,9.804933548
1784243449.889740,-0.006415828,-0.006312649,0.904715598,0.000800139,-0.000877428,0.000032636,0.027220314,-0.058261335,9.832741737
1784243449.891739,-0.006415828,-0.006312649,0.904715598,0.000185828,-0.000570829,-0.000945700,0.067953870,-0.070097640,9.785629272
1784243449.893738,-0.006415921,-0.006312795,0.904715598,-0.000585885,-0.000253320,-0.001766708,0.061389230,-0.056543954,9.781676292
1784243449.895738,-0.006415921,-0.006312795,0.904715598,-0.000517528,-0.000052017,-0.001515535,0.079708055,-0.062663577,9.790172577
1784243449.897745,-0.006415926,-0.006312984,0.904715598,-0.000091665,-0.000093624,-0.000647040,0.048318341,-0.060891815,9.786566734
1784243449.899759,-0.006415926,-0.006312984,0.904715598,-0.000307635,-0.000298141,-0.000034209,0.052556619,-0.079528742,9.816490173
1784243449.901745,-0.006415926,-0.006312984,0.904715598,-0.000354279,-0.000337672,-0.000020226,0.062369253,-0.085793138,9.797629356
1784243449.903765,-0.006417452,-0.006312895,0.904715598,0.000065611,-0.000314045,-0.000550580,0.047704954,-0.074343979,9.789170265
1784243449.905748,-0.006417452,-0.006312895,0.904715598,-0.000207974,-0.000345468,-0.000793715,0.058349755,-0.083971821,9.800776482
1784243449.907753,-0.006417774,-0.006312347,0.904715598,-0.000838325,-0.000006384,-0.000536261,0.077694811,-0.079764843,9.804406166
1784243449.909750,-0.006417774,-0.006312347,0.904715598,-0.000988147,0.000487517,-0.000058012,0.090179361,-0.086629339,9.802133560
1784243449.911766,-0.006417774,-0.006312347,0.904715598,-0.001173704,0.000575167,0.000776148,0.059086684,-0.059412822,9.811245918
1784243449.913764,-0.006418212,-0.006312401,0.904715598,-0.001294806,0.000191100,0.001020315,0.070485152,-0.044754762,9.808658600
1784243449.915765,-0.006418212,-0.006312401,0.904715598,-0.001089704,0.000111010,0.000405488,0.075114697,-0.034366064,9.788555145
1784243449.917763,-0.006416277,-0.006313569,0.904715598,-0.001101944,0.000284635,0.000572390,0.049913265,-0.040302847,9.786699295
1784243449.919759,-0.006416277,-0.006313569,0.904715598,-0.000915977,0.000188820,0.001379016,0.052015908,-0.051575135,9.792906761
1784243449.921761,-0.006416277,-0.006313569,0.904715598,-0.000348177,-0.000117196,0.001568865,0.050802212,-0.040381111,9.796114922
1784243449.923767,-0.006414797,-0.006313253,0.904715598,0.000081572,-0.000642854,0.001145902,0.054544646,-0.065058008,9.794168472
1784243449.925766,-0.006414797,-0.006313253,0.904715598,0.000070834,-0.000825636,0.001055000,0.046168324,-0.055261776,9.754769325
1784243449.927770,-0.006414793,-0.006312686,0.904715598,-0.000386999,-0.000791392,0.000898737,0.050404195,-0.073917791,9.787382126
1784243449.929769,-0.006414793,-0.006312686,0.904715598,-0.000590977,-0.000655199,0.000027551,0.048276104,-0.064872585,9.779368401
1784243449.931772,-0.006414793,-0.006312686,0.904715598,-0.000647207,-0.000359431,-0.000533650,0.065135814,-0.079972349,9.793185234
1784243449.933797,-0.006415834,-0.006312637,0.904715598,-0.000708937,-0.000290614,-0.000473982,0.062154692,-0.065702274,9.808069229
1784243449.935786,-0.006415834,-0.006312637,0.904715598,-0.000354735,-0.000031120,-0.000049626,0.068194225,-0.049558200,9.795177460
1784243449.937825,-0.006415364,-0.006312754,0.904715598,0.000394190,0.000457173,0.000496634,0.047419790,-0.058863081,9.817962646
1784243449.939783,-0.006415364,-0.006312754,0.904715598,0.000898503,0.000345245,0.000909959,0.077586360,-0.052757431,9.787095070
1784243449.941788,-0.006415364,-0.006312754,0.904715598,0.000644630,-0.000358903,0.001098296,0.063907087,-0.070112668,9.795041084
1784243449.943857,-0.006415970,-0.006313131,0.904715598,0.000119083,-0.000650766,0.001001514,0.041532576,-0.063267946,9.817927361
1784243449.945861,-0.006415970,-0.006313131,0.904715598,-0.000223780,-0.000521499,0.000878822,0.030323530,-0.063867524,9.796394348
1784243449.947816,-0.006416600,-0.006311713,0.904715598,-0.000026683,-0.000830233,0.001130893,0.051369615,-0.066908173,9.808052063
1784243449.949816,-0.006416600,-0.006311713,0.904715598,0.000172830,-0.000981424,0.000935935,0.049123388,-0.068521827,9.786967278
1784243449.951814,-0.006416600,-0.006311713,0.904715598,-0.000091606,-0.000669180,0.000145747,0.055048019,-0.060174335,9.799580574
1784243449.953806,-0.006416983,-0.006311676,0.904715598,0.000002640,-0.000555901,0.000075374,0.054672044,-0.054326016,9.796926498
1784243449.955796,-0.006416983,-0.006311676,0.904715598,0.000434008,-0.000299401,0.000368637,0.066997372,-0.075010531,9.785150528
1784243449.957798,-0.006416986,-0.006311703,0.904715598,0.000860306,0.000157897,0.000313185,0.078575261,-0.044346698,9.799703598
1784243449.959801,-0.006416986,-0.006311703,0.904715598,0.001039800,0.000060909,0.000197976,0.077678129,-0.045548718,9.781313896
1784243449.961803,-0.006416986,-0.006311703,0.904715598,0.000753048,-0.000254576,-0.000321223,0.052423704,-0.054335419,9.802304268
1784243449.963804,-0.006416780,-0.006309813,0.904715598,0.000473240,-0.000287529,-0.000391589,0.074515872,-0.045676999,9.805070877
1784243449.965806,-0.006416780,-0.006309813,0.904715598,0.000612192,-0.000229551,0.000262172,0.068451762,-0.067688696,9.760988235
1784243449.967803,-0.006416890,-0.006310397,0.904715598,0.000894215,-0.000364276,-0.000074600,0.033384763,-0.068184249,9.830891609
1784243449.969810,-0.006416890,-0.006310397,0.904715598,0.000485385,-0.000577254,-0.001061675,0.051835403,-0.066373758,9.795054436
1784243449.971802,-0.006416890,-0.006310397,0.904715598,-0.000372282,-0.000427246,-0.000660726,0.057065383,-0.079414532,9.792284966
1784243449.973808,-0.006418052,-0.006310171,0.904715598,-0.000602507,-0.000365304,0.000787040,0.032830175,-0.078335337,9.810201645
1784243449.975808,-0.006418052,-0.006310171,0.904715598,-0.000486411,-0.000897222,0.001514026,0.064214543,-0.043775175,9.808212280
1784243449.977811,-0.006416827,-0.006310547,0.904715598,-0.000651412,-0.001115496,0.001304050,0.055015106,-0.062055208,9.812121391
1784243449.979817,-0.006416827,-0.006310547,0.904715598,-0.000907756,-0.000516298,0.001028730,0.059025284,-0.065976448,9.789235115
1784243449.981821,-0.006416827,-0.006310547,0.904715598,-0.001036452,0.000349353,0.001191681,0.039669346,-0.070269242,9.797706604
1784243449.983815,-0.006417179,-0.006308926,0.904715598,-0.000949128,0.000926235,0.000949342,0.054921366,-0.070089899,9.808033943
1784243449.985893,-0.006417179,-0.006308926,0.904715598,-0.000745946,0.000806999,0.000445084,0.055660024,-0.047138337,9.792490959
1784243449.987820,-0.006416134,-0.006308076,0.904715657,-0.000602782,0.000287766,0.000147527,0.044093605,-0.036879711,9.819892883
1784243449.989824,-0.006416134,-0.006308076,0.904715657,-0.000317261,-0.000091337,-0.000249474,0.050110746,-0.023343919,9.795775414
1784243449.991822,-0.006416134,-0.006308076,0.904715657,0.000113130,0.000046510,-0.000933165,0.077205561,-0.046947259,9.789822578
1784243449.993829,-0.006414384,-0.006307039,0.904715657,0.000159417,0.000544909,-0.001285020,0.097196564,-0.062973641,9.802291870
1784243449.995827,-0.006414384,-0.006307039,0.904715657,0.000171393,0.000741359,-0.000748026,0.078711152,-0.071947977,9.774419785
1784243449.997829,-0.006414872,-0.006308103,0.904715657,0.000429543,0.000627357,0.000039272,0.038944326,-0.057549499,9.774475098
1784243449.999823,-0.006414872,-0.006308103,0.904715657,0.000363150,0.000368608,0.000358702,0.053118162,-0.070943750,9.805336952
1784243450.001823,-0.006414872,-0.006308103,0.904715657,0.000058404,-0.000228004,0.000083272,0.022270875,-0.098733015,9.799301147
1784243450.003829,-0.006417080,-0.006305561,0.904715657,-0.000380378,-0.000694851,-0.000352574,0.062810414,-0.087479442,9.781927109
1784243450.005828,-0.006417080,-0.006305561,0.904715657,-0.000696018,-0.000692228,-0.000794530,0.064052261,-0.060050849,9.765964508
1784243450.007833,-0.006416828,-0.006305808,0.904715657,-0.000723146,-0.000262405,-0.000806903,0.081077345,-0.060066186,9.800501823
1784243450.009829,-0.006416828,-0.006305808,0.904715657,-0.000453576,0.000135268,-0.000435897,0.071962908,-0.072001636,9.794139862
1784243450.011831,-0.006416828,-0.006305808,0.904715657,0.000538275,0.000293829,-0.000724697,0.053997040,-0.071101502,9.825960159
1784243450.013829,-0.006417336,-0.006306209,0.904715657,0.001984825,0.000438637,-0.001114289,0.074515805,-0.082456887,9.810663223
1784243450.015834,-0.006417336,-0.006306209,0.904715657,0.002345600,0.000238752,-0.000281693,0.082686976,-0.077356167,9.771698952
1784243450.017836,-0.006418093,-0.006307025,0.904715657,0.001486418,0.000102468,0.000774409,0.042870324,-0.102562085,9.796605110
1784243450.019842,-0.006418093,-0.006307025,0.904715657,0.000919997,0.000260954,0.000498294,0.058134492,-0.065507442,9.787892342
1784243450.021836,-0.006418093,-0.006307025,0.904715657,0.000940363,0.000159403,-0.000299084,0.042403679,-0.067539670,9.786967278
1784243450.023841,-0.006418134,-0.006306265,0.904715657,0.001329101,-0.000318353,-0.000267859,0.062127717,-0.031162176,9.802462578
1784243450.025847,-0.006418134,-0.006306265,0.904715657,0.001504638,-0.000558123,-0.000100265,0.060322199,-0.033655249,9.778235435
1784243450.027843,-0.006416394,-0.006306734,0.904715657,0.001727423,-0.000512292,-0.000879386,0.077658795,-0.083291292,9.796314240
1784243450.029845,-0.006416394,-0.006306734,0.904715657,0.001741122,-0.000854953,-0.001503455,0.064247809,-0.041081045,9.807332993
1784243450.031845,-0.006416394,-0.006306734,0.904715657,0.000956927,-0.000760118,-0.000964575,0.055513699,-0.058019772,9.810802460
1784243450.033883,-0.006416570,-0.006306212,0.904715657,0.000514303,-0.000424533,-0.000227333,0.044243034,-0.061942670,9.815698624
1784243450.035851,-0.006416570,-0.006306212,0.904715657,0.000605365,-0.000452960,0.000056151,0.031123519,-0.071132243,9.808452606
1784243450.037899,-0.006417016,-0.006304357,0.904715657,0.000799018,-0.000490606,-0.000134366,0.042101536,-0.054219089,9.804536819
1784243450.039868,-0.006417016,-0.006304357,0.904715657,0.000936627,-0.000876869,-0.000455678,0.072429448,-0.070650786,9.792354584
1784243450.041857,-0.006417016,-0.006304357,0.904715657,0.000677667,-0.000833277,-0.000219164,0.061873712,-0.090209760,9.789530754
1784243450.043857,-0.006419224,-0.006304810,0.904715598,0.000515563,0.000007383,0.000084046,0.076899260,-0.072465144,9.787416458
1784243450.045916,-0.006419224,-0.006304810,0.904715598,0.000506644,0.000620388,0.000016279,0.076647058,-0.058750298,9.749397278
1784243450.047868,-0.006419267,-0.006305119,0.904715598,0.000094623,0.000403919,0.000197247,0.043514617,-0.049654979,9.790221214
1784243450.049862,-0.006419267,-0.006305119,0.904715598,-0.000424607,0.000173158,0.000887931,0.072042145,-0.064081423,9.814365387
1784243450.051858,-0.006419267,-0.006305119,0.904715598,-0.000945458,0.000151799,0.001193108,0.073569387,-0.049700316,9.805492401
1784243450.053865,-0.006419165,-0.006305772,0.904715598,-0.001416412,-0.000110668,0.000745988,0.035371866,-0.054936565,9.791524887
1784243450.055874,-0.006419165,-0.006305772,0.904715598,-0.001038491,-0.000455189,0.000673283,0.037631080,-0.054841306,9.774042130
1784243450.057884,-0.006418720,-0.006305090,0.904715598,-0.000132806,-0.000981626,0.000403163,0.049609780,-0.065798476,9.781157494
1784243450.059872,-0.006418720,-0.006305090,0.904715598,0.000327999,-0.001520771,-0.000480769,0.062311888,-0.054734990,9.777652740
1784243450.061872,-0.006418720,-0.006305090,0.904715598,0.000666093,-0.001644899,-0.000906581,0.073690571,-0.077012613,9.802627563
1784243450.063868,-0.006419403,-0.006305139,0.904715598,0.001134021,-0.001305733,-0.001214036,0.059929546,-0.063097045,9.823775291
1784243450.065870,-0.006419403,-0.006305139,0.904715598,0.001365733,-0.001129253,-0.001474684,0.069733664,-0.033865012,9.790796280
1784243450.067880,-0.006418293,-0.006305551,0.904715598,0.001349318,-0.001254998,-0.000962253,0.074308150,-0.063122042,9.801371574
1784243450.069876,-0.006418293,-0.006305551,0.904715598,0.000760509,-0.001126051,-0.000317864,0.055027764,-0.061550017,9.804053307
1784243450.071895,-0.006418293,-0.006305551,0.904715598,-0.000187794,-0.000593870,0.000044873,0.030860212,-0.091852933,9.824458122
1784243450.073888,-0.006420046,-0.006304487,0.904715598,-0.000334707,-0.000015604,0.000563774,0.027036626,-0.076732300,9.784203529
1784243450.075880,-0.006420046,-0.006304487,0.904715598,0.000008414,0.000098580,0.000327031,0.055279259,-0.079728208,9.776589394
1784243450.077882,-0.006420727,-0.006304958,0.904715598,0.000308022,-0.000355541,-0.000371851,0.070647992,-0.068496093,9.807612419
1784243450.079885,-0.006420727,-0.006304958,0.904715598,0.000942994,-0.000496074,-0.000355755,0.069186792,-0.079518884,9.785121918
1784243450.081882,-0.006420727,-0.006304958,0.904715598,0.001174127,-0.000236747,-0.000216018,0.073866010,-0.061848715,9.812139511
1784243450.083884,-0.006420389,-0.006305672,0.904715598,0.000781073,-0.000166775,-0.000278243,0.053274844,-0.058359493,9.799590111
1784243450.085900,-0.006420389,-0.006305672,0.904715598,0.000334124,0.000083811,-0.000304664,0.051747486,-0.036367323,9.797039032
1784243450.087899,-0.006419054,-0.006305370,0.904715598,-0.000441898,0.000450214,-0.000161137,0.039629132,-0.036644157,9.794782639
1784243450.089935,-0.006419054,-0.006305370,0.904715598,-0.000975243,0.000338584,-0.000022533,0.015785465,-0.080095947,9.773409843
1784243450.091901,-0.006419054,-0.006305370,0.904715598,-0.000951530,-0.000018829,0.000348332,0.047376692,-0.064876981,9.781608582
1784243450.093896,-0.006419085,-0.006304211,0.904715598,-0.000679500,-0.000102730,0.000746254,0.088743560,-0.057025015,9.800079346
1784243450.095896,-0.006419085,-0.006304211,0.904715598,-0.000406453,-0.000018120,0.000621875,0.091755636,-0.067403339,9.804948807
1784243450.097895,-0.006419107,-0.006305807,0.904715598,-0.000222413,0.000261882,0.000171423,0.061591491,-0.038736790,9.797481537
1784243450.099895,-0.006419107,-0.006305807,0.904715598,0.000075068,0.000430867,-0.000607957,0.064893223,-0.062534265,9.798676491
1784243450.101898,-0.006419107,-0.006305807,0.904715598,-0.000043115,-0.000254153,-0.000891932,0.048678324,-0.065650620,9.825094223
1784243450.103909,-0.006418911,-0.006304886,0.904715598,-0.000985854,-0.001164126,-0.000091555,0.054157004,-0.059301887,9.804515839
1784243450.105910,-0.006418911,-0.006304886,0.904715598,-0.001560409,-0.001381139,0.000963521,0.070464313,-0.084130220,9.801234245
1784243450.107907,-0.006420438,-0.006305698,0.904715598,-0.001036498,-0.001473412,0.001084132,0.053414378,-0.083095320,9.812432289
1784243450.109907,-0.006420438,-0.006305698,0.904715598,-0.000276507,-0.001898165,0.000105548,0.065600917,-0.078227580,9.799024582
1784243450.111916,-0.006420438,-0.006305698,0.904715598,-0.000082477,-0.002006168,-0.000534582,0.083238244,-0.065610372,9.820194244
1784243450.113917,-0.006420606,-0.006306648,0.904715598,-0.000620391,-0.001252659,-0.000491902,0.084571041,-0.068569392,9.792828560
1784243450.115915,-0.006420606,-0.006306648,0.904715598,-0.000897457,-0.000058773,-0.000168205,0.085068546,-0.063326798,9.810796738
1784243450.117919,-0.006420056,-0.006308226,0.904715598,-0.000417545,0.000317630,0.000065939,0.073143534,-0.047893193,9.804160118
1784243450.119921,-0.006420056,-0.006308226,0.904715598,0.000360536,-0.000039215,-0.000343982,0.057408899,-0.087950625,9.794919968
1784243450.121912,-0.006420056,-0.006308226,0.904715598,0.000551612,0.000152424,-0.000243547,0.066212006,-0.063577801,9.817053795
1784243450.123912,-0.006421009,-0.006308761,0.904715598,-0.000119149,0.000817538,0.000679695,0.067614660,-0.097496398,9.795765877
1784243450.125916,-0.006421009,-0.006308761,0.904715598,-0.000682533,0.001016657,0.001061730,0.081737511,-0.078971550,9.811590195
1784243450.127920,-0.006421856,-0.006309825,0.904715598,-0.000770706,0.000782579,0.000959349,0.093259126,-0.053209845,9.822525978
1784243450.129926,-0.006421856,-0.006309825,0.904715598,-0.000689418,0.000700261,0.000921593,0.063323803,-0.044116247,9.794758797
1784243450.131920,-0.006421856,-0.006309825,0.904715598,-0.000520446,0.000729881,0.000768398,0.038607374,-0.082498975,9.818251610
1784243450.133930,-0.006424011,-0.006307748,0.904715598,0.000090272,0.000604865,0.000223512,0.061207455,-0.070542023,9.797276497
1784243450.135931,-0.006424011,-0.006307748,0.904715598,0.000765092,0.000078225,0.000005025,0.065778948,-0.062637977,9.811677933
1784243450.137969,-0.006424273,-0.006308218,0.904715598,0.000620078,-0.000535873,0.000385118,0.082001574,-0.057434436,9.806796074
1784243450.139939,-0.006424273,-0.006308218,0.904715598,0.000011486,-0.000706940,0.000518338,0.067502573,-0.070517600,9.782487869
1784243450.141933,-0.006424273,-0.006308218,0.904715598,0.000043333,-0.000491047,0.000022330,0.057466444,-0.083849028,9.785083771
1784243450.143937,-0.006425394,-0.006308671,0.904715598,0.000628553,-0.000265843,-0.000662668,0.072679102,-0.088438250,9.772963524
1784243450.145972,-0.006425394,-0.006308671,0.904715598,0.000692165,-0.000135753,-0.000855567,0.071602933,-0.064405993,9.797776222
1784243450.147954,-0.006425300,-0.006309419,0.904715598,0.000237178,0.000466961,-0.000759384,0.080591075,-0.064409681,9.782092094
1784243450.149952,-0.006425300,-0.006309419,0.904715598,-0.000002838,0.000977705,-0.000797083,0.068157397,-0.053091012,9.787980080
1784243450.151967,-0.006425300,-0.006309419,0.904715598,-0.000130575,0.000683521,-0.000864286,0.062235478,-0.059796106,9.796449661
1784243450.153948,-0.006424938,-0.006309971,0.904715598,-0.000337848,0.000053250,-0.000392240,0.057403035,-0.052838564,9.771832466
1784243450.155948,-0.006424938,-0.006309971,0.904715598,-0.000562942,-0.000444637,0.000528965,0.083876871,-0.053174593,9.771408081
1784243450.157952,-0.006424334,-0.006311696,0.904715598,-0.001174502,-0.000528766,0.000587133,0.105796315,-0.058037661,9.785743713
1784243450.159964,-0.006424334,-0.006311696,0.904715598,-0.001866558,-0.000238105,-0.000560343,0.075334504,-0.051578760,9.814450264
1784243450.161954,-0.006424334,-0.006311696,0.904715598,-0.002064472,-0.000049987,-0.001016824,0.066576235,-0.071545094,9.802656174
1784243450.163951,-0.006424190,-0.006311427,0.904715598,-0.001942382,-0.000190896,-0.000520108,0.068943001,-0.062090352,9.791958809
1784243450.165956,-0.006424190,-0.006311427,0.904715598,-0.001129272,-0.000158800,0.000078319,0.050049119,-0.064257205,9.815688133
1784243450.167967,-0.006424543,-0.006309546,0.904715598,-0.000066390,-0.000174276,0.000153762,0.013642373,-0.069548249,9.806204796
1784243450.169962,-0.006424543,-0.006309546,0.904715598,0.000040169,-0.000192807,-0.000370038,0.066720255,-0.059466053,9.804975510
1784243450.171958,-0.006424543,-0.006309546,0.904715598,-0.000457841,0.000052331,-0.000823302,0.057292111,-0.059793275,9.804965019
1784243450.173965,-0.006424716,-0.006310957,0.904715598,-0.000787985,-0.000093426,-0.001155255,0.025161717,-0.083825812,9.776983261
1784243450.175973,-0.006424716,-0.006310957,0.904715598,-0.000868726,-0.000418871,-0.001145321,0.074423358,-0.053702135,9.799639702
1784243450.177971,-0.006423330,-0.006311932,0.904715598,-0.000528652,-0.000499813,-0.000883856,0.077733323,-0.039439421,9.804217339
1784243450.179991,-0.006423330,-0.006311932,0.904715598,0.000407275,-0.000528209,-0.001017050,0.085994951,-0.063109361,9.778518677
1784243450.181969,-0.006423330,-0.006311932,0.904715598,0.001216468,-0.000548165,-0.001456858,0.050666526,-0.050773256,9.808601379
1784243450.184014,-0.006423532,-0.006311742,0.904715598,0.001172223,-0.000488300,-0.001055774,0.055639308,-0.047707126,9.809523582
1784243450.185977,-0.006423532,-0.006311742,0.904715598,0.000490149,-0.000207566,-0.000131486,0.054587003,-0.059860528,9.819307327
1784243450.187983,-0.006423644,-0.006312523,0.904715598,0.000136343,-0.000218596,0.000215941,0.096135400,-0.040443879,9.786294937
1784243450.189977,-0.006423644,-0.006312523,0.904715598,0.000744112,-0.000521848,0.000125785,0.103529096,-0.059006587,9.800081253
1784243450.191976,-0.006423644,-0.006312523,0.904715598,0.001695795,-0.000513819,-0.000010016,0.064711630,-0.076125719,9.820109367
1784243450.193978,-0.006424902,-0.006312678,0.904715598,0.002136970,-0.000397699,-0.000036525,0.063479394,-0.067914806,9.801780701
1784243450.195980,-0.006424902,-0.006312678,0.904715598,0.001608700,-0.000356283,-0.000328204,0.091278113,-0.032466777,9.807415009
1784243450.197984,-0.006423043,-0.006314606,0.904715598,0.000790306,-0.000390557,-0.001011084,0.087464422,-0.052426413,9.785762787
1784243450.199983,-0.006423043,-0.006314606,0.904715598,0.000371700,-0.000565640,-0.000823141,0.073875569,-0.060152266,9.825601578
1784243450.201984,-0.006423043,-0.006314606,0.904715598,0.000240566,-0.001237914,-0.000219637,0.068916701,-0.063513726,9.803157806
1784243450.203993,-0.006422831,-0.006314625,0.904715598,-0.000251839,-0.001791170,-0.000466945,0.055208083,-0.084747992,9.789559364
1784243450.205990,-0.006422831,-0.006314625,0.904715598,-0.000908110,-0.001255930,-0.000497936,0.072048523,-0.063220479,9.819303513
1784243450.207989,-0.006422843,-0.006315488,0.904715598,-0.000712019,-0.000404861,-0.000589080,0.059381399,-0.073197260,9.795912743
1784243450.209991,-0.006422843,-0.006315488,0.904715598,-0.000717831,-0.000213584,-0.000928879,0.071796730,-0.049502447,9.780834198
1784243450.212001,-0.006422843,-0.006315488,0.904715598,-0.001018683,-0.000492329,0.000012199,0.060027476,-0.057460781,9.787047386
1784243450.214023,-0.006423037,-0.006315365,0.904715598,-0.000877502,-0.000684931,0.001294106,0.070822559,-0.055365320,9.787969589
1784243450.216014,-0.006423037,-0.006315365,0.904715598,-0.001258003,-0.000615284,0.001127203,0.053512499,-0.036625613,9.830215454
1784243450.218011,-0.006422269,-0.006314793,0.904715598,-0.001479589,-0.000474155,0.000843741,0.051948413,-0.057376374,9.789731026
1784243450.220012,-0.006422269,-0.006314793,0.904715598,-0.000937135,-0.000347030,0.001306413,0.063596487,-0.059695706,9.779863358
1784243450.222002,-0.006422269,-0.006314793,0.904715598,-0.000951785,0.000202856,0.001176014,0.043316793,-0.064590320,9.811645508
1784243450.224009,-0.006421350,-0.006313423,0.904715598,-0.001098795,0.001343655,0.000958565,0.054661177,-0.054411869,9.809031487
1784243450.226006,-0.006421350,-0.006313423,0.904715598,-0.000469208,0.001752569,0.000835077,0.018598136,-0.030242395,9.814531326
1784243450.228011,-0.006419825,-0.006311815,0.904715598,-0.000073200,0.001189608,0.000343082,0.083934300,-0.047452848,9.785790443
1784243450.230012,-0.006419825,-0.006311815,0.904715598,-0.000380530,0.000910477,0.000219126,0.088325001,-0.053133879,9.820727348
1784243450.232009,-0.006419825,-0.006311815,0.904715598,-0.000568930,0.000687534,0.000327342,0.072244160,-0.083460785,9.829934120
1784243450.234036,-0.006420394,-0.006311952,0.904715598,-0.000240316,0.000054334,0.000043257,0.076991908,-0.063223302,9.810788155
1784243450.236017,-0.006420394,-0.006311952,0.904715598,0.000165755,-0.000066094,-0.000269842,0.100533813,-0.046874568,9.800603867
1784243450.238053,-0.006420607,-0.006313354,0.904715598,0.000287189,0.000529479,-0.000079211,0.054444976,-0.074760526,9.772584915
1784243450.240015,-0.006420607,-0.006313354,0.904715598,0.000264987,0.000801440,0.000239103,0.059477381,-0.065550119,9.791479111
1784243450.242010,-0.006420607,-0.006313354,0.904715598,-0.000025497,0.000749535,0.000631628,0.060607761,-0.083886087,9.784638405
1784243450.244017,-0.006422063,-0.006312780,0.904715598,-0.000346630,0.000710247,0.001350640,0.074216828,-0.071137637,9.794595718
1784243450.246068,-0.006422063,-0.006312780,0.904715598,-0.000235806,0.000716120,0.001514136,0.051098708,-0.053746205,9.784821510
1784243450.248057,-0.006421174,-0.006312549,0.904715598,-0.000098014,0.000796983,0.000785324,0.075695343,-0.025224991,9.762163162
1784243450.250050,-0.006421174,-0.006312549,0.904715598,-0.000004152,0.000226764,0.000124514,0.093224548,-0.057130206,9.806809425
1784243450.252049,-0.006421174,-0.006312549,0.904715598,0.000074958,-0.000715045,0.000344225,0.054348219,-0.041987207,9.826595306
1784243450.254050,-0.006421152,-0.006313433,0.904715598,-0.000314391,-0.000911008,0.000614614,0.038814884,-0.027060505,9.834745407
1784243450.256030,-0.006421152,-0.006313433,0.904715598,-0.000899351,-0.000650107,0.000091287,0.054438654,-0.073594704,9.797698975
1784243450.258034,-0.006421495,-0.006313300,0.904715598,-0.000874354,-0.000414563,0.000306729,0.085185342,-0.091484144,9.800753593
1784243450.260030,-0.006421495,-0.006313300,0.904715598,-0.000020511,0.000213231,0.000918841,0.069820449,-0.061854206,9.820206642
1784243450.262034,-0.006421495,-0.006313300,0.904715598,0.000768123,0.000783744,0.000228389,0.064331286,-0.071122445,9.810278893
1784243450.264035,-0.006421426,-0.006313314,0.904715598,0.000144311,0.000656737,-0.000676665,0.036653638,-0.059919544,9.796873093
1784243450.266039,-0.006421426,-0.006313314,0.904715598,-0.000660377,0.000148253,-0.000400167,0.048240896,-0.065555841,9.812541008
1784243450.268038,-0.006421642,-0.006313026,0.904715598,-0.000305943,-0.000090977,0.000236728,0.081450656,-0.068366982,9.769963264
1784243450.270042,-0.006421642,-0.006313026,0.904715598,0.000177444,0.000418391,0.000361881,0.072430596,-0.069831170,9.803120613
1784243450.272041,-0.006421642,-0.006313026,0.904715598,0.000750784,0.001182947,0.000473650,0.043575097,-0.044314422,9.795187950
1784243450.274044,-0.006421197,-0.006312141,0.904715598,0.001275763,0.001595764,0.000391973,0.068777628,-0.039584801,9.777755737
1784243450.276036,-0.006421197,-0.006312141,0.904715598,0.001098939,0.001923072,-0.000083460,0.084721409,-0.054819327,9.812195778
1784243450.278042,-0.006421754,-0.006312796,0.904715598,0.000466219,0.002470386,-0.000013696,0.084868759,-0.081924938,9.780190468
1784243450.280047,-0.006421754,-0.006312796,0.904715598,-0.000198653,0.002438321,0.000196869,0.075873196,-0.082385100,9.798111916
1784243450.282043,-0.006421754,-0.006312796,0.904715598,-0.000472547,0.001626040,-0.000520285,0.076523297,-0.066616826,9.784764290
1784243450.284044,-0.006421869,-0.006313190,0.904715598,-0.000547037,0.000889071,-0.001061386,0.070858113,-0.088621937,9.802102089
1784243450.286052,-0.006421869,-0.006313190,0.904715598,-0.000674078,0.000474327,-0.000696832,0.062700182,-0.058054518,9.802738190
1784243450.288050,-0.006421620,-0.006313755,0.904715598,-0.000472982,0.000600230,-0.000302044,0.075138807,-0.068118349,9.809411049
1784243450.290054,-0.006421620,-0.006313755,0.904715598,-0.000291588,0.000723365,0.000671754,0.063012861,-0.069265664,9.803564072
1784243450.292054,-0.006421620,-0.006313755,0.904715598,-0.000653546,0.000470655,0.002317157,0.057965621,-0.041813809,9.795664787
1784243450.294051,-0.006420260,-0.006313220,0.904715598,-0.001217296,0.000798420,0.002760015,0.080213100,-0.055740420,9.823842049
1784243450.296058,-0.006420260,-0.006313220,0.904715598,-0.001026459,0.001148222,0.001531751,0.092868939,-0.048689514,9.817622185
1784243450.298059,-0.006419980,-0.006314601,0.904715598,-0.000406115,0.000627877,-0.000016446,0.073999628,-0.050662402,9.814004898
1784243450.300065,-0.006419980,-0.006314601,0.904715598,-0.000338831,-0.000022231,-0.000297977,0.049665608,-0.060089443,9.797332764
1784243450.302058,-0.006419980,-0.006314601,0.904715598,-0.000778092,-0.000280883,0.000526305,0.065102853,-0.046290018,9.782193184
1784243450.304073,-0.006419156,-0.006314955,0.904715598,-0.001204159,-0.000339513,0.000694098,0.078365974,-0.062614538,9.785688400
1784243450.306074,-0.006419156,-0.006314955,0.904715598,-0.000640405,-0.000025468,-0.000191192,0.051778320,-0.071282245,9.792331696
1784243450.308071,-0.006419429,-0.006314487,0.904715598,0.000282505,0.000720650,-0.000976835,0.072883204,-0.071021825,9.780696869
1784243450.310068,-0.006419429,-0.006314487,0.904715598,0.000427045,0.001033456,-0.001154152,0.068530597,-0.059771668,9.781661987
1784243450.312092,-0.006419429,-0.006314487,0.904715598,0.000400780,0.000882442,-0.000906557,0.095504403,-0.058492929,9.742241859
1784243450.314077,-0.006419018,-0.006316299,0.904715598,0.000547543,0.001111296,-0.000507414,0.069433115,-0.095711648,9.793537140
1784243450.316141,-0.006419018,-0.006316299,0.904715598,0.000329119,0.001246742,-0.000415903,0.033461168,-0.063123129,9.812092781
1784243450.318088,-0.006418253,-0.006314517,0.904715598,-0.000485425,0.000868273,-0.000641767,0.031306669,-0.056717999,9.797336578
1784243450.320090,-0.006418253,-0.006314517,0.904715598,-0.000860432,0.000768872,-0.000588356,0.061606053,-0.036595557,9.811393738
1784243450.322127,-0.006418253,-0.006314517,0.904715598,-0.000481489,0.000920207,-0.000023661,0.082941674,-0.054272048,9.801437378
1784243450.324098,-0.006417234,-0.006315543,0.904715598,0.000531250,0.000608307,0.000422635,0.074305780,-0.063951187,9.791953087
1784243450.326094,-0.006417234,-0.006315543,0.904715598,0.001579772,0.000543939,0.000063190,0.090154342,-0.051263288,9.806395531
1784243450.328090,-0.006416916,-0.006316367,0.904715598,0.001065111,0.000996478,-0.000143756,0.062140308,-0.067436881,9.799987793
1784243450.330088,-0.006416916,-0.006316367,0.904715598,0.000304278,0.000894344,0.000352333,0.061121609,-0.076082900,9.820555687
1784243450.332085,-0.006416916,-0.006316367,0.904715598,0.000632269,0.000381104,0.000279441,0.063061014,-0.066453889,9.786096573
1784243450.334118,-0.006417278,-0.006316346,0.904715598,0.000637543,0.000030720,-0.000261299,0.029987959,-0.053647697,9.809011459
1784243450.336100,-0.006417278,-0.006316346,0.904715598,-0.000190483,-0.000111107,-0.000078254,0.041212484,-0.052520674,9.819340706
1784243450.338124,-0.006417001,-0.006315585,0.904715598,-0.000850530,-0.000430469,0.000162110,0.060594648,-0.048831265,9.769618988
1784243450.340103,-0.006417001,-0.006315585,0.904715598,-0.000899995,-0.000971765,0.000011245,0.082010597,-0.056957863,9.802764893
1784243450.342103,-0.006417001,-0.006315585,0.904715598,-0.001113076,-0.001022090,-0.000115075,0.066097371,-0.075424738,9.782006264
1784243450.344098,-0.006417908,-0.006315842,0.904715598,-0.001717408,-0.000714026,0.000137094,0.076558627,-0.061880030,9.811693192
1784243450.346155,-0.006417908,-0.006315842,0.904715598,-0.001398915,-0.000411775,0.000972300,0.073583201,-0.048375517,9.808190346
1784243450.348117,-0.006416035,-0.006315961,0.904715598,-0.000337042,-0.000432644,0.001273834,0.049374729,-0.084269799,9.795832634
1784243450.350156,-0.006416035,-0.006315961,0.904715598,-0.000289485,-0.000814792,0.000966798,0.024751063,-0.077440858,9.824993134
1784243450.352126,-0.006416035,-0.006315961,0.904715598,-0.000737759,-0.000742117,0.000112501,0.052256145,-0.067005515,9.820156097
1784243450.354114,-0.006415974,-0.006315089,0.904715598,-0.000606901,-0.000242687,-0.000741305,0.080587156,-0.063224785,9.804516792
1784243450.356137,-0.006415974,-0.006315089,0.904715598,-0.000039477,0.000471277,-0.000584365,0.077697642,-0.042152632,9.807787895
1784243450.358114,-0.006414030,-0.006315509,0.904715598,0.000283013,0.000921150,-0.000596934,0.073663190,-0.039638873,9.839630127
1784243450.360116,-0.006414030,-0.006315509,0.904715598,0.000027530,0.000950835,-0.001041774,0.106960252,-0.034466203,9.808312416
1784243450.362115,-0.006414030,-0.006315509,0.904715598,-0.000431922,0.000847421,-0.001042033,0.076711670,-0.089751214,9.761302948
1784243450.364111,-0.006414737,-0.006316363,0.904715598,-0.000555029,0.000353607,-0.000683181,0.058139961,-0.100622684,9.811428070
1784243450.366119,-0.006414737,-0.006316363,0.904715598,-0.000369039,0.000474883,-0.000093711,0.060861163,-0.100428239,9.779152870
1784243450.368126,-0.006417275,-0.006316510,0.904715598,-0.000808643,0.000910753,0.000445046,0.046499871,-0.100266531,9.782278061
1784243450.370119,-0.006417275,-0.006316510,0.904715598,-0.001460924,0.000532436,0.000417928,0.038065057,-0.054558080,9.796460152
1784243450.372120,-0.006417275,-0.006316510,0.904715598,-0.001253874,-0.000235280,0.000197945,0.052453168,-0.052076541,9.799629211
1784243450.374115,-0.006416806,-0.006315486,0.904715598,-0.000829424,-0.000581291,0.000003209,0.067794144,-0.044710729,9.807312965
1784243450.376119,-0.006416806,-0.006315486,0.904715598,-0.000806193,-0.000576845,-0.000372352,0.070660353,-0.034861099,9.740129471
1784243450.378127,-0.006415585,-0.006315718,0.904715598,-0.000901517,-0.000792039,-0.000051631,0.047674581,-0.040235944,9.781319618
1784243450.380126,-0.006415585,-0.006315718,0.904715598,-0.000646007,-0.000988530,0.000218410,0.050855089,-0.035911046,9.797489166
1784243450.382123,-0.006415585,-0.006315718,0.904715598,-0.000185518,-0.000881534,0.000236443,0.080242150,-0.056321558,9.779454231
1784243450.384129,-0.006414973,-0.006316649,0.904715598,0.000043393,-0.000534998,0.000666099,0.077532783,-0.056017168,9.804558754
1784243450.386129,-0.006414973,-0.006316649,0.904715598,0.000359685,0.000078368,0.000566156,0.077253662,-0.043325417,9.784465790
1784243450.388133,-0.006414756,-0.006317557,0.904715598,0.000756584,0.000848052,0.000387101,0.079411253,-0.050921809,9.777694702
1784243450.390133,-0.006414756,-0.006317557,0.904715598,0.001022919,0.000976913,0.000272270,0.049920682,-0.074592113,9.820104599
1784243450.392135,-0.006414756,-0.006317557,0.904715598,0.000826186,0.000031601,0.000091948,0.054490212,-0.070350863,9.782475471
1784243450.394137,-0.006415450,-0.006316758,0.904715598,0.000137042,-0.000887478,0.000337522,0.083027638,-0.047514480,9.796101570
1784243450.396136,-0.006415450,-0.006316758,0.904715598,-0.000049673,-0.000840006,0.000448709,0.075965963,-0.037173435,9.803782463
1784243450.398141,-0.006414472,-0.006317072,0.904715598,0.000341621,-0.000610905,0.000170592,0.053443953,-0.044866607,9.792054176
1784243450.400141,-0.006414472,-0.006317072,0.904715598,0.000351499,-0.000766243,0.000164325,0.046271227,-0.042696975,9.814927101
1784243450.402142,-0.006414472,-0.006317072,0.904715598,0.000145989,-0.000516242,0.000017030,0.074531563,-0.083142951,9.781069756
1784243450.404156,-0.006415019,-0.006316807,0.904715598,0.000234513,-0.000013477,0.000038255,0.084817424,-0.085572220,9.789134026
1784243450.406154,-0.006415019,-0.006316807,0.904715598,0.000271408,-0.000318756,0.001006678,0.058349695,-0.048408609,9.777241707
1784243450.408170,-0.006414163,-0.006316794,0.904715598,-0.000408929,-0.000783963,0.001456962,0.055525083,-0.059550885,9.774028778
1784243450.410159,-0.006414163,-0.006316794,0.904715598,-0.000950246,-0.000505526,0.000994076,0.054501723,-0.067828439,9.805807114
1784243450.412157,-0.006414163,-0.006316794,0.904715598,-0.000707461,0.000104092,0.000714303,0.056729641,-0.069601335,9.799073219
1784243450.414160,-0.006414784,-0.006316891,0.904715598,-0.000456870,0.000708505,0.000655916,0.068390772,-0.071412288,9.780689240
1784243450.416166,-0.006414784,-0.006316891,0.904715598,0.000087857,0.001093899,0.000126252,0.082024060,-0.056446306,9.793801308
1784243450.418158,-0.006413630,-0.006319182,0.904715598,0.000730952,0.000724470,-0.000335041,0.048989512,-0.040904649,9.810009003
1784243450.420156,-0.006413630,-0.006319182,0.904715598,0.000455889,0.000352488,-0.000203496,0.039833803,-0.056407891,9.801382065
1784243450.422160,-0.006413630,-0.006319182,0.904715598,-0.000296002,0.000827853,-0.000501524,0.054398615,-0.039562989,9.800608635
1784243450.424166,-0.006412333,-0.006317981,0.904715598,-0.000303056,0.000988993,-0.000827118,0.070837192,-0.051197305,9.831932068
1784243450.426167,-0.006412333,-0.006317981,0.904715598,0.000461264,0.000500239,-0.000434651,0.053730443,-0.059121255,9.779858589
1784243450.428171,-0.006412031,-0.006317754,0.904715598,0.000873296,0.000250422,0.000393174,0.073365740,-0.067923643,9.785200119
1784243450.430164,-0.006412031,-0.006317754,0.904715598,0.000726303,0.000523123,0.001016110,0.049931429,-0.075722963,9.790060043
1784243450.432173,-0.006412031,-0.006317754,0.904715598,0.001252369,0.000628392,0.000910792,0.078013368,-0.053744946,9.799193382
1784243450.434173,-0.006411365,-0.006316763,0.904715598,0.001704500,0.000310568,0.000470944,0.089952603,-0.067850567,9.808081627
1784243450.436173,-0.006411365,-0.006316763,0.904715598,0.001344776,-0.000023852,0.000527939,0.052964639,-0.047939349,9.783965111
1784243450.438174,-0.006409686,-0.006315340,0.904715598,0.001118076,-0.000217399,0.001147453,0.044543844,-0.076489478,9.781531334
1784243450.440176,-0.006409686,-0.006315340,0.904715598,0.000648679,-0.000154689,0.001202274,0.085306585,-0.082016543,9.792295456
1784243450.442176,-0.006409686,-0.006315340,0.904715598,0.000020755,0.000042499,0.000520527,0.067609832,-0.097534545,9.801144600
1784243450.444178,-0.006411654,-0.006315914,0.904715598,0.000299153,-0.000220646,0.000492132,0.067267358,-0.051805586,9.797852516
1784243450.446191,-0.006411654,-0.006315914,0.904715598,0.001508206,-0.000859049,0.001102370,0.083553493,-0.041642681,9.788516998
1784243450.448183,-0.006410888,-0.006317712,0.904715598,0.002338238,-0.000982141,0.001639005,0.039538901,-0.080620043,9.804365158
1784243450.450182,-0.006410888,-0.006317712,0.904715598,0.002351098,-0.000563114,0.002302610,0.035525151,-0.077537507,9.819176674
1784243450.452188,-0.006410888,-0.006317712,0.904715598,0.002146592,-0.000037680,0.002480044,0.072740972,-0.045091566,9.788932800
1784243450.454186,-0.006408615,-0.006317993,0.904715598,0.001891174,0.000491453,0.002411380,0.065273218,-0.068350792,9.796846390
1784243450.456182,-0.006408615,-0.006317993,0.904715598,0.001504995,0.000823420,0.002631520,0.066815488,-0.052635342,9.789326668
1784243450.458188,-0.006407483,-0.006319011,0.904715598,0.001006959,0.000945691,0.002122963,0.063618593,-0.055873908,9.809478760
1784243450.460188,-0.006407483,-0.006319011,0.904715598,0.000279420,0.000663149,0.001352694,0.073315464,-0.034378044,9.793485641
1784243450.462186,-0.006407483,-0.006319011,0.904715598,-0.000019866,0.000146299,0.001205387,0.076922849,-0.069847338,9.797296524
1784243450.464197,-0.006408546,-0.006321004,0.904715598,0.000467851,-0.000201168,0.000991047,0.058808643,-0.082681358,9.807509422
1784243450.466201,-0.006408546,-0.006321004,0.904715598,0.000695100,-0.000684247,0.000400175,0.067559876,-0.103602506,9.772414207
1784243450.468201,-0.006411700,-0.006322570,0.904715598,0.000736928,-0.000730063,0.000169810,0.080366783,-0.081175029,9.808883667
1784243450.470203,-0.006411700,-0.006322570,0.904715598,0.000864573,-0.000064622,0.000349023,0.061034378,-0.047286820,9.803703308
1784243450.472201,-0.006411700,-0.006322570,0.904715598,0.001013530,0.000668985,0.000896245,0.046013966,-0.028616833,9.788564682
1784243450.474205,-0.006409403,-0.006321060,0.904715598,0.001024585,0.000626385,0.001634505,0.061475888,-0.048159871,9.799663544
1784243450.476207,-0.006409403,-0.006321060,0.904715598,0.000307801,0.000336388,0.001646223,0.080084994,-0.068098918,9.797760963
1784243450.478215,-0.006409945,-0.006322105,0.904715598,-0.000332084,0.000814019,0.001062701,0.048427273,-0.051116157,9.797836304
1784243450.480215,-0.006409945,-0.006322105,0.904715598,-0.000343368,0.001356936,0.000332539,0.083760701,-0.060170639,9.810367584
1784243450.482215,-0.006409945,-0.006322105,0.904715598,-0.000300861,0.001497917,0.000124219,0.092025958,-0.046221986,9.787150383
1784243450.484214,-0.006408060,-0.006323398,0.904715598,-0.000234626,0.001650474,0.000586556,0.064720377,-0.039682500,9.798824310
1784243450.486288,-0.006408060,-0.006323398,0.904715598,0.000245885,0.001507727,0.000471340,0.047056764,-0.053723082,9.788852692
1784243450.488222,-0.006407331,-0.006322588,0.904715598,0.000302229,0.000748018,-0.000772029,0.053072821,-0.073733255,9.819665909
1784243450.490218,-0.006407331,-0.006322588,0.904715598,-0.000181024,0.000165230,-0.001841274,0.057082992,-0.077654481,9.796779633
1784243450.492229,-0.006407331,-0.006322588,0.904715598,-0.000276366,0.000237125,-0.001840805,0.082644425,-0.041723393,9.801517487
1784243450.494234,-0.006406114,-0.006322499,0.904715657,-0.000310251,0.000375127,-0.001190065,0.079181574,-0.030545142,9.811000824
1784243450.496223,-0.006406114,-0.006322499,0.904715657,-0.000103502,0.000183961,-0.000518696,0.039400227,-0.056687947,9.778515816
1784243450.498229,-0.006406052,-0.006321221,0.904715657,0.000283837,0.000081465,-0.000570583,0.057703458,-0.064551719,9.780275345
1784243450.500225,-0.006406052,-0.006321221,0.904715657,0.000660113,0.000207759,-0.001256979,0.082040280,-0.092692398,9.787291527
1784243450.502239,-0.006406052,-0.006321221,0.904715657,0.000879531,0.000351694,-0.001323565,0.069325171,-0.067484356,9.793718338
1784243450.504237,-0.006406621,-0.006321525,0.904715598,0.000888151,0.000021329,-0.000580458,0.076784573,-0.045912050,9.770998955
1784243450.506231,-0.006406621,-0.006321525,0.904715598,0.000817652,-0.000684941,-0.000294553,0.054378349,-0.043775510,9.762922287
1784243450.508233,-0.006405442,-0.006321018,0.904715657,0.000660572,-0.000998770,-0.000338050,0.077298611,-0.037702240,9.812747002
1784243450.510238,-0.006405442,-0.006321018,0.904715657,0.000423851,-0.000777642,-0.000114700,0.067563124,-0.063150264,9.817505836
1784243450.512247,-0.006405442,-0.006321018,0.904715657,0.000271585,-0.000523896,-0.000420791,0.064304873,-0.073762514,9.803536415
1784243450.514241,-0.006405768,-0.006320979,0.904715657,0.000377767,-0.000428504,-0.001113276,0.048924245,-0.084683396,9.791793823
1784243450.516240,-0.006405768,-0.006320979,0.904715657,0.000417223,-0.000328029,-0.000733092,0.064491011,-0.058919385,9.795113564
1784243450.518245,-0.006405340,-0.006321398,0.904715657,0.001038813,-0.000515871,-0.000023401,0.084812209,-0.048023593,9.801479340
1784243450.520247,-0.006405340,-0.006321398,0.904715657,0.001892420,-0.000649286,-0.000769370,0.062516578,-0.036908753,9.790769577
1784243450.522251,-0.006405340,-0.006321398,0.904715657,0.001594255,-0.000626348,-0.001674629,0.044938400,-0.080164768,9.793612480
1784243450.524244,-0.006405836,-0.006320697,0.904715657,0.001047456,-0.000861726,-0.001740319,0.041884780,-0.072140716,9.804870605
1784243450.526246,-0.006405836,-0.006320697,0.904715657,0.001444479,-0.001077106,-0.001895465,0.052212860,-0.073426053,9.777971268
1784243450.528252,-0.006406297,-0.006320497,0.904715657,0.002167955,-0.001167800,-0.001826911,0.051832359,-0.065992564,9.804470062
1784243450.530253,-0.006406297,-0.006320497,0.904715657,0.002348351,-0.001465672,-0.001526087,0.053323805,-0.055541355,9.781225204
1784243450.532254,-0.006406297,-0.006320497,0.904715657,0.002101661,-0.001534597,-0.001306715,0.077682748,-0.042270273,9.824374199
1784243450.534256,-0.006405611,-0.006320871,0.904715657,0.001911733,-0.000847064,-0.001088656,0.088582158,-0.033677593,9.793503761
1784243450.536258,-0.006405611,-0.006320871,0.904715657,0.001954643,-0.000311938,-0.000965426,0.073149897,-0.049869087,9.766935349
1784243450.538280,-0.006405659,-0.006321260,0.904715657,0.002014827,-0.000605943,-0.000951626,0.060390327,-0.063007407,9.810326576
1784243450.540261,-0.006405659,-0.006321260,0.904715657,0.001768514,-0.000941771,-0.001141282,0.081964567,-0.061373871,9.793769836
1784243450.542261,-0.006405659,-0.006321260,0.904715657,0.001122153,-0.000805835,-0.000880926,0.068658970,-0.086216658,9.782836914
1784243450.544265,-0.006406450,-0.006321307,0.904715657,0.000182280,-0.000436522,0.000085730,0.070618123,-0.070758156,9.810735703
1784243450.546287,-0.006406450,-0.006321307,0.904715657,-0.000465187,-0.000077665,0.000754384,0.067073040,-0.067929000,9.797299385
1784243450.548274,-0.006406563,-0.006321527,0.904715657,-0.000468830,-0.000141511,0.000626661,0.059073683,-0.060731281,9.807650566
1784243450.550270,-0.006406563,-0.006321527,0.904715657,0.000048983,-0.000570953,0.000423999,0.045945767,-0.070797697,9.797709465
1784243450.552274,-0.006406563,-0.006321527,0.904715657,0.000372420,-0.000794548,0.000493396,0.056675777,-0.074484393,9.792763710
1784243450.554275,-0.006407170,-0.006320251,0.904715598,0.000265508,-0.000898748,0.000381267,0.076463908,-0.070327707,9.802673340
1784243450.556282,-0.006407170,-0.006320251,0.904715598,0.000022743,-0.001118421,0.000551244,0.046823386,-0.035401806,9.796143532
1784243450.558281,-0.006404251,-0.006319378,0.904715657,-0.000151794,-0.000905031,0.001417280,0.049777240,-0.013918262,9.794042587
1784243450.560276,-0.006404251,-0.006319378,0.904715657,0.000105836,-0.000285637,0.002033322,0.065521516,-0.048964448,9.779485703
1784243450.562281,-0.006404251,-0.006319378,0.904715657,0.000290422,-0.000209819,0.002064814,0.080004267,-0.074815147,9.797267914
1784243450.564278,-0.006404483,-0.006320663,0.904715657,0.000459514,-0.000386405,0.001671327,0.065739535,-0.066596493,9.801342010
1784243450.566286,-0.006404483,-0.006320663,0.904715657,0.001021128,-0.000175685,0.001044279,0.019103440,-0.064959571,9.781131744
1784243450.568288,-0.006404302,-0.006317764,0.904715657,0.001377164,0.000243846,0.001329003,0.034939051,-0.051563341,9.822031975
1784243450.570288,-0.006404302,-0.006317764,0.904715657,0.001435556,0.000493766,0.002167606,0.049521759,-0.034171902,9.807363510
1784243450.572294,-0.006404302,-0.006317764,0.904715657,0.001456402,0.000159290,0.001927171,0.073836945,-0.064104423,9.814368248
1784243450.574289,-0.006403290,-0.006317265,0.904715657,0.001105132,-0.000670410,0.001098305,0.074511610,-0.048142184,9.773671150
1784243450.576292,-0.006403290,-0.006317265,0.904715657,0.000671364,-0.000932927,0.000821039,0.085322239,-0.043492496,9.793438911
1784243450.578290,-0.006402273,-0.006318850,0.904715657,0.000164919,-0.000208030,0.001255669,0.080356427,-0.045287870,9.802837372
1784243450.580292,-0.006402273,-0.006318850,0.904715657,-0.000783055,0.000237514,0.001372342,0.052654039,-0.037522387,9.768787384
1784243450.582293,-0.006402273,-0.006318850,0.904715657,-0.001335677,-0.000261496,0.000496222,0.060343254,-0.067026332,9.808507919
1784243450.584304,-0.006402715,-0.006318897,0.904715657,-0.001019068,-0.001027982,-0.000269487,0.065475993,-0.052160591,9.787984848
1784243450.586300,-0.006402715,-0.006318897,0.904715657,-0.000459357,-0.001160583,-0.000391159,0.053669740,-0.064058371,9.781170845
1784243450.588300,-0.006402839,-0.006318026,0.904715657,-0.000391485,-0.000789190,0.000117981,0.057756860,-0.058861766,9.799142838
1784243450.590306,-0.006402839,-0.006318026,0.904715657,-0.000832349,-0.000693892,0.000577387,0.065381110,-0.061014894,9.773131371
1784243450.592313,-0.006402839,-0.006318026,0.904715657,-0.001302478,-0.001123962,0.000439693,0.077902600,-0.063129887,9.795996666
1784243450.594310,-0.006402300,-0.006318556,0.904715657,-0.001267915,-0.001745545,0.000049438,0.060861580,-0.062835097,9.785221100
1784243450.596308,-0.006402300,-0.006318556,0.904715657,-0.000459910,-0.001737938,-0.000375465,0.063085176,-0.063426271,9.801360130
1784243450.598308,-0.006402384,-0.006318414,0.904715657,0.000443512,-0.000981706,-0.000373439,0.052167930,-0.076212376,9.791851997
1784243450.600307,-0.006402384,-0.006318414,0.904715657,0.000866566,-0.000288365,0.000296374,0.060661968,-0.078189775,9.802607536
1784243450.602311,-0.006402384,-0.006318414,0.904715657,0.000680117,-0.000354579,0.000888668,0.058114357,-0.065666430,9.810306549
1784243450.604308,-0.006402625,-0.006318222,0.904715657,0.000287045,-0.000883142,0.000847716,0.067469724,-0.073208548,9.782919884
1784243450.606317,-0.006402625,-0.006318222,0.904715657,0.000220485,-0.000965795,0.001018486,0.084516659,-0.074672319,9.769027710
1784243450.608317,-0.006402805,-0.006319422,0.904715657,-0.000166293,-0.000466488,0.001488455,0.126326069,-0.068090498,9.776284218
1784243450.610318,-0.006402805,-0.006319422,0.904715657,-0.000969710,-0.000020367,0.001054225,0.122616500,-0.040722668,9.777802467
1784243450.612321,-0.006402805,-0.006319422,0.904715657,-0.001070072,-0.000146376,0.000050182,0.076025687,-0.032649316,9.797535896
1784243450.614323,-0.006401729,-0.006320225,0.904715657,-0.000172275,-0.000647391,-0.000230695,0.092750452,-0.060161613,9.792891502
1784243450.616325,-0.006401729,-0.006320225,0.904715657,0.000606255,-0.001106481,0.000015657,0.066355512,-0.052718628,9.801878929
1784243450.618325,-0.006400239,-0.006321016,0.904715657,0.001033040,-0.001060984,0.000124809,0.067267410,-0.052615657,9.785741806
1784243450.620321,-0.006400239,-0.006321016,0.904715657,0.001259767,-0.000398509,0.000460423,0.062844023,-0.083972067,9.792710304
1784243450.622324,-0.006400239,-0.006321016,0.904715657,0.000881253,0.000086638,0.001245619,0.054089043,-0.064296231,9.813898087
1784243450.624331,-0.006401304,-0.006319374,0.904715657,0.000401331,-0.000113828,0.001507335,0.066440783,-0.047587551,9.773219109
1784243450.626333,-0.006401304,-0.006319374,0.904715657,0.000030821,-0.000616857,0.001244675,0.052699789,-0.031892847,9.796172142
1784243450.628335,-0.006399718,-0.006318755,0.904715657,-0.000236101,-0.000765690,0.000783770,0.043537464,-0.047853597,9.788887024
1784243450.630333,-0.006399718,-0.006318755,0.904715657,0.000024467,-0.000661258,0.000161085,0.040271111,-0.057719372,9.795994759
1784243450.632337,-0.006399718,-0.006318755,0.904715657,0.000036589,-0.000207826,0.000124477,0.047038056,-0.091865934,9.797126770
1784243450.634337,-0.006401209,-0.006317259,0.904715657,-0.000081894,0.000069428,0.000169519,0.061218046,-0.069242671,9.803562164
1784243450.636339,-0.006401209,-0.006317259,0.904715657,0.000498391,-0.000056781,-0.000285838,0.055014931,-0.062461831,9.806289673
1784243450.638337,-0.006400967,-0.006317761,0.904715657,0.000905423,0.000137552,-0.000309109,0.077903807,-0.063120343,9.794651985
1784243450.640350,-0.006400967,-0.006317761,0.904715657,0.000423622,0.000215185,-0.000273500,0.062567085,-0.068020955,9.818366051
1784243450.642344,-0.006400967,-0.006317761,0.904715657,-0.000545076,0.000078195,0.000111418,0.066271678,-0.058243595,9.822915077
1784243450.644346,-0.006400468,-0.006317815,0.904715657,-0.000834529,0.000167475,0.001115614,0.069346935,-0.064475805,9.811671257
1784243450.646389,-0.006400468,-0.006317815,0.904715657,-0.000189229,0.000712250,0.001363794,0.072044440,-0.065279044,9.793734550
1784243450.648350,-0.006400541,-0.006318723,0.904715657,0.000156330,0.001098101,0.000623689,0.078401014,-0.059501059,9.788846016
1784243450.650357,-0.006400541,-0.006318723,0.904715657,0.000149670,0.000913442,0.000171784,0.088980399,-0.038134333,9.789443016
1784243450.652357,-0.006400541,-0.006318723,0.904715657,0.000574755,0.000501640,0.000274958,0.078067221,-0.086451858,9.798985481
1784243450.654349,-0.006400626,-0.006319961,0.904715657,0.000720478,0.000042749,0.000132351,0.071427941,-0.080376782,9.775704384
1784243450.656348,-0.006400626,-0.006319961,0.904715657,0.000139621,-0.000249138,0.000190075,0.088121481,-0.072977349,9.776215553
1784243450.658355,-0.006401167,-0.006321651,0.904715657,-0.000101999,-0.000391847,0.000250856,0.072122984,-0.058985334,9.790636063
1784243450.660353,-0.006401167,-0.006321651,0.904715657,0.000030328,-0.000391582,0.000368412,0.053882185,-0.044955026,9.803709984
1784243450.662357,-0.006401167,-0.006321651,0.904715657,-0.000253893,-0.000389719,0.000850594,0.036768328,-0.048882674,9.819808960
1784243450.664355,-0.006399770,-0.006320410,0.904715657,-0.000642083,-0.000492301,0.000858008,0.059151929,-0.056060888,9.780778885
1784243450.666359,-0.006399770,-0.006320410,0.904715657,-0.000834497,-0.000690568,0.000303258,0.067833051,-0.041972086,9.800156593
1784243450.668364,-0.006398377,-0.006321038,0.904715657,-0.000768969,-0.000347259,-0.000747692,0.075017281,-0.041619293,9.800613403
1784243450.670360,-0.006398377,-0.006321038,0.904715657,-0.000285725,0.000042246,-0.001529882,0.093403138,-0.078720756,9.818327904
1784243450.672399,-0.006398377,-0.006321038,0.904715657,-0.000125923,-0.000506203,-0.001075687,0.067569211,-0.063912652,9.798670769
1784243450.674387,-0.006397700,-0.006320931,0.904715657,-0.001022427,-0.000931040,-0.000710458,0.059551537,-0.097691439,9.774684906
1784243450.676379,-0.006397700,-0.006320931,0.904715657,-0.001703486,-0.000694275,-0.001416191,0.061142441,-0.074297421,9.821464539
1784243450.678383,-0.006398649,-0.006320968,0.904715657,-0.001329679,-0.000333183,-0.001927877,0.067901805,-0.071724519,9.825521469
1784243450.680392,-0.006398649,-0.006320968,0.904715657,-0.000956712,-0.000668732,-0.001726153,0.070506848,-0.043772992,9.796562195
1784243450.682501,-0.006398649,-0.006320968,0.904715657,-0.001015374,-0.001377261,-0.001636464,0.068307243,-0.040560823,9.789855003
1784243450.684470,-0.006397489,-0.006321183,0.904715657,-0.000581832,-0.001270131,-0.001314173,0.069153197,-0.045436297,9.780857086
1784243450.686407,-0.006397489,-0.006321183,0.904715657,0.000350685,-0.000843622,-0.000282185,0.074316144,-0.062248375,9.804515839
1784243450.688429,-0.006398832,-0.006321907,0.904715657,0.000865566,-0.000675579,0.000540757,0.067013368,-0.073263206,9.791437149
1784243450.690402,-0.006398832,-0.006321907,0.904715657,0.001081388,-0.000490142,-0.000051059,0.065917842,-0.089810371,9.789087296
1784243450.692434,-0.006398832,-0.006321907,0.904715657,0.001438483,-0.000354662,-0.000897062,0.063522257,-0.064334296,9.802249908
1784243450.694408,-0.006398956,-0.006323118,0.904715657,0.001530642,-0.000600126,-0.000865686,0.021010116,-0.053967956,9.807209015
1784243450.696408,-0.006398956,-0.006323118,0.904715657,0.001123790,-0.000941359,0.000058103,0.031578612,-0.070277043,9.813390732
1784243450.698410,-0.006398187,-0.006321659,0.904715657,0.001008496,-0.000981108,0.001580960,0.040844955,-0.049442418,9.765112877
1784243450.700410,-0.006398187,-0.006321659,0.904715657,0.001181866,-0.000826981,0.001735029,0.068946332,-0.060848217,9.806313515
1784243450.702428,-0.006398187,-0.006321659,0.904715657,0.000845277,-0.000253864,0.000892353,0.086059913,-0.055707056,9.808603287
1784243450.705305,-0.006397546,-0.006322775,0.904715657,0.000348089,0.000379253,0.000784723,0.089335181,-0.046581402,9.779524803
1784243450.707218,-0.006397546,-0.006322775,0.904715657,0.000507226,0.000564753,0.000723660,0.067478411,-0.070708379,9.809387207
1784243450.708467,-0.006398745,-0.006323601,0.904715657,0.000659295,0.000576934,0.000118943,0.077530548,-0.055629611,9.813079834
1784243450.710434,-0.006398745,-0.006323601,0.904715657,0.000354249,0.000660296,0.000003099,0.039085243,-0.047116026,9.756159782
1784243450.712461,-0.006398745,-0.006323601,0.904715657,0.000364000,0.000553210,0.000459697,0.018234406,-0.061482027,9.797742844
1784243450.714459,-0.006398314,-0.006321742,0.904715657,0.000622550,0.000170708,0.000105057,0.017621771,-0.074117757,9.811558723
1784243450.716424,-0.006398314,-0.006321742,0.904715657,0.000342337,-0.000081568,-0.000695446,0.075232655,-0.061703797,9.789277077
1784243450.718419,-0.006398215,-0.006323382,0.904715657,-0.000474267,0.000149481,-0.000338572,0.103997298,-0.058453083,9.784394264
1784243450.720443,-0.006398215,-0.006323382,0.904715657,-0.001251058,0.000439443,0.000950749,0.090817191,-0.071363084,9.796402931
1784243450.722423,-0.006398215,-0.006323382,0.904715657,-0.001730355,0.000184975,0.001364047,0.070014067,-0.047357287,9.797433853
1784243450.724433,-0.006398472,-0.006323816,0.904715657,-0.001210253,-0.000128576,0.000492429,0.059696961,-0.047606248,9.788006783
1784243450.726424,-0.006398472,-0.006323816,0.904715657,0.000202321,-0.000080042,-0.000157402,0.052340958,-0.061067563,9.804055214
1784243450.728432,-0.006398524,-0.006323426,0.904715657,0.000579555,-0.000040092,-0.000234668,0.044067759,-0.041946821,9.776371956
1784243450.730425,-0.006398524,-0.006323426,0.904715657,0.000163257,-0.000381520,-0.000294117,0.014630292,-0.061550498,9.813879013
1784243450.732424,-0.006398524,-0.006323426,0.904715657,0.000166772,-0.000599992,0.000060371,0.075522885,-0.074713148,9.790987968
1784243450.734430,-0.006398842,-0.006323360,0.904715657,0.000262606,-0.000350265,0.000988954,0.068565637,-0.056658201,9.784819603
1784243450.736431,-0.006398842,-0.006323360,0.904715657,0.000549872,-0.000186915,0.001376831,0.104339689,-0.027381981,9.824944496
1784243450.738429,-0.006397782,-0.006325425,0.904715598,0.000648525,-0.000369722,0.001170139,0.118943840,-0.046195295,9.797937393
1784243450.740442,-0.006397782,-0.006325425,0.904715598,0.000507665,-0.000087285,0.001129854,0.069976725,-0.049273144,9.814907074
1784243450.742433,-0.006397782,-0.006325425,0.904715598,0.000770841,0.000405278,0.000651391,0.058032259,-0.035208855,9.811847687
1784243450.744439,-0.006396695,-0.006325143,0.904715598,0.001082123,0.000027394,-0.000116270,0.049398158,-0.044468652,9.806401253
1784243450.746464,-0.006396695,-0.006325143,0.904715598,0.000946868,-0.000210091,-0.000332884,0.037756003,-0.078071438,9.827244759
1784243450.748444,-0.006396913,-0.006324456,0.904715598,0.000491490,0.000175406,0.000053414,0.056108035,-0.045933750,9.811328888
1784243450.750439,-0.006396913,-0.006324456,0.904715598,0.000195454,0.000472191,0.000605751,0.054136064,-0.059467230,9.827828407
1784243450.752453,-0.006396913,-0.006324456,0.904715598,-0.000275416,0.000458264,0.000825917,0.089766569,-0.046723876,9.798802376
1784243450.754446,-0.006395881,-0.006325657,0.904715598,-0.001089148,0.000276522,0.000443048,0.077422008,-0.068238936,9.759199142
1784243450.756449,-0.006395881,-0.006325657,0.904715598,-0.001678954,0.000396746,0.000057232,0.072837465,-0.073814526,9.795474052
1784243450.758447,-0.006396355,-0.006326382,0.904715598,-0.001944156,0.000749553,0.000265308,0.037448909,-0.068842560,9.790091515
1784243450.760449,-0.006396355,-0.006326382,0.904715598,-0.001829571,0.001039360,0.000399509,0.054832075,-0.040499631,9.805534363
1784243450.762445,-0.006396355,-0.006326382,0.904715598,-0.001078696,0.000976838,-0.000080849,0.069964290,-0.050181784,9.816694260
1784243450.764450,-0.006395310,-0.006326480,0.904715598,-0.000008713,0.000834772,-0.000286078,0.059571628,-0.093885541,9.806541443
1784243450.766450,-0.006395310,-0.006326480,0.904715598,0.000498613,0.000766779,0.000123787,0.063375294,-0.077652305,9.785129547
1784243450.768459,-0.006395840,-0.006326414,0.904715598,0.000409236,0.000074336,0.000400006,0.076744638,-0.085843563,9.778812408
1784243450.770455,-0.006395840,-0.006326414,0.904715598,-0.000055872,-0.000641558,0.000563312,0.100256801,-0.070540205,9.789692879
1784243450.772454,-0.006395840,-0.006326414,0.904715598,-0.000245732,-0.000733591,0.000829322,0.081546128,-0.059102882,9.790196419
1784243450.774456,-0.006395996,-0.006327841,0.904715598,0.000162065,-0.000551990,0.000610169,0.063430779,-0.035166562,9.796161652
1784243450.776456,-0.006395996,-0.006327841,0.904715598,0.000495540,-0.000506985,-0.000055360,0.072907515,-0.029187541,9.820417404
1784243450.778467,-0.006394929,-0.006328118,0.904715598,0.001120520,-0.000192214,-0.000231133,0.061899789,-0.050792981,9.791128159
1784243450.780468,-0.006394929,-0.006328118,0.904715598,0.001688010,0.000500432,0.000203185,0.056921665,-0.052280296,9.820255280
1784243450.782462,-0.006394929,-0.006328118,0.904715598,0.001160710,0.000996166,0.000680503,0.053660538,-0.062104739,9.821534157
1784243450.784464,-0.006394939,-0.006327855,0.904715598,0.000541570,0.001272386,0.000612186,0.070450798,-0.049078573,9.786663055
1784243450.786466,-0.006394939,-0.006327855,0.904715598,0.000395113,0.001078217,-0.000071115,0.059074078,-0.060728092,9.807201385
1784243450.788471,-0.006395348,-0.006327859,0.904715598,0.000174529,0.000469130,-0.000427264,0.050039381,-0.066360287,9.796397209
1784243450.790479,-0.006395348,-0.006327859,0.904715598,0.000123737,0.000307903,0.000019054,0.047477964,-0.055161741,9.801398277
1784243450.792480,-0.006395348,-0.006327859,0.904715598,-0.000322894,0.000735729,0.000202165,0.052238643,-0.070385709,9.791440964
1784243450.794479,-0.006396606,-0.006326752,0.904715598,-0.001155909,0.000839203,-0.000045496,0.065020673,-0.052612353,9.789325714
1784243450.796479,-0.006396606,-0.006326752,0.904715598,-0.001260386,0.000549294,-0.000245202,0.049639594,-0.062726341,9.790143013
1784243450.798481,-0.006396214,-0.006325528,0.904715598,-0.001028434,0.000459110,-0.000118746,0.034080356,-0.052056670,9.766882896
1784243450.800482,-0.006396214,-0.006325528,0.904715598,-0.000876716,0.000465707,-0.000044300,0.064048477,-0.057649251,9.806330681
1784243450.802484,-0.006396214,-0.006325528,0.904715598,-0.000459731,0.000377434,-0.000026202,0.050161537,-0.093259603,9.798465729
1784243450.804484,-0.006397770,-0.006325092,0.904715598,-0.000088086,-0.000066473,0.000129389,0.060173444,-0.082145721,9.792718887
1784243450.806487,-0.006397770,-0.006325092,0.904715598,0.000126988,-0.000602920,-0.000137627,0.077308372,-0.073999204,9.813411713
1784243450.808486,-0.006398754,-0.006326539,0.904715598,0.000558584,-0.000707144,-0.000582838,0.084876239,-0.079434305,9.808003426
1784243450.810488,-0.006398754,-0.006326539,0.904715598,0.000659118,-0.000422884,-0.000562518,0.061663702,-0.068867229,9.812980652
1784243450.812495,-0.006398754,-0.006326539,0.904715598,0.000391943,0.000198307,0.000031709,0.063020222,-0.067991726,9.813433647
1784243450.814490,-0.006399579,-0.006326815,0.904715657,0.000378730,0.000702990,0.000447124,0.055024266,-0.025608806,9.790385246
1784243450.816490,-0.006399579,-0.006326815,0.904715657,0.000197944,0.000245856,0.000528261,0.060667899,-0.041768812,9.784460068
1784243450.818496,-0.006399164,-0.006327415,0.904715598,-0.000408063,-0.000512920,0.000403724,0.081571631,-0.057685871,9.779894829
1784243450.820499,-0.006399164,-0.006327415,0.904715598,-0.000716999,-0.000526802,0.000262058,0.059821703,-0.074079856,9.793217659
1784243450.822534,-0.006399164,-0.006327415,0.904715598,-0.000523350,-0.000271553,0.000179051,0.095074870,-0.053067494,9.799215317
1784243450.824524,-0.006398750,-0.006329406,0.904715598,-0.000396373,0.000274749,0.000084463,0.085165955,-0.056073569,9.798737526
1784243450.826506,-0.006398750,-0.006329406,0.904715598,-0.000716228,0.000931042,-0.000290540,0.062046796,-0.075875007,9.789622307
1784243450.828514,-0.006399369,-0.006329809,0.904715598,-0.001134299,0.000997711,-0.000656571,0.067084260,-0.067029908,9.796856880
1784243450.830505,-0.006399369,-0.006329809,0.904715598,-0.000645145,0.000858171,-0.000995215,0.066910774,-0.081367843,9.797212601
1784243450.832508,-0.006399369,-0.006329809,0.904715598,0.000107102,0.000590034,-0.001206108,0.068618461,-0.088968024,9.791786194
1784243450.834749,-0.006400163,-0.006331115,0.904715598,0.000469286,-0.000036164,-0.001218023,0.052289110,-0.100687839,9.831148148
1784243450.836600,-0.006400163,-0.006331115,0.904715598,0.000210220,-0.000378155,-0.001317157,0.070790075,-0.054406170,9.842223167
1784243450.838579,-0.006400184,-0.006331990,0.904715598,-0.000498153,-0.000102259,-0.000972084,0.100590780,-0.043182779,9.785385132
1784243450.840569,-0.006400184,-0.006331990,0.904715598,-0.000637953,-0.000159088,-0.000432711,0.065200433,-0.073383294,9.811609268
1784243450.842539,-0.006400184,-0.006331990,0.904715598,-0.000161995,-0.000243602,0.000105309,0.065006405,-0.053130262,9.799186707
1784243450.844547,-0.006400250,-0.006333139,0.904715598,0.000335629,0.000321736,0.000735656,0.069041796,-0.054420959,9.784386635
1784243450.846584,-0.006400250,-0.006333139,0.904715598,0.000388804,0.000451805,0.000723450,0.089932054,-0.070849568,9.788784027
1784243450.848591,-0.006400933,-0.006334750,0.904715598,0.000482843,0.000531172,0.000191057,0.068039775,-0.062529996,9.792403221
1784243450.850548,-0.006400933,-0.006334750,0.904715598,0.000519175,0.000984544,-0.000068270,0.073036440,-0.058059573,9.784814835
1784243450.852542,-0.006400933,-0.006334750,0.904715598,0.000326287,0.001083529,-0.000312980,0.063503392,-0.065293819,9.811211586
1784243450.854530,-0.006400890,-0.006334010,0.904715598,0.000422124,0.001243972,-0.000634796,0.066722855,-0.056203507,9.850275993
1784243450.856573,-0.006400890,-0.006334010,0.904715598,0.000765057,0.001555346,-0.000777458,0.069138579,-0.043930624,9.821217537
1784243450.858547,-0.006400240,-0.006333634,0.904715598,0.000756181,0.001280658,-0.000830436,0.057127248,-0.073657811,9.801735878
1784243450.860554,-0.006400240,-0.006333634,0.904715598,0.000258019,0.000831761,-0.000528213,0.072664447,-0.048532538,9.831950188
1784243450.862547,-0.006400240,-0.006333634,0.904715598,0.000060837,0.000808169,-0.000179730,0.076075219,-0.067011349,9.778036118
1784243450.864544,-0.006400944,-0.006334765,0.904715598,0.000389205,0.000930882,-0.000086801,0.073857084,-0.063945442,9.791953087
1784243450.866540,-0.006400944,-0.006334765,0.904715598,0.000607911,0.000839289,0.000178426,0.100602970,-0.079460643,9.783359528
1784243450.868543,-0.006401848,-0.006336676,0.904715598,0.000568884,0.000776030,0.000154724,0.066010147,-0.081381775,9.800799370
1784243450.870561,-0.006401848,-0.006336676,0.904715598,0.000724084,0.000962730,0.000012683,0.073333636,-0.069798164,9.796846390
1784243450.872563,-0.006401848,-0.006336676,0.904715598,0.000996459,0.000790814,-0.000056151,0.075695507,-0.059571497,9.803637505
1784243450.874548,-0.006402228,-0.006337546,0.904715598,0.001062328,0.000039134,-0.000452982,0.061083354,-0.041631844,9.827501297
1784243450.876549,-0.006402228,-0.006337546,0.904715598,0.000691756,-0.000615923,-0.000093467,0.077444226,-0.063200444,9.806756020
1784243450.878550,-0.006402863,-0.006338235,0.904715598,0.000355844,-0.000341097,0.000930697,0.081460513,-0.065047204,9.807194710
1784243450.880559,-0.006402863,-0.006338235,0.904715598,0.000744717,-0.000233179,0.000937158,0.090357445,-0.071849808,9.802676201
1784243450.882550,-0.006402863,-0.006338235,0.904715598,0.001042774,-0.000530712,0.000614860,0.067760371,-0.048624732,9.790698051
1784243450.884555,-0.006402664,-0.006338584,0.904715598,0.000578110,-0.000184238,0.000725108,0.089599423,-0.059390794,9.816205978
1784243450.886557,-0.006402664,-0.006338584,0.904715598,0.000228658,0.000559021,0.000031912,0.074102953,-0.082168154,9.770762444
1784243450.888590,-0.006403460,-0.006338269,0.904715598,0.000350655,0.000755981,-0.000727120,0.066427134,-0.086095698,9.769834518
1784243450.890568,-0.006403460,-0.006338269,0.904715598,0.000251734,0.000481089,-0.000235691,0.054674100,-0.092710152,9.776057243
1784243450.892563,-0.006403460,-0.006338269,0.904715598,-0.000212879,0.000858383,0.000558147,0.034695596,-0.036158394,9.798369408
1784243450.894559,-0.006402439,-0.006337191,0.904715598,-0.000473156,0.001654926,0.001049222,0.054361548,-0.080282316,9.793173790
1784243450.896561,-0.006402439,-0.006337191,0.904715598,-0.000378434,0.001764486,0.001350638,0.079299517,-0.057882875,9.811722755
1784243450.898566,-0.006401954,-0.006338262,0.904715598,-0.000139225,0.000747833,0.001022824,0.093370631,-0.045845326,9.794776917
1784243450.900564,-0.006401954,-0.006338262,0.904715598,-0.000000319,-0.000007860,0.000368683,0.096981421,-0.043292582,9.807349205
1784243450.902561,-0.006401954,-0.006338262,0.904715598,-0.000417689,0.000004416,0.000020822,0.082834370,-0.061198145,9.830534935
1784243450.904570,-0.006402241,-0.006340429,0.904715598,-0.000504593,0.000099020,0.000093165,0.043099940,-0.043301828,9.842716217
1784243450.906573,-0.006402241,-0.006340429,0.904715598,0.000260604,-0.000041532,0.000561206,0.041634876,-0.056786638,9.788379669
1784243450.908576,-0.006402398,-0.006339846,0.904715598,0.000797146,-0.000360905,0.001099497,0.041945294,-0.105200186,9.791208267
1784243450.910570,-0.006402398,-0.006339846,0.904715598,0.000598282,-0.000009571,0.001223176,0.050276909,-0.083433077,9.802564621
1784243450.912576,-0.006402398,-0.006339846,0.904715598,0.000513349,0.000662806,0.000810240,0.056343481,-0.065049201,9.789686203
1784243450.914575,-0.006402682,-0.006339692,0.904715598,0.000988724,0.000626185,0.000290719,0.072004393,-0.066000454,9.832286835
1784243450.916585,-0.006402682,-0.006339692,0.904715598,0.001370626,0.000527679,-0.000178350,0.069687575,-0.037470959,9.793910980
1784243450.918587,-0.006401351,-0.006339705,0.904715598,0.001488722,0.000744304,-0.000302087,0.076515242,-0.066680424,9.793729782
1784243450.920580,-0.006401351,-0.006339705,0.904715598,0.001008186,0.000367583,-0.000287796,0.077966586,-0.056140557,9.821146965
1784243450.922583,-0.006401351,-0.006339705,0.904715598,-0.000033506,-0.000383716,-0.000551918,0.051592413,-0.048938852,9.800993919
1784243450.924584,-0.006401352,-0.006339133,0.904715598,-0.000700455,-0.000753134,-0.000562672,0.067722343,-0.049330242,9.827009201
1784243450.926582,-0.006401352,-0.006339133,0.904715598,-0.000999506,-0.000483848,-0.000639418,0.074082814,-0.082327135,9.793179512
1784243450.928585,-0.006401740,-0.006339874,0.904715598,-0.000980336,-0.000145131,-0.000874673,0.060661111,-0.077386059,9.815615654
1784243450.930583,-0.006401740,-0.006339874,0.904715598,-0.000863811,-0.000352121,-0.000615176,0.030721724,-0.029924223,9.810958862
1784243450.932593,-0.006401740,-0.006339874,0.904715598,-0.000907212,-0.000680967,-0.000517590,0.050969876,-0.064084291,9.789687157
1784243450.934591,-0.006401945,-0.006338877,0.904715598,-0.001120141,-0.000989905,-0.000555485,0.061848007,-0.053633373,9.812629700
1784243450.936589,-0.006401945,-0.006338877,0.904715598,-0.001725640,-0.000995997,-0.000275706,0.079427592,-0.051198062,9.753482819
1784243450.938592,-0.006401380,-0.006339377,0.904715598,-0.001907738,-0.000428140,0.000076124,0.056992721,-0.048477214,9.789344788
1784243450.940597,-0.006401380,-0.006339377,0.904715598,-0.001423880,0.000228555,0.000713851,0.047036685,-0.054692138,9.799159050
1784243450.942601,-0.006401380,-0.006339377,0.904715598,-0.000875207,0.000417954,0.000996611,0.065847419,-0.094013713,9.813271523
1784243450.944799,-0.006402599,-0.006339354,0.904715598,-0.000494531,0.000238680,0.000135745,0.043739423,-0.104012854,9.810047150
1784243450.946877,-0.006402599,-0.006339354,0.904715598,-0.000599067,-0.000085904,-0.000475023,0.063310966,-0.082618035,9.790476799
1784243450.948648,-0.006403295,-0.006339118,0.904715598,-0.000406396,-0.000348792,-0.000017091,0.047556687,-0.048461407,9.804130554
1784243450.950634,-0.006403295,-0.006339118,0.904715598,0.000043629,-0.000345209,0.000245880,0.062178627,-0.065108046,9.787449837
1784243450.952626,-0.006403295,-0.006339118,0.904715598,-0.000008782,-0.000462500,0.000111246,0.089499563,-0.107089899,9.782275200
1784243450.954622,-0.006405388,-0.006340279,0.904715598,-0.000246446,-0.000512343,0.000428240,0.076877899,-0.075470515,9.769016266
1784243450.956632,-0.006405388,-0.006340279,0.904715598,-0.000199100,-0.000174486,0.000896276,0.073551714,-0.053487137,9.770946503
1784243450.958677,-0.006404552,-0.006341082,0.904715598,0.000306842,0.000140102,0.000985640,0.045252923,-0.054176662,9.792883873
1784243450.960631,-0.006404552,-0.006341082,0.904715598,-0.000050963,0.000053897,0.000921467,0.037409615,-0.033994421,9.804213524
1784243450.962626,-0.006404552,-0.006341082,0.904715598,-0.000655170,-0.000005308,0.000892243,0.060438883,-0.060192451,9.792411804
1784243450.964649,-0.006404551,-0.006340383,0.904715598,-0.000472767,0.000577477,0.000442187,0.060961299,-0.053942639,9.794693947
1784243450.966639,-0.006404551,-0.006340383,0.904715598,-0.000828982,0.000864860,-0.000139941,0.042197440,-0.086188696,9.763534546
1784243450.968640,-0.006405632,-0.006339552,0.904715598,-0.001330922,0.000462864,-0.000242873,0.053494010,-0.078008756,9.790049553
1784243450.970663,-0.006405632,-0.006339552,0.904715598,-0.001547398,0.000635058,-0.000098409,0.054892879,-0.074772626,9.773482323
1784243450.972646,-0.006405632,-0.006339552,0.904715598,-0.001610996,0.001031464,-0.000316442,0.075124696,-0.071066469,9.782940865
1784243450.974646,-0.006405570,-0.006340262,0.904715598,-0.000919019,0.000989734,-0.000710618,0.060852263,-0.062098153,9.807643890
1784243450.976637,-0.006405570,-0.006340262,0.904715598,-0.000378916,0.001046064,-0.000527884,0.078675553,-0.037881281,9.772396088
1784243450.978639,-0.006404318,-0.006340500,0.904715598,-0.000999635,0.001058606,0.000163072,0.053021427,-0.079407305,9.798557281
1784243450.980639,-0.006404318,-0.006340500,0.904715598,-0.001727732,0.000568622,0.000356326,0.048263621,-0.064971156,9.793265343
1784243450.982644,-0.006404318,-0.006340500,0.904715598,-0.001622350,0.000300016,-0.000349823,0.052018095,-0.051152609,9.796496391
1784243450.984645,-0.006403514,-0.006339307,0.904715598,-0.001089094,0.000565959,-0.000626275,0.064085133,-0.054523062,9.807695389
1784243450.986741,-0.006403514,-0.006339307,0.904715598,-0.000725570,0.000234888,-0.000325180,0.056362409,-0.064899765,9.768615723
1784243450.988654,-0.006403044,-0.006339185,0.904715598,-0.000106892,-0.000747412,-0.000217713,0.069750234,-0.069297843,9.795948982
1784243450.990646,-0.006403044,-0.006339185,0.904715598,0.000798216,-0.001181690,0.000151694,0.061193194,-0.071059950,9.807137489
1784243450.992660,-0.006403044,-0.006339185,0.904715598,0.000600015,-0.000535075,0.000460909,0.070674576,-0.065449394,9.820183754
1784243450.994651,-0.006402893,-0.006339138,0.904715598,0.000172273,0.000426671,0.000417676,0.071240142,-0.056832593,9.804547310
1784243450.996647,-0.006402893,-0.006339138,0.904715598,0.000127025,0.000779559,0.000854014,0.061272822,-0.065973386,9.784752846
1784243450.998654,-0.006402685,-0.006339017,0.904715598,-0.000293836,0.000319742,0.001347789,0.043458864,-0.053337239,9.804095268
1784243451.000660,-0.006402685,-0.006339017,0.904715598,-0.000274196,-0.000069203,0.001130059,0.070529290,-0.041974787,9.795676231
1784243451.002658,-0.006402685,-0.006339017,0.904715598,0.000123005,-0.000050910,0.001009837,0.071995996,-0.032124173,9.793947220
1784243451.004662,-0.006401221,-0.006339639,0.904715598,0.000062983,-0.000451340,0.001497054,0.069481865,-0.054900106,9.787970543
1784243451.006655,-0.006401221,-0.006339639,0.904715598,-0.000290624,-0.001078703,0.001362226,0.071705073,-0.055494457,9.804557800
1784243451.008661,-0.006401195,-0.006340396,0.904715598,-0.000778246,-0.001222949,0.000561361,0.040867973,-0.081987530,9.805253983
1784243451.010660,-0.006401195,-0.006340396,0.904715598,-0.001077503,-0.001149195,0.000069284,0.072191685,-0.053174552,9.792468071
1784243451.012665,-0.006401195,-0.006340396,0.904715598,-0.000772161,-0.001208551,-0.000379247,0.057379685,-0.053022984,9.797834396
1784243451.014661,-0.006400554,-0.006341435,0.904715598,-0.000311419,-0.000983488,-0.000848538,0.033310752,-0.076063134,9.804837227
1784243451.016676,-0.006400554,-0.006341435,0.904715598,-0.000134785,-0.000405828,-0.000863426,0.063927516,-0.068330362,9.796397209
1784243451.018672,-0.006400574,-0.006341956,0.904715598,-0.000513328,-0.000052090,-0.000785193,0.080871016,-0.039505105,9.807806015
1784243451.020673,-0.006400574,-0.006341956,0.904715598,-0.001134786,-0.000023773,-0.000874443,0.090544112,-0.058623645,9.769584656
1784243451.022671,-0.006400574,-0.006341956,0.904715598,-0.001082830,-0.000100020,-0.000704524,0.059365176,-0.074541152,9.795905113
1784243451.024674,-0.006401512,-0.006341103,0.904715598,-0.000520182,-0.000107448,-0.000543535,0.078080289,-0.048353519,9.796987534
1784243451.026672,-0.006401512,-0.006341103,0.904715598,-0.000053160,0.000173959,-0.000334308,0.063629575,-0.057408202,9.773154259
1784243451.028676,-0.006401366,-0.006341063,0.904715598,0.000032954,0.000309151,-0.000092422,0.073856458,-0.063545167,9.798678398
1784243451.030675,-0.006401366,-0.006341063,0.904715598,-0.000236024,-0.000094868,0.000423447,0.044890527,-0.084190056,9.792691231
1784243451.032677,-0.006401366,-0.006341063,0.904715598,-0.000254256,-0.000608978,0.001105190,0.042993817,-0.055892069,9.786145210
1784243451.034696,-0.006401177,-0.006339645,0.904715598,0.000027822,-0.000603612,0.000774036,0.080579154,-0.064098448,9.801371574
1784243451.036691,-0.006401177,-0.006339645,0.904715598,-0.000011413,0.000106897,0.000211409,0.072993167,-0.061643254,9.784791946
1784243451.038688,-0.006400393,-0.006340718,0.904715598,0.000067352,0.000620460,0.000271036,0.071154296,-0.027620343,9.792181015
1784243451.040688,-0.006400393,-0.006340718,0.904715598,0.000441689,0.000286984,0.000672071,0.062065739,-0.038135599,9.775069237
1784243451.042684,-0.006400393,-0.006340718,0.904715598,0.000422565,-0.000204348,0.000890167,0.048925579,-0.045867193,9.814908028
1784243451.044688,-0.006398143,-0.006340968,0.904715598,0.000033542,-0.000249039,0.000526693,0.030784216,-0.024567772,9.813682556
1784243451.046692,-0.006398143,-0.006340968,0.904715598,-0.000141835,-0.000336425,0.000207618,0.048249125,-0.030332496,9.773761749
1784243451.048739,-0.006396079,-0.006340410,0.904715598,0.000130877,-0.000082410,0.000302513,0.063489921,-0.068642206,9.778013229
1784243451.050713,-0.006396079,-0.006340410,0.904715598,0.000589479,0.000764809,0.000538212,0.061439805,-0.053713102,9.761519432
1784243451.052706,-0.006396079,-0.006340410,0.904715598,0.000716485,0.000575706,0.000470421,0.084250882,-0.057012040,9.806352615
1784243451.054707,-0.006395373,-0.006341942,0.904715598,0.000168458,-0.000362565,0.000000367,0.056507014,-0.087164029,9.811961174
1784243451.056700,-0.006395373,-0.006341942,0.904715598,-0.000405937,-0.000469773,-0.000086404,0.077460393,-0.098636456,9.812355995
1784243451.058706,-0.006396924,-0.006342461,0.904715598,-0.000224536,-0.000143569,0.000377091,0.078256533,-0.070773222,9.799084663
1784243451.060710,-0.006396924,-0.006342461,0.904715598,-0.000006109,-0.000232398,0.000965787,0.069809087,-0.101559967,9.796190262
1784243451.062708,-0.006396924,-0.006342461,0.904715598,-0.000031135,-0.000671225,0.001085388,0.051884320,-0.059908707,9.830961227
1784243451.064703,-0.006397022,-0.006343096,0.904715598,0.000244431,-0.000649987,0.000831897,0.049660999,-0.060531050,9.796433449
1784243451.066708,-0.006397022,-0.006343096,0.904715598,0.000541900,-0.000059362,0.000614487,0.080936372,-0.072526418,9.788764954
1784243451.068712,-0.006397561,-0.006343931,0.904715598,0.000214337,0.000249448,0.000671186,0.044342000,-0.053866643,9.813956261
1784243451.070750,-0.006397561,-0.006343931,0.904715598,-0.000332310,0.000458517,0.000910483,0.074888840,-0.089544162,9.798513412
1784243451.072724,-0.006397561,-0.006343931,0.904715598,-0.000240336,0.000768303,0.000960101,0.070920385,-0.048108913,9.775461197
1784243451.074765,-0.006397190,-0.006344169,0.904715598,0.000005381,0.000741723,0.000724349,0.060058933,-0.092775971,9.775613785
1784243451.076732,-0.006397190,-0.006344169,0.904715598,-0.000052313,0.000458134,0.000027256,0.048351202,-0.058200859,9.786134720
1784243451.078724,-0.006396866,-0.006343596,0.904715598,-0.000344768,0.000541124,-0.000298836,0.039885819,-0.051134113,9.815762520
1784243451.080721,-0.006396866,-0.006343596,0.904715598,-0.000521205,0.000689854,-0.000319219,0.068374597,-0.073566251,9.768571854
1784243451.082726,-0.006396866,-0.006343596,0.904715598,0.000052689,0.000591308,-0.000117482,0.046725839,-0.081461698,9.783742905
1784243451.084725,-0.006397691,-0.006343795,0.904715598,0.000871176,0.000714521,-0.000185418,0.062948577,-0.075041458,9.796802521
1784243451.086726,-0.006397691,-0.006343795,0.904715598,0.001014698,0.000579710,-0.000977004,0.060964052,-0.090700269,9.797147751
1784243451.088733,-0.006398776,-0.006343749,0.904715598,0.000624675,-0.000037134,-0.001232408,0.065842465,-0.095268562,9.800709724
1784243451.090727,-0.006398776,-0.006343749,0.904715598,0.000920512,-0.000244084,-0.000874642,0.066366263,-0.053849466,9.771835327
1784243451.092733,-0.006398776,-0.006343749,0.904715598,0.001248079,-0.000159407,-0.001045766,0.062680155,-0.059833653,9.800934792
1784243451.094730,-0.006398085,-0.006343274,0.904715598,0.000849410,-0.000714954,-0.002131625,0.097448125,-0.079125077,9.804877281
1784243451.096729,-0.006398085,-0.006343274,0.904715598,0.000484717,-0.001298856,-0.002923779,0.060289342,-0.071099326,9.814311028
1784243451.098733,-0.006398426,-0.006343193,0.904715598,0.000349666,-0.001225195,-0.002920209,0.058681600,-0.055010140,9.822930336
1784243451.100732,-0.006398426,-0.006343193,0.904715598,0.000199726,-0.000744088,-0.002084925,0.067454711,-0.071706042,9.823727608
1784243451.102740,-0.006398426,-0.006343193,0.904715598,-0.000378529,-0.000210882,-0.001097069,0.064258955,-0.076961845,9.812482834
1784243451.104749,-0.006399323,-0.006343437,0.904715598,-0.000910009,-0.000123261,-0.001029143,0.082115151,-0.048027251,9.806857109
1784243451.106754,-0.006399323,-0.006343437,0.904715598,-0.000724843,-0.000641464,-0.001000044,0.067877635,-0.074752130,9.810258865
1784243451.108742,-0.006399795,-0.006343503,0.904715598,-0.000301139,-0.000970743,-0.000544875,0.074266382,-0.030319739,9.788133621
1784243451.110741,-0.006399795,-0.006343503,0.904715598,-0.000583615,-0.000647709,0.000023581,0.079027407,-0.044730455,9.789837837
1784243451.112751,-0.006399795,-0.006343503,0.904715598,-0.001259134,-0.000353984,0.000545586,0.036996871,-0.067242116,9.817898750
1784243451.114744,-0.006402924,-0.006340926,0.904677808,-0.001385367,-0.000404429,0.000370711,0.061353337,-0.060069345,9.773433685
1784243451.116742,-0.006402924,-0.006340926,0.904677808,-0.001133790,-0.000461656,0.000062561,0.074420989,-0.054531284,9.790219307
1784243451.118753,-0.006402872,-0.006341935,0.904677808,-0.001047405,-0.000526816,-0.000077966,0.091285698,-0.069186263,9.804487228
1784243451.120754,-0.006402872,-0.006341935,0.904677808,-0.000727184,-0.000163852,-0.000051281,0.070324786,-0.059394393,9.788391113
1784243451.122755,-0.006402872,-0.006341935,0.904677808,-0.000432408,0.000660974,-0.000534071,0.068761922,-0.039708808,9.795240402
1784243451.124750,-0.006401556,-0.006341871,0.904677808,-0.000492038,0.000854149,-0.001430041,0.069831133,-0.062174987,9.802270889
1784243451.126751,-0.006401556,-0.006341871,0.904677808,-0.000090411,0.000604898,-0.000910843,0.079689018,-0.061192881,9.835463524
1784243451.128761,-0.006401092,-0.006342386,0.904677808,0.000617820,0.000488401,-0.000134450,0.063667670,-0.051839083,9.809056282
1784243451.130757,-0.006401092,-0.006342386,0.904677808,0.000722054,0.000628502,-0.000308381,0.068240769,-0.046759147,9.779503822
1784243451.132758,-0.006401092,-0.006342386,0.904677808,0.000814897,0.000587384,-0.000598325,0.056390725,-0.060623642,9.797336578
1784243451.134764,-0.006400727,-0.006342469,0.904677808,0.001255288,-0.000006778,-0.000451061,0.028256556,-0.049882028,9.786618233
1784243451.136761,-0.006400727,-0.006342469,0.904677808,0.001375499,-0.000476885,0.000215299,0.050107751,-0.058525931,9.828727722
1784243451.138769,-0.006400555,-0.006342286,0.904677808,0.001053985,-0.000255196,0.000414399,0.058617957,-0.061186209,9.809439659
1784243451.140770,-0.006400555,-0.006342286,0.904677808,0.000621892,-0.000124021,-0.000018700,0.063417591,-0.074481599,9.780217171
1784243451.142768,-0.006400555,-0.006342286,0.904677808,0.000466169,-0.000302046,-0.000028598,0.072382495,-0.073453017,9.808477402
1784243451.144769,-0.006401333,-0.006343146,0.904677808,0.000590916,-0.000041200,0.000436092,0.050588094,-0.058687113,9.787479401
1784243451.146774,-0.006401333,-0.006343146,0.904677808,0.000450164,0.000457529,0.000739862,0.079307117,-0.057012394,9.815313339
1784243451.148805,-0.006400887,-0.006344453,0.904677808,-0.000069886,0.000611020,0.000688546,0.103358418,-0.073322266,9.797299385
1784243451.150778,-0.006400887,-0.006344453,0.904677808,-0.000851291,0.000329865,0.000864956,0.076689236,-0.088712573,9.804348946
1784243451.152784,-0.006400887,-0.006344453,0.904677808,-0.001113318,0.000086401,0.000885430,0.047723256,-0.070957422,9.816987991
1784243451.154784,-0.006401743,-0.006343415,0.904677808,-0.000325056,0.000045796,0.000361109,0.060174845,-0.044139590,9.803723335
1784243451.156783,-0.006401743,-0.006343415,0.904677808,0.000285147,0.000032831,0.000141762,0.050966371,-0.062896207,9.811662674
1784243451.158786,-0.006402454,-0.006342962,0.904677808,0.000037828,-0.000384020,0.000123016,0.052521050,-0.083862089,9.795838356
1784243451.160789,-0.006402454,-0.006342962,0.904677808,-0.000109453,-0.000993923,0.000089654,0.076813914,-0.117212951,9.779506683
1784243451.162782,-0.006402454,-0.006342962,0.904677808,0.000148066,-0.001101396,0.000266376,0.073017925,-0.058205836,9.805437088
1784243451.164784,-0.006402608,-0.006343382,0.904677808,0.000212946,-0.000836050,0.000342681,0.052937888,-0.048555832,9.807722092
1784243451.166790,-0.006402608,-0.006343382,0.904677808,0.000154637,-0.000424181,0.000164644,0.043770570,-0.027371390,9.806504250
1784243451.168833,-0.006400392,-0.006343977,0.904677808,0.000203509,0.000017321,0.000288605,0.057882369,-0.046928979,9.822083473
1784243451.170827,-0.006400392,-0.006343977,0.904677808,0.000362851,0.000120408,0.000576458,0.048900135,-0.085684240,9.806584358
1784243451.172807,-0.006400392,-0.006343977,0.904677808,0.000424390,0.000125314,0.000587108,0.076975502,-0.064973816,9.804949760
1784243451.174811,-0.006401099,-0.006344932,0.904677808,0.000185929,0.000672250,0.000543289,0.071117803,-0.067929871,9.790129662
1784243451.176800,-0.006401099,-0.006344932,0.904677808,-0.000219916,0.001325622,0.000440211,0.098016903,-0.070482843,9.785655975
1784243451.178800,-0.006400711,-0.006347843,0.904677689,-0.000702446,0.001140518,-0.000108207,0.091961056,-0.051597524,9.787117004
1784243451.180801,-0.006400711,-0.006347843,0.904677689,-0.000463779,0.000370331,-0.000672792,0.075304583,-0.055867594,9.787522316
1784243451.182813,-0.006400711,-0.006347843,0.904677689,0.000468572,-0.000148576,-0.000486937,0.066966362,-0.040502239,9.784025192
1784243451.184807,-0.006399454,-0.006349722,0.904677689,0.001006221,-0.000237192,-0.000332104,0.044000138,-0.083717875,9.790900230
1784243451.186805,-0.006399454,-0.006349722,0.904677689,0.001274524,-0.000099771,-0.000651624,0.039777350,-0.096469775,9.827576637
1784243451.188812,-0.006401378,-0.006348665,0.904677689,0.001112685,0.000260166,-0.001533376,0.044609446,-0.069487445,9.804889679
1784243451.190811,-0.006401378,-0.006348665,0.904677689,0.000579654,0.000633630,-0.001977193,0.081480771,-0.063671522,9.802720070
1784243451.192820,-0.006401378,-0.006348665,0.904677689,0.000653669,0.000478427,-0.000948270,0.101299800,-0.057649855,9.802330017
1784243451.194824,-0.006401416,-0.006350473,0.904677689,0.001084934,0.000197861,0.000035630,0.101317748,-0.057913397,9.776324272
1784243451.196819,-0.006401416,-0.006350473,0.904677689,0.001115473,0.000360942,0.000031915,0.073843576,-0.063646927,9.813026428
1784243451.198823,-0.006401776,-0.006351720,0.904677689,0.000850813,0.000681382,-0.000060382,0.057435613,-0.048934098,9.789790154
1784243451.200818,-0.006401776,-0.006351720,0.904677689,0.000562848,0.000483643,-0.000094070,0.014377106,-0.083001755,9.806567192
1784243451.202823,-0.006401776,-0.006351720,0.904677689,0.000493178,-0.000146014,-0.000427975,0.038327787,-0.069000326,9.810715675
1784243451.204836,-0.006403154,-0.006349574,0.904677689,0.000790892,-0.000193271,-0.000866945,0.048725385,-0.064468525,9.784751892
1784243451.206827,-0.006403154,-0.006349574,0.904677689,0.000973564,-0.000047336,-0.001185780,0.082302049,-0.069957659,9.803129196
1784243451.208827,-0.006403028,-0.006351817,0.904677689,0.000959706,-0.000085315,-0.001112204,0.069822975,-0.028702153,9.757652283
1784243451.210862,-0.006403028,-0.006351817,0.904677689,0.000664410,0.000425529,-0.000315934,0.071715422,-0.056628484,9.774959564
1784243451.212832,-0.006403028,-0.006351817,0.904677689,0.000612959,0.000798345,-0.000132735,0.055406149,-0.067379251,9.804017067
1784243451.214833,-0.006403130,-0.006351576,0.904677689,0.000988381,0.000655488,-0.000650795,0.051057398,-0.056503925,9.794667244
1784243451.216900,-0.006403130,-0.006351576,0.904677689,0.000902103,0.000839964,-0.000485606,0.067651443,-0.058400381,9.779428482
1784243451.218881,-0.006402548,-0.006351864,0.904677689,0.000494091,0.001008870,0.000482812,0.070652485,-0.031681225,9.797086716
1784243451.220853,-0.006402548,-0.006351864,0.904677689,0.000588408,0.000621836,0.001492955,0.059972584,-0.059109908,9.830077171
1784243451.222875,-0.006402548,-0.006351864,0.904677689,0.000969281,0.000523817,0.001038935,0.036113560,-0.067119323,9.802206039
1784243451.224851,-0.006402956,-0.006351081,0.904677689,0.000890705,0.000820440,0.000023702,0.032495290,-0.069325857,9.803982735
1784243451.226843,-0.006402956,-0.006351081,0.904677689,0.000668514,0.000980102,-0.000030492,0.086894020,-0.061081368,9.806777000
1784243451.228843,-0.006402554,-0.006353147,0.904677689,0.000305784,0.000953479,0.000109430,0.114467397,-0.082428388,9.797699928
1784243451.230847,-0.006402554,-0.006353147,0.904677689,0.000112061,0.000701215,-0.000096704,0.087893777,-0.090174757,9.800763130
1784243451.232850,-0.006402554,-0.006353147,0.904677689,0.000329575,0.000296037,0.000005192,0.073086448,-0.052801684,9.801437378
1784243451.234857,-0.006402567,-0.006353410,0.904677689,0.000288313,-0.000016638,0.000349783,0.082838498,-0.062786490,9.801830292
1784243451.236847,-0.006402567,-0.006353410,0.904677689,0.000259858,-0.000170336,0.000258246,0.055714216,-0.079031996,9.803942680
1784243451.238858,-0.006403985,-0.006353303,0.904677689,0.000476328,-0.000174319,-0.000222651,0.069261298,-0.073256977,9.786507607
1784243451.240851,-0.006403985,-0.006353303,0.904677689,0.000669599,-0.000266605,-0.000735888,0.059154123,-0.055638362,9.784369469
1784243451.242852,-0.006403985,-0.006353303,0.904677689,0.000990037,-0.000356205,-0.000712474,0.014903600,-0.077530228,9.792256355
1784243451.244856,-0.006405282,-0.006351798,0.904677689,0.000935240,-0.000205699,-0.000153120,0.046194863,-0.051405005,9.779452324
1784243451.246895,-0.006405282,-0.006351798,0.904677689,0.000840436,-0.000272136,-0.000288258,0.072312586,-0.041683365,9.814508438
1784243451.248902,-0.006404656,-0.006352395,0.904677689,0.000880413,-0.000320273,-0.000621204,0.091690607,-0.073995583,9.786973000
1784243451.250885,-0.006404656,-0.006352395,0.904677689,0.000602097,-0.000212237,-0.000177473,0.064205334,-0.044658381,9.806411743
1784243451.252870,-0.006404656,-0.006352395,0.904677689,0.001085949,-0.000159490,0.000236985,0.053300347,-0.054105639,9.831447601
1784243451.254876,-0.006403804,-0.006352452,0.904677689,0.001784343,0.000073861,0.000432238,0.066931374,-0.041588943,9.810917854
1784243451.256864,-0.006403804,-0.006352452,0.904677689,0.001604390,0.000089399,0.000554471,0.067793056,-0.046340410,9.784437180
1784243451.258878,-0.006403378,-0.006352905,0.904677689,0.001257907,0.000142027,0.000156006,0.069909789,-0.057501409,9.774952888
1784243451.260867,-0.006403378,-0.006352905,0.904677689,0.001427497,0.000699121,-0.000347333,0.046300277,-0.078031242,9.806180954
1784243451.262877,-0.006403378,-0.006352905,0.904677689,0.001729645,0.000939932,-0.000534128,0.067951627,-0.069710091,9.794151306
1784243451.264871,-0.006403693,-0.006353357,0.904677689,0.001744668,0.000559154,-0.000601423,0.079464428,-0.082418375,9.796321869
1784243451.266886,-0.006403693,-0.006353357,0.904677689,0.001551343,-0.000097340,-0.000111330,0.085872494,-0.072586492,9.788322449
1784243451.268886,-0.006403819,-0.006354733,0.904677689,0.001070097,-0.000266486,0.000337139,0.056425761,-0.060347017,9.758333206
1784243451.270884,-0.006403819,-0.006354733,0.904677689,0.000740499,-0.000242509,0.000105091,0.072069995,-0.061835259,9.813484192
1784243451.272891,-0.006403819,-0.006354733,0.904677689,0.000391310,-0.000330422,-0.000299388,0.060871117,-0.063975476,9.756521225
1784243451.274886,-0.006403895,-0.006354413,0.904677689,0.000177830,0.000089743,-0.000374662,0.103397727,-0.070580453,9.789696693
1784243451.276892,-0.006403895,-0.006354413,0.904677689,0.000602125,0.000620357,0.000096177,0.084043629,-0.075263977,9.790095329
1784243451.278896,-0.006404638,-0.006354580,0.904677689,0.001179442,0.000733913,0.000456134,0.090113714,-0.055231344,9.797403336
1784243451.280888,-0.006404638,-0.006354580,0.904677689,0.001075257,0.000733628,0.000500442,0.076351248,-0.043758702,9.784012794
1784243451.282891,-0.006404638,-0.006354580,0.904677689,0.000531550,0.000954233,0.000569310,0.083781414,-0.059601851,9.793334961
1784243451.284891,-0.006404244,-0.006354846,0.904677689,0.000532365,0.001020998,0.000565432,0.069794998,-0.101671256,9.811880112
1784243451.286893,-0.006404244,-0.006354846,0.904677689,0.000617595,0.000528968,0.000523625,0.038875572,-0.062550195,9.784753799
1784243451.288899,-0.006403948,-0.006354077,0.904677689,0.000007911,-0.000091993,0.000454535,0.078023434,-0.053665455,9.787985802
1784243451.290901,-0.006403948,-0.006354077,0.904677689,-0.000525618,-0.000348280,0.000874502,0.069779426,-0.028235475,9.818179131
1784243451.292901,-0.006403948,-0.006354077,0.904677689,-0.000478003,-0.000288582,0.001326923,0.055488780,-0.059026979,9.826487541
1784243451.294909,-0.006403746,-0.006353526,0.904677689,-0.000240041,-0.000043538,0.000719260,0.042550068,-0.054631468,9.798707008
1784243451.296905,-0.006403746,-0.006353526,0.904677689,0.000077149,-0.000061137,-0.000283887,0.062687747,-0.058963165,9.804526329
1784243451.298910,-0.006404130,-0.006353738,0.904677689,0.000232280,-0.000274894,-0.000402148,0.093435705,-0.077653140,9.794124603
1784243451.300912,-0.006404130,-0.006353738,0.904677689,-0.000192760,0.000076288,-0.000016983,0.067061536,-0.067614585,9.816130638
1784243451.302910,-0.006404130,-0.006353738,0.904677689,-0.000827584,0.000248730,-0.000242826,0.054312237,-0.083913706,9.799875259
1784243451.304918,-0.006405139,-0.006353693,0.904677689,-0.000572437,-0.000260147,-0.000933248,0.036898021,-0.074101433,9.837580681
1784243451.306922,-0.006405139,-0.006353693,0.904677689,0.000424705,-0.000750480,-0.000966244,0.038138192,-0.048712324,9.793360710
1784243451.308915,-0.006405069,-0.006352914,0.904677689,0.000646212,-0.000941352,-0.000809638,0.059447516,-0.067812189,9.794603348
1784243451.310924,-0.006405069,-0.006352914,0.904677689,-0.000036344,-0.000601439,-0.001001106,0.057427317,-0.086184219,9.798518181
1784243451.312933,-0.006405069,-0.006352914,0.904677689,-0.000080882,-0.000269366,-0.001031087,0.091838658,-0.099474691,9.778289795
1784243451.314936,-0.006407083,-0.006354447,0.904677689,0.000388865,-0.000463190,-0.001325335,0.078285351,-0.068114065,9.803136826
1784243451.316926,-0.006407083,-0.006354447,0.904677689,0.000551749,-0.000388679,-0.001177739,0.074027114,-0.052066337,9.759299278
1784243451.318965,-0.006406954,-0.006355134,0.904677689,0.000585553,0.000310724,-0.000452996,0.050090536,-0.063119642,9.781622887
1784243451.320984,-0.006406954,-0.006355134,0.904677689,0.000643998,0.000603877,0.000073821,0.087561443,-0.042339522,9.816313744
1784243451.322948,-0.006406954,-0.006355134,0.904677689,0.000467045,0.000620704,0.000636674,0.065701969,-0.033355772,9.789450645
1784243451.324940,-0.006406099,-0.006354942,0.904677689,0.000283641,0.000527880,0.000666947,0.064637184,-0.045607742,9.813131332
1784243451.326934,-0.006406099,-0.006354942,0.904677689,0.000508703,-0.000093615,-0.000613246,0.078066655,-0.049271699,9.800119400
1784243451.328947,-0.006405247,-0.006356052,0.904677689,0.000401533,-0.000525777,-0.001492014,0.074100837,-0.042973939,9.803743362
1784243451.330945,-0.006405247,-0.006356052,0.904677689,-0.000291827,-0.000642951,-0.000994799,0.090778649,-0.073288471,9.815219879
1784243451.332942,-0.006405247,-0.006356052,0.904677689,-0.000796782,-0.000675421,-0.000451771,0.056811638,-0.063685626,9.786108971
1784243451.334939,-0.006405322,-0.006356051,0.904677689,-0.000693835,-0.000737273,-0.000524992,0.051700294,-0.076356076,9.812923431
1784243451.336970,-0.006405322,-0.006356051,0.904677689,-0.000418320,-0.000640278,-0.000613326,0.058067691,-0.069682181,9.808039665
1784243451.338949,-0.006405500,-0.006355797,0.904677689,-0.000065740,0.000042266,-0.000926752,0.051923104,-0.058386758,9.805864334
1784243451.340986,-0.006405500,-0.006355797,0.904677689,-0.000477216,0.000513246,-0.001571479,0.045862805,-0.039536417,9.812256813
1784243451.342956,-0.006405500,-0.006355797,0.904677689,-0.001177686,0.000695579,-0.001537238,0.094257616,-0.046749566,9.794322968
1784243451.344956,-0.006404602,-0.006357078,0.904677689,-0.000638857,0.001098439,-0.000426013,0.041976206,-0.065745249,9.787425041
1784243451.346957,-0.006404602,-0.006357078,0.904677689,-0.000227725,0.001428049,0.000329578,0.060386349,-0.063849263,9.802699089
1784243451.348984,-0.006405045,-0.006357373,0.904677689,-0.000488760,0.001393971,-0.000386028,0.055514790,-0.059226930,9.791516304
1784243451.351003,-0.006405045,-0.006357373,0.904677689,-0.000229339,0.001060636,-0.001287431,0.038926896,-0.058902923,9.775811195
1784243451.352995,-0.006405045,-0.006357373,0.904677689,0.000141390,0.000993291,-0.001527636,0.045389533,-0.042561468,9.797442436
1784243451.354969,-0.006404715,-0.006356716,0.904677689,0.000065981,0.000855415,-0.001288475,0.071983337,-0.032629367,9.802014351
1784243451.357011,-0.006404715,-0.006356716,0.904677689,0.000007644,0.000518807,-0.000754533,0.055619963,-0.088286564,9.782363892
1784243451.358981,-0.006406891,-0.006356015,0.904677689,-0.000306457,0.000292971,-0.000113160,0.081056051,-0.098634757,9.805634499
1784243451.360971,-0.006406891,-0.006356015,0.904677689,-0.000662546,0.000005489,0.000082408,0.017239010,-0.069133565,9.804417610
1784243451.362973,-0.006406891,-0.006356015,0.904677689,-0.000628563,-0.000021575,-0.000676230,0.052702539,-0.068650492,9.798625946
1784243451.364974,-0.006405781,-0.006355268,0.904677689,-0.000296762,-0.000045376,-0.001102063,0.037921377,-0.065823875,9.805803299
1784243451.366970,-0.006405781,-0.006355268,0.904677689,0.000195741,-0.000123844,-0.000690147,0.080906406,-0.073168352,9.816109657
1784243451.368972,-0.006406633,-0.006357100,0.904677689,0.000558163,0.000143271,-0.000442414,0.074745230,-0.064030074,9.802264214
1784243451.370970,-0.006406633,-0.006357100,0.904677689,0.000220083,-0.000072175,0.000150008,0.027799519,-0.048726358,9.813972473
1784243451.372967,-0.006406633,-0.006357100,0.904677689,-0.000428456,-0.000621324,0.000669016,0.075177409,-0.067003027,9.778483391
1784243451.374966,-0.006407378,-0.006357880,0.904677689,-0.000551117,-0.000589069,0.000382155,0.109406240,-0.054681204,9.811324120
1784243451.376973,-0.006407378,-0.006357880,0.904677689,0.000087550,-0.000140998,0.000104495,0.092072517,-0.040586095,9.813639641
1784243451.378978,-0.006405714,-0.006359127,0.904677689,0.000881119,0.000556761,0.000410263,0.030584073,-0.078732304,9.807059288
1784243451.380983,-0.006405714,-0.006359127,0.904677689,0.000934167,0.001051294,0.000866775,0.048505925,-0.081195705,9.806162834
1784243451.382984,-0.006405714,-0.006359127,0.904677689,0.000481986,0.001059963,0.000691150,0.074389175,-0.054782484,9.825636864
1784243451.384980,-0.006406382,-0.006359500,0.904677689,0.000477616,0.000991773,0.000400844,0.074661344,-0.068744972,9.835410118
1784243451.386984,-0.006406382,-0.006359500,0.904677689,0.000891773,0.001081480,0.000208850,0.059835751,-0.070321664,9.831799507
1784243451.388983,-0.006406616,-0.006359521,0.904677689,0.000761224,0.001330709,0.000195685,0.069477260,-0.055341706,9.787071228
1784243451.390984,-0.006406616,-0.006359521,0.904677689,0.000463584,0.001277586,0.000653812,0.070541710,-0.041066151,9.793889046
1784243451.392987,-0.006406616,-0.006359521,0.904677689,0.000604400,0.000909938,0.001166807,0.052939788,-0.049756631,9.787539482
1784243451.394989,-0.006405185,-0.006358013,0.904677689,0.000688430,0.000536087,0.001251069,0.084364921,-0.086001717,9.787337303
1784243451.396986,-0.006405185,-0.006358013,0.904677689,0.000496211,0.000178138,0.001040796,0.073639452,-0.083900191,9.763130188
1784243451.398990,-0.006405995,-0.006358246,0.904677689,0.000176165,0.000061317,0.001213063,0.043422841,-0.056863692,9.796002388
1784243451.400998,-0.006405995,-0.006358246,0.904677689,-0.000542830,0.000162331,0.001194408,0.020933239,-0.061059020,9.796402931
1784243451.403006,-0.006405995,-0.006358246,0.904677689,-0.000989502,0.000544837,0.000568901,0.062138755,-0.068259679,9.789670944
1784243451.404997,-0.006406066,-0.006357586,0.904677689,-0.000787717,0.001052679,-0.000029075,0.057358675,-0.055215098,9.791095734
1784243451.406998,-0.006406066,-0.006357586,0.904677689,-0.000935274,0.000992283,-0.000214835,0.075635776,-0.066932462,9.767724037
1784243451.408996,-0.006406277,-0.006357823,0.904677689,-0.001137301,0.000571210,-0.000334358,0.063526914,-0.064702772,9.791041374
1784243451.411000,-0.006406277,-0.006357823,0.904677689,-0.000612185,0.000598313,-0.000274086,0.060573760,-0.049806677,9.780820847
1784243451.413003,-0.006406277,-0.006357823,0.904677689,0.000511587,0.000662513,0.000023972,0.053017635,-0.079842545,9.796761513
1784243451.415016,-0.006406111,-0.006356949,0.904677689,0.001522833,0.000131121,0.000256240,0.080553621,-0.064705394,9.823784828
1784243451.417004,-0.006406111,-0.006356949,0.904677689,0.001391818,-0.000298863,0.000134999,0.059284106,-0.044480663,9.790268898
1784243451.419006,-0.006405389,-0.006356628,0.904677689,0.000866176,-0.000300481,-0.000114738,0.064755812,-0.074155815,9.795015335
1784243451.421006,-0.006405389,-0.006356628,0.904677689,0.000916157,-0.000308873,0.000119171,0.060258385,-0.074991062,9.794557571
1784243451.423015,-0.006405389,-0.006356628,0.904677689,0.001311165,-0.000606507,0.000234362,0.054554943,-0.065381959,9.776681900
1784243451.425017,-0.006405732,-0.006355866,0.904677689,0.001383665,-0.000781691,-0.000223388,0.058829997,-0.044922881,9.790266037
1784243451.427016,-0.006405732,-0.006355866,0.904677689,0.000500578,-0.000485902,-0.000447671,0.066193998,-0.065341026,9.813007355
1784243451.429017,-0.006406045,-0.006356364,0.904677689,-0.000433575,-0.000236269,0.000201001,0.067121141,-0.064307161,9.791942596
1784243451.431018,-0.006406045,-0.006356364,0.904677689,-0.000610864,-0.000312493,0.000781224,0.064062916,-0.056724709,9.802301407
1784243451.433016,-0.006406045,-0.006356364,0.904677689,-0.000231863,-0.000386076,0.000320079,0.032939497,-0.071393341,9.778862953
1784243451.435023,-0.006406583,-0.006355094,0.904677689,0.000117919,-0.000419487,-0.000503030,0.032121282,-0.062651560,9.811199188
1784243451.437019,-0.006406583,-0.006355094,0.904677689,-0.000281917,-0.000708969,-0.000744137,0.051230591,-0.043789316,9.770539284
1784243451.439028,-0.006405040,-0.006355118,0.904677689,-0.001131638,-0.000681171,-0.000702717,0.080306359,-0.052572530,9.756165504
1784243451.441023,-0.006405040,-0.006355118,0.904677689,-0.001583975,-0.000215062,-0.000290706,0.080237709,-0.056356531,9.784384727
1784243451.443022,-0.006405040,-0.006355118,0.904677689,-0.001299300,0.000134099,0.000299298,0.047534645,-0.050256435,9.804568291
1784243451.445025,-0.006404645,-0.006355317,0.904677689,-0.000890161,0.000551154,0.000260990,0.067499645,-0.068919703,9.809846878
1784243451.447033,-0.006404645,-0.006355317,0.904677689,-0.000408736,0.001052095,0.000053954,0.082713164,-0.074312650,9.784720421
1784243451.449047,-0.006405386,-0.006355797,0.904677689,0.000068055,0.001379446,-0.000060775,0.061049741,-0.082729191,9.810201645
1784243451.451035,-0.006405386,-0.006355797,0.904677689,-0.000094144,0.001352428,0.000015824,0.069426924,-0.058576006,9.800948143
1784243451.453036,-0.006405386,-0.006355797,0.904677689,-0.000380350,0.000970921,0.000665053,0.060333364,-0.066699192,9.825546265
1784243451.455039,-0.006406077,-0.006355126,0.904677689,-0.000662317,0.000708358,0.001697584,0.050189428,-0.012996668,9.852780342
1784243451.457035,-0.006406077,-0.006355126,0.904677689,-0.000794863,0.000395173,0.001654928,0.029260073,-0.040140133,9.801028252
1784243451.459040,-0.006406136,-0.006353985,0.904677689,-0.000405527,-0.000264000,0.000611324,0.022671485,-0.064770631,9.811176300
1784243451.461042,-0.006406136,-0.006353985,0.904677689,-0.000029143,-0.000511654,-0.000075281,0.053190488,-0.065104343,9.803132057
1784243451.463047,-0.006406136,-0.006353985,0.904677689,-0.000001194,-0.000094331,-0.000753044,0.065946110,-0.049971055,9.794275284
1784243451.465048,-0.006405881,-0.006354420,0.904677689,0.000057621,0.000425149,-0.001227475,0.049297057,-0.088530399,9.828085899
1784243451.467049,-0.006405881,-0.006354420,0.904677689,0.000620043,0.000470897,-0.001068669,0.031876788,-0.081602655,9.830354691
1784243451.469052,-0.006405661,-0.006353144,0.904677689,0.000936527,0.000270466,-0.000828069,0.043922652,-0.049981870,9.835500717
1784243451.471053,-0.006405661,-0.006353144,0.904677689,0.000231181,0.000512861,-0.000706273,0.050413173,-0.072631136,9.795460701
1784243451.473053,-0.006405661,-0.006353144,0.904677689,-0.000277219,0.001175806,-0.000687035,0.048771247,-0.060459141,9.787915230
1784243451.475054,-0.006405571,-0.006352555,0.904677689,-0.000362062,0.001348583,-0.000493776,0.048951872,-0.044443823,9.803709984
1784243451.477050,-0.006405571,-0.006352555,0.904677689,-0.000611054,0.000952609,-0.000049313,0.048951872,-0.044443823,9.803709984
1784243451.479053,-0.006404715,-0.006354309,0.904677689,-0.000121770,0.000661341,-0.000446549,0.086898848,-0.061043207,9.801398277
1784243451.481054,-0.006404715,-0.006354309,0.904677689,0.000905341,0.000446351,-0.001456954,0.086898848,-0.061043207,9.801398277
1784243451.483056,-0.006404715,-0.006354309,0.904677689,0.000822925,0.000476246,-0.001796164,0.060743559,-0.072277248,9.790092468
1784243451.485054,-0.006404715,-0.006354309,0.904677689,-0.000067770,0.000684538,-0.001646415,0.060743559,-0.072277248,9.790092468
1784243451.487110,-0.006406048,-0.006354045,0.904677689,-0.000635052,0.000095327,-0.001198340,0.059130576,-0.059066247,9.762378693
1784243451.489064,-0.006406048,-0.006353561,0.904677689,-0.001029344,-0.000244337,-0.000835288,0.089964099,-0.068164989,9.789250374
1784243451.491065,-0.006406048,-0.006353561,0.904677689,-0.001144618,0.000317549,-0.000764597,0.076516159,-0.065457352,9.810772896
1784243451.493068,-0.006406222,-0.006353843,0.904677689,-0.000400801,0.000393080,-0.000569228,0.083328232,-0.058821004,9.810376167
1784243451.495068,-0.006406222,-0.006353843,0.904677689,0.000333784,-0.000199732,-0.000791244,0.083161645,-0.073914953,9.791000366
1784243451.497074,-0.006406676,-0.006354441,0.904677689,0.000343018,-0.000735021,-0.000773874,0.056703519,-0.070618086,9.816102982
1784243451.499072,-0.006406676,-0.006354441,0.904677689,0.000116531,-0.000872794,-0.000381098,0.051019195,-0.057616066,9.825147629
1784243451.501078,-0.006406676,-0.006354441,0.904677689,0.000186981,-0.000957147,-0.000184760,0.032403056,-0.040974546,9.786680222
1784243451.503082,-0.006405595,-0.006353157,0.904677689,0.000584064,-0.000876559,-0.000329218,0.050477110,-0.030078623,9.797079086
1784243451.505083,-0.006405595,-0.006353157,0.904677689,0.000515974,-0.000470686,-0.000649710,0.062900655,-0.043503553,9.772344589
1784243451.507074,-0.006404836,-0.006353731,0.904677689,0.000017829,0.000276152,-0.000285674,0.068258502,-0.043782402,9.801939011
1784243451.509084,-0.006404836,-0.006353731,0.904677689,-0.000402789,0.000479406,-0.000112727,0.049196247,-0.061462559,9.802255630
1784243451.511080,-0.006404836,-0.006353731,0.904677689,-0.000044622,0.000171657,-0.000204843,0.069536470,-0.049200613,9.805492401
1784243451.513089,-0.006404086,-0.006353069,0.904677689,0.000704243,0.000064214,0.000379343,0.083100557,-0.041265283,9.799280167
1784243451.515080,-0.006404086,-0.006353069,0.904677689,0.000797255,0.000041943,0.001273856,0.048638843,-0.071635909,9.784705162
1784243451.517083,-0.006404645,-0.006351696,0.904677689,0.000577653,0.000103691,0.001456130,0.042727809,-0.075418308,9.823231697
1784243451.519086,-0.006404645,-0.006351696,0.904677689,0.000491687,0.000117192,0.000722371,0.044105269,-0.074377470,9.800374985
1784243451.521091,-0.006404645,-0.006351696,0.904677689,0.000789329,-0.000072746,-0.000155691,0.039213687,-0.068697408,9.829547882
1784243451.523088,-0.006405056,-0.006350379,0.904677689,0.001369649,-0.000000149,-0.000613078,0.059027765,-0.063930586,9.816596031
1784243451.525090,-0.006405056,-0.006350379,0.904677689,0.001613667,0.000357441,-0.000421364,0.065968938,-0.085759640,9.786424637
1784243451.527087,-0.006406147,-0.006350136,0.904677689,0.001226875,0.000421058,0.000528636,0.062505178,-0.072967611,9.821024895
1784243451.529100,-0.006406147,-0.006350136,0.904677689,0.000655310,0.000434196,0.001274210,0.074276216,-0.029836802,9.783204079
1784243451.531091,-0.006406147,-0.006350136,0.904677689,0.000983090,0.000583167,0.001259706,0.062361326,-0.049886901,9.788891792
1784243451.533094,-0.006405876,-0.006350813,0.904677689,0.001364733,0.000510601,0.001176151,0.056100100,-0.047617488,9.796075821
1784243451.535095,-0.006405876,-0.006350813,0.904677689,0.000500876,0.000235175,0.001256642,0.066099286,-0.073788702,9.803986549
1784243451.537100,-0.006406310,-0.006350899,0.904677689,-0.000748503,-0.000462540,0.001275421,0.069758639,-0.068420999,9.798644066
1784243451.539110,-0.006406310,-0.006350899,0.904677689,-0.001337157,-0.001281821,0.001540605,0.066994272,-0.073819272,9.806677818
1784243451.541106,-0.006406310,-0.006350899,0.904677689,-0.000943793,-0.001130450,0.001558745,0.037598528,-0.053072080,9.840404510
1784243451.543103,-0.006406665,-0.006349607,0.904677689,-0.000543834,-0.000781323,0.000580621,0.071855597,-0.044174608,9.787593842
1784243451.545106,-0.006406665,-0.006349607,0.904677689,-0.000672839,-0.001024108,-0.000514457,0.090809844,-0.035047043,9.793049812
1784243451.547141,-0.006405903,-0.006351562,0.904677689,-0.001054835,-0.000914642,-0.000534845,0.059650522,-0.052025445,9.779461861
1784243451.549123,-0.006405903,-0.006351562,0.904677689,-0.001639363,-0.000531254,0.000372151,0.074358568,-0.023107842,9.781901360
1784243451.551112,-0.006405903,-0.006351562,0.904677689,-0.001418553,-0.000707252,0.000760601,0.041118920,-0.060148731,9.821086884
1784243451.553115,-0.006405666,-0.006350696,0.904677689,-0.000552726,-0.001018409,0.000285507,0.047522791,-0.050755262,9.811738014
1784243451.555115,-0.006405666,-0.006350696,0.904677689,-0.000158743,-0.001456971,-0.000314875,0.051263329,-0.077068195,9.787811279
1784243451.557113,-0.006405940,-0.006350701,0.904677689,-0.000379514,-0.001844973,-0.000428503,0.069145419,-0.081466533,9.807079315
1784243451.559123,-0.006405940,-0.006350701,0.904677689,-0.000662807,-0.001643318,-0.000021378,0.082898222,-0.058262367,9.795582771
1784243451.561123,-0.006405940,-0.006350701,0.904677689,-0.000375473,-0.001049987,-0.000010349,0.088670306,-0.061250634,9.827402115
1784243451.563117,-0.006405345,-0.006351710,0.904677689,0.000143559,-0.000492552,-0.000416316,0.073439002,-0.060861196,9.800041199
1784243451.565121,-0.006405345,-0.006351710,0.904677689,-0.000133543,-0.000388044,-0.000281536,0.100274071,-0.066756561,9.824687004
1784243451.567127,-0.006405282,-0.006353281,0.904677689,-0.000699490,-0.000436858,0.000284721,0.061737135,-0.026645027,9.798007965
1784243451.569126,-0.006405282,-0.006353281,0.904677689,-0.000711951,-0.000296406,0.000644695,0.054828282,-0.040934876,9.803738594
1784243451.571154,-0.006405282,-0.006353281,0.904677689,-0.000901081,-0.000260270,0.000274463,0.047017813,-0.055651654,9.808117867
1784243451.573135,-0.006404421,-0.006352188,0.904677689,-0.001034548,0.000074541,-0.000408712,0.050432093,-0.072481699,9.774389267
1784243451.575132,-0.006404421,-0.006352188,0.904677689,-0.000894515,0.000514102,-0.000941035,0.065353610,-0.062447809,9.785676956
1784243451.577130,-0.006403874,-0.006351945,0.904677689,-0.001049448,0.000564775,-0.000951649,0.043807037,-0.062241789,9.795520782
1784243451.579131,-0.006403874,-0.006351945,0.904677689,-0.001583233,0.000260703,-0.000384291,0.064404018,-0.065279879,9.807624817
1784243451.581131,-0.006403874,-0.006351945,0.904677689,-0.002084377,-0.000354366,-0.000171918,0.062768258,-0.051843483,9.811297417
1784243451.583136,-0.006403329,-0.006352596,0.904677689,-0.001830662,-0.000501130,-0.000339478,0.045090549,-0.065995350,9.817018509
1784243451.585134,-0.006403329,-0.006352596,0.904677689,-0.001169751,-0.000002757,-0.000204689,0.064905442,-0.023632212,9.809687614
1784243451.587139,-0.006401717,-0.006353108,0.904677689,-0.000956248,0.000738962,0.000256224,0.070813365,-0.053411677,9.828330994
1784243451.589144,-0.006401717,-0.006353108,0.904677689,-0.000839534,0.000975388,0.000319462,0.051433016,-0.063165493,9.785657883
1784243451.591142,-0.006401717,-0.006353108,0.904677689,-0.000417303,0.000515343,0.000145921,0.051503565,-0.057745446,9.779416084
1784243451.593143,-0.006400927,-0.006352419,0.904677689,0.000235723,0.000338916,-0.000051276,0.056387156,-0.061462339,9.789260864
1784243451.595152,-0.006400927,-0.006352419,0.904677689,0.000527145,-0.000181612,-0.000522341,0.067306772,-0.047847066,9.808188438
1784243451.597144,-0.006400140,-0.006352201,0.904677689,0.000189934,-0.001080626,-0.000255514,0.023616200,-0.023576684,9.813234329
1784243451.599154,-0.006400140,-0.006352201,0.904677689,-0.000069818,-0.001200180,0.000718054,0.061586082,-0.039184753,9.797478676
1784243451.601150,-0.006400140,-0.006352201,0.904677689,-0.000107565,-0.000746385,0.001015351,0.046380941,-0.108094893,9.812264442
1784243451.603149,-0.006402134,-0.006350754,0.904677689,-0.000298749,-0.000609037,0.000743193,0.068631470,-0.087649569,9.795380592
1784243451.605153,-0.006402134,-0.006350754,0.904677689,-0.000787726,-0.001116076,0.000360473,0.063220866,-0.053034138,9.788873672
1784243451.607149,-0.006401714,-0.006351106,0.904677689,-0.001409756,-0.001083833,-0.000367815,0.079749487,-0.058689158,9.798268318
1784243451.609152,-0.006401714,-0.006351106,0.904677689,-0.001260022,-0.000438311,-0.000659268,0.081687346,-0.047046095,9.795654297
1784243451.611152,-0.006401714,-0.006351106,0.904677689,-0.000358097,-0.000123365,-0.000419898,0.057083745,-0.076838054,9.807992935
1784243451.613160,-0.006401169,-0.006350710,0.904677689,-0.000011345,-0.000248134,-0.000645127,0.050668642,-0.089967474,9.775622368
1784243451.615158,-0.006401169,-0.006350710,0.904677689,-0.000894534,0.000031434,-0.000520115,0.047363173,-0.064578466,9.802682877
1784243451.617160,-0.006400782,-0.006350148,0.904677689,-0.002310989,0.000797090,0.000276879,0.052093193,-0.044480883,9.803263664
1784243451.619167,-0.006400782,-0.006350148,0.904677689,-0.002495881,0.000971178,0.000297082,0.086267002,-0.040698584,9.776868820
1784243451.621165,-0.006400782,-0.006350148,0.904677689,-0.001801347,0.000767839,-0.000140018,0.070451364,-0.048668768,9.792046547
1784243451.623164,-0.006398554,-0.006351579,0.904677689,-0.001223784,0.000634611,-0.000079155,0.041515529,-0.067455031,9.776654243
1784243451.625163,-0.006398554,-0.006351579,0.904677689,-0.000458900,0.000587954,-0.000052042,0.062663928,-0.061177537,9.800925255
1784243451.627167,-0.006398163,-0.006352469,0.904677689,-0.000443959,0.000472582,-0.000484900,0.081748448,-0.079695761,9.787374496
1784243451.629171,-0.006398163,-0.006352469,0.904677689,-0.001180827,-0.000145039,-0.000533617,0.055862959,-0.068131484,9.782940865
1784243451.631167,-0.006398163,-0.006352469,0.904677689,-0.001501329,-0.000528957,0.000027315,0.044633325,-0.068083145,9.796380997
1784243451.633176,-0.006398466,-0.006351000,0.904677689,-0.001459809,-0.000451839,0.000474476,0.039155442,-0.077262357,9.773900032
1784243451.635180,-0.006398466,-0.006351000,0.904677689,-0.001102939,-0.000448641,0.000060328,0.065057330,-0.084239274,9.826334000
1784243451.637193,-0.006399564,-0.006351489,0.904677689,-0.000603856,-0.000228472,-0.000961853,0.087741494,-0.064323984,9.820208549
1784243451.639180,-0.006399564,-0.006351489,0.904677689,-0.000331071,0.000071911,-0.000893534,0.071396425,-0.079004645,9.834893227
1784243451.641218,-0.006399564,-0.006351489,0.904677689,-0.000424350,0.000146903,-0.000357631,0.047886051,-0.056298710,9.834567070
1784243451.643178,-0.006399567,-0.006350669,0.904677689,-0.000435830,0.000224127,-0.000815451,0.046938639,-0.061545096,9.817944527
1784243451.645184,-0.006399567,-0.006350669,0.904677689,-0.000389823,0.000210125,-0.001528361,0.040726416,-0.094857581,9.788135529
1784243451.647217,-0.006401156,-0.006349854,0.904677689,-0.000540654,-0.000087181,-0.001869083,0.047919109,-0.094438024,9.779177666
1784243451.649231,-0.006401156,-0.006349854,0.904677689,-0.000343209,-0.000219629,-0.001701146,0.060603503,-0.083514445,9.795399666
1784243451.651207,-0.006401156,-0.006349854,0.904677689,0.000092080,0.000018853,-0.000944664,0.071462125,-0.076459602,9.791868210
1784243451.653194,-0.006402366,-0.006349916,0.904677689,0.000245278,0.000103802,-0.000304070,0.070707589,-0.065188669,9.783422470
1784243451.655190,-0.006402366,-0.006349916,0.904677689,0.000176849,0.000082059,-0.000560229,0.056497980,-0.052887481,9.780349731
1784243451.657196,-0.006401340,-0.006349252,0.904677689,0.000560730,0.000096102,-0.000511308,0.036208965,-0.059881993,9.792389870
1784243451.659192,-0.006401340,-0.006349252,0.904677689,0.001179381,-0.000153849,0.000263543,0.064273566,-0.078467518,9.772123337
1784243451.661196,-0.006401340,-0.006349252,0.904677689,0.001269605,-0.000399176,0.000032809,0.074208952,-0.070794612,9.809393883
1784243451.663200,-0.006401615,-0.006350050,0.904677689,0.000830631,-0.000533576,-0.000605180,0.057489686,-0.082044460,9.783302307
1784243451.665195,-0.006401615,-0.006350050,0.904677689,0.000565357,-0.000403840,-0.000129899,0.079081148,-0.075817220,9.813848495
1784243451.667201,-0.006401979,-0.006350593,0.904677689,0.000483571,0.000012128,0.000434927,0.022699686,-0.061711218,9.821953773
