time_sec,roll_rad,pitch_rad,yaw_rad,gyro_x,gyro_y,gyro_z,acc_x,acc_y,acc_z
1784243372.096662,-0.004232477,-0.011281107,0.947513461,-0.001291632,-0.000584123,0.001876198,0.139038041,-0.018954108,9.774370193
1784243372.098625,-0.004232118,-0.011282924,0.947513461,-0.001153895,0.000027328,0.001318195,0.124704242,-0.017359477,9.764951706
1784243372.100609,-0.004232118,-0.011282924,0.947513461,-0.000836753,0.000417534,0.000731214,0.131452680,-0.014062344,9.793223381
1784243372.102597,-0.004232118,-0.011282924,0.947513461,-0.000644240,0.000538668,0.000555360,0.133130729,-0.024328034,9.784640312
1784243372.104589,-0.004231686,-0.011283451,0.947513461,-0.000301504,0.000896488,0.000140247,0.138929680,-0.028319953,9.768480301
1784243372.106623,-0.004231686,-0.011283451,0.947513461,0.000163026,0.000956959,-0.000180985,0.116619140,-0.052075893,9.810003281
1784243372.108637,-0.004231286,-0.011283433,0.947513461,0.000224889,0.000622800,0.000105957,0.120256700,-0.011316700,9.805335999
1784243372.110607,-0.004231286,-0.011283433,0.947513461,-0.000181357,0.000473457,0.000441161,0.104631409,-0.041595295,9.806920052
1784243372.112594,-0.004231286,-0.011283433,0.947513461,-0.000603337,0.000367349,0.000468547,0.092556491,-0.037881814,9.810518265
1784243372.114620,-0.004230705,-0.011282292,0.947513461,-0.000749071,0.000215647,0.000596651,0.117058761,-0.016995020,9.790501595
1784243372.116599,-0.004230705,-0.011282292,0.947513461,-0.000310907,0.000244255,0.000529146,0.128725827,-0.017138138,9.789614677
1784243372.118595,-0.004230168,-0.011282929,0.947513461,0.000008333,0.000335209,0.000787242,0.101739585,-0.022162355,9.788660049
1784243372.120597,-0.004230168,-0.011282929,0.947513461,-0.000358843,0.000224954,0.001460724,0.116454750,-0.029157352,9.800734520
1784243372.122688,-0.004230168,-0.011282929,0.947513461,-0.000589604,0.000145678,0.001716739,0.121821292,-0.029772874,9.814633369
1784243372.124620,-0.004229665,-0.011283515,0.947513461,-0.000446138,0.000462881,0.001851672,0.117729500,-0.037437845,9.765712738
1784243372.126612,-0.004229665,-0.011283515,0.947513461,-0.000213356,0.000784455,0.001643797,0.086996347,-0.017010089,9.783747673
1784243372.128600,-0.004228392,-0.011282011,0.947513461,-0.000101804,0.000607134,0.001201147,0.109537624,-0.008354226,9.786066055
1784243372.130625,-0.004228392,-0.011282011,0.947513461,-0.000185440,0.000281634,0.000895378,0.092355728,-0.056892950,9.774976730
1784243372.132610,-0.004228392,-0.011282011,0.947513461,-0.000189203,0.000173873,0.000023575,0.102675468,-0.057028372,9.775436401
1784243372.134605,-0.004229002,-0.011281524,0.947513461,-0.000007725,0.000277140,-0.001223981,0.143594667,-0.049567733,9.786731720
1784243372.136613,-0.004229002,-0.011281524,0.947513461,-0.000106504,0.000802736,-0.001787686,0.145291075,-0.019666977,9.800374985
1784243372.138604,-0.004227182,-0.011282594,0.947513461,-0.000577967,0.001237956,-0.001223884,0.134225398,-0.006977158,9.799997330
1784243372.140610,-0.004227182,-0.011282594,0.947513461,-0.000763476,0.001191107,-0.000453901,0.126543924,-0.048539191,9.798825264
1784243372.142609,-0.004227182,-0.011282594,0.947513461,-0.000668522,0.000616846,-0.000274708,0.121657692,-0.044437937,9.797950745
1784243372.144634,-0.004227454,-0.011284060,0.947513461,-0.000382937,0.000072276,-0.000487512,0.099323623,-0.036868636,9.781838417
1784243372.146614,-0.004227454,-0.011284060,0.947513461,0.000152141,-0.000218861,-0.000821947,0.079023689,-0.005548961,9.824611664
1784243372.148607,-0.004225814,-0.011282232,0.947513461,0.000411397,-0.000719744,-0.000706360,0.084869973,-0.044325437,9.785363197
1784243372.150609,-0.004225814,-0.011282232,0.947513461,0.000384284,-0.000922301,-0.000296662,0.102176718,-0.058633581,9.813084602
1784243372.152596,-0.004225814,-0.011282232,0.947513461,0.000368497,-0.000727257,-0.000104598,0.121677212,-0.006288723,9.788780212
1784243372.154644,-0.004224637,-0.011281967,0.947513461,0.000428209,-0.000676264,0.000089081,0.128901094,-0.002380861,9.793295860
1784243372.156612,-0.004224637,-0.011281967,0.947513461,0.000069259,-0.000874301,0.001130814,0.094602585,-0.018089598,9.795851707
1784243372.158605,-0.004223611,-0.011281230,0.947513461,-0.000534763,-0.000994884,0.001564361,0.096472196,-0.013064196,9.778849602
1784243372.160603,-0.004223611,-0.011281230,0.947513461,-0.000480358,-0.000721986,0.000890141,0.124280512,-0.014319746,9.779316902
1784243372.162633,-0.004223611,-0.011281230,0.947513461,-0.000041092,-0.000435172,0.000021016,0.102000929,-0.037020780,9.798428535
1784243372.164642,-0.004222535,-0.011281257,0.947513521,0.000079932,-0.000381872,-0.001299284,0.109212264,-0.072828211,9.780271530
1784243372.166656,-0.004222535,-0.011281257,0.947513521,0.000295498,-0.000324758,-0.002531582,0.125079408,-0.057967287,9.804144859
1784243372.168654,-0.004223062,-0.011281921,0.947513461,0.000544229,-0.000035804,-0.002832064,0.123457856,-0.043202907,9.810066223
1784243372.170665,-0.004223062,-0.011281921,0.947513461,0.000342681,0.000030955,-0.002420558,0.103601597,-0.052760571,9.803709030
1784243372.172627,-0.004223062,-0.011281921,0.947513461,0.000101952,-0.000348391,-0.002610713,0.107675597,-0.050099112,9.800142288
1784243372.174623,-0.004223763,-0.011282226,0.947513461,-0.000215842,-0.000407547,-0.002694099,0.077246815,-0.043379467,9.792087555
1784243372.176616,-0.004223763,-0.011282226,0.947513461,-0.000717443,-0.000112386,-0.001670281,0.090623364,-0.013113460,9.796329498
1784243372.178618,-0.004222043,-0.011282009,0.947513521,-0.000974054,0.000189799,-0.000653005,0.122617662,-0.002313089,9.795084953
1784243372.180631,-0.004222043,-0.011282009,0.947513521,-0.000687028,0.000659805,-0.000397184,0.119466484,-0.040348925,9.793940544
1784243372.182646,-0.004222043,-0.011282009,0.947513521,-0.000205915,0.000966366,-0.000716039,0.103566125,0.020112794,9.826144218
1784243372.184626,-0.004218835,-0.011281179,0.947513580,-0.000240748,0.000706874,-0.000789157,0.130738720,0.001986722,9.805879593
1784243372.186629,-0.004218835,-0.011281179,0.947513580,-0.000702695,0.000393229,-0.000302257,0.093072698,-0.032086328,9.813693047
1784243372.188676,-0.004218190,-0.011280609,0.947513580,-0.000913205,0.000144499,0.000196947,0.088583194,-0.034074679,9.786328316
1784243372.190631,-0.004218190,-0.011280609,0.947513580,-0.000814183,-0.000181310,0.000217222,0.102632031,-0.058181833,9.811743736
1784243372.192655,-0.004218190,-0.011280609,0.947513580,-0.000523877,-0.000487916,-0.000598430,0.095274366,-0.036092672,9.806048393
1784243372.194641,-0.004217875,-0.011279591,0.947513580,-0.000221474,-0.000745929,-0.001571760,0.108672947,-0.041621603,9.803336143
1784243372.196625,-0.004217875,-0.011279591,0.947513580,-0.000449847,-0.000553060,-0.001954480,0.118626744,-0.035019137,9.802044868
1784243372.198622,-0.004217365,-0.011279520,0.947513580,-0.000737442,0.000127397,-0.002013850,0.111200996,-0.056730978,9.781273842
1784243372.200649,-0.004217365,-0.011279520,0.947513580,-0.000318098,0.000343790,-0.001642465,0.091736935,-0.033203110,9.784096718
1784243372.202649,-0.004217365,-0.011279520,0.947513580,0.000179653,-0.000025056,-0.000977404,0.106567591,-0.031991716,9.776048660
1784243372.204645,-0.004216357,-0.011279324,0.947513580,0.000566494,0.000176729,-0.000941549,0.099109799,-0.053551301,9.796974182
1784243372.206637,-0.004216357,-0.011279324,0.947513580,0.000312162,0.000905483,-0.000913039,0.114809893,-0.052977435,9.814030647
1784243372.208636,-0.004216313,-0.011279675,0.947513580,-0.000602057,0.001149493,0.000206133,0.121930607,-0.022830879,9.783294678
1784243372.210634,-0.004216313,-0.011279675,0.947513580,-0.001145703,0.000930171,0.000983317,0.107299231,-0.006664000,9.804456711
1784243372.212638,-0.004216313,-0.011279675,0.947513580,-0.001393658,0.000865106,0.000521297,0.114836194,-0.013964088,9.809348106
1784243372.214643,-0.004214944,-0.011279507,0.947513580,-0.001247217,0.000993397,0.000312582,0.149102479,-0.001346570,9.800495148
1784243372.216642,-0.004214944,-0.011279507,0.947513580,-0.000745696,0.000900172,0.000557262,0.134770527,-0.000142664,9.783004761
1784243372.218647,-0.004213246,-0.011280339,0.947513580,-0.000383180,0.000562522,0.000697898,0.102348365,-0.009151795,9.785158157
1784243372.220644,-0.004213246,-0.011280339,0.947513580,-0.000170555,0.000569201,0.000783624,0.095044330,-0.054119226,9.821176529
1784243372.222646,-0.004213246,-0.011280339,0.947513580,0.000241067,0.000913063,0.000884474,0.091170162,-0.041829444,9.801076889
1784243372.224648,-0.004214108,-0.011279255,0.947513580,0.000577329,0.001076273,0.000452064,0.088911697,-0.006355151,9.794129372
1784243372.226649,-0.004214108,-0.011279255,0.947513580,0.000584598,0.000893407,-0.000135779,0.075981267,-0.037052620,9.786746025
1784243372.228650,-0.004213735,-0.011277911,0.947513580,0.000643870,0.000828950,-0.000130304,0.104953639,-0.016356850,9.785562515
1784243372.230652,-0.004213735,-0.011277911,0.947513580,0.001068209,0.000904211,-0.000179184,0.082310513,-0.032300923,9.800232887
1784243372.232648,-0.004213735,-0.011277911,0.947513580,0.001572526,0.000597503,-0.000306756,0.119458422,-0.078002490,9.796389580
1784243372.234663,-0.004215298,-0.011277840,0.947513580,0.001739286,0.000284244,-0.000075578,0.131416351,-0.091555215,9.790484428
1784243372.236658,-0.004215298,-0.011277840,0.947513580,0.001606164,-0.000067543,0.000145896,0.088160962,-0.066992052,9.816604614
1784243372.238653,-0.004215678,-0.011276457,0.947513580,0.001558659,-0.000791554,0.000178347,0.067146190,-0.024493286,9.800717354
1784243372.240660,-0.004215678,-0.011276457,0.947513580,0.001670546,-0.001035789,0.000727300,0.090254344,-0.043584358,9.797478676
1784243372.242656,-0.004215678,-0.011276457,0.947513580,0.001018145,-0.000504495,0.001238303,0.133901715,-0.034658533,9.786816597
1784243372.244658,-0.004216038,-0.011277986,0.947513580,-0.000179341,-0.000107231,0.001212333,0.105045184,-0.008744693,9.786058426
1784243372.246658,-0.004216038,-0.011277986,0.947513580,-0.000805237,-0.000380010,0.001443399,0.086639889,-0.007765675,9.807567596
1784243372.248671,-0.004214619,-0.011276988,0.947513580,-0.001010295,-0.000762088,0.001719416,0.130258024,-0.039092157,9.786786079
1784243372.250707,-0.004214619,-0.011276988,0.947513580,-0.001301145,-0.000890813,0.001253183,0.128326327,-0.049470831,9.800616264
1784243372.252678,-0.004214619,-0.011276988,0.947513580,-0.001258528,-0.000913786,0.000661611,0.116641529,-0.014714488,9.785583496
1784243372.254681,-0.004213329,-0.011277726,0.947513580,-0.000431841,-0.000851208,0.000575347,0.099511087,-0.020799270,9.790011406
1784243372.256669,-0.004213329,-0.011277726,0.947513580,0.000293717,-0.001007709,0.000962870,0.097092651,-0.034714550,9.797989845
1784243372.258668,-0.004212285,-0.011276788,0.947513580,0.000228085,-0.000794092,0.001697353,0.091896102,-0.018573012,9.805709839
1784243372.260673,-0.004212285,-0.011276788,0.947513580,-0.000284565,-0.000322605,0.001439158,0.075780913,-0.015633760,9.799436569
1784243372.262680,-0.004212285,-0.011276788,0.947513580,-0.000828294,-0.000854166,0.000415536,0.115207613,-0.021064090,9.798991203
1784243372.264678,-0.004210895,-0.011276463,0.947513580,-0.001099833,-0.001352843,0.000012400,0.125072390,-0.020837996,9.812452316
1784243372.266743,-0.004210895,-0.011276463,0.947513580,-0.000962580,-0.000802553,-0.000149295,0.128309801,-0.049601194,9.818996429
1784243372.268722,-0.004211867,-0.011277308,0.947513580,-0.000299146,-0.000120092,-0.000210469,0.133177206,-0.058308877,9.774559975
1784243372.270703,-0.004211867,-0.011277308,0.947513580,0.000126366,0.000158606,0.000249108,0.130813748,-0.028121442,9.818238258
1784243372.272696,-0.004211867,-0.011277308,0.947513580,-0.000236056,0.000115015,0.000888343,0.102403089,-0.039825585,9.814103127
1784243372.274700,-0.004212117,-0.011277220,0.947513580,-0.000464674,-0.000076570,0.000937994,0.084160335,-0.026621249,9.817308426
1784243372.276697,-0.004212117,-0.011277220,0.947513580,0.000144418,-0.000474054,0.000576819,0.046880577,-0.032113452,9.774644852
1784243372.278697,-0.004212324,-0.011273658,0.947513580,0.000842197,-0.000623912,0.000567615,0.080519967,-0.032649573,9.789468765
1784243372.280698,-0.004212324,-0.011273658,0.947513580,0.000884205,-0.000350954,0.000706712,0.111902252,-0.034885198,9.795313835
1784243372.282756,-0.004212324,-0.011273658,0.947513580,0.000304033,0.000162014,0.000556097,0.124940507,-0.033631735,9.784573555
1784243372.284715,-0.004211779,-0.011274884,0.947513580,-0.000228564,0.000358116,0.000246642,0.124901660,-0.037180442,9.779619217
1784243372.286707,-0.004211779,-0.011274884,0.947513580,-0.000172324,-0.000293677,-0.000325499,0.115738593,-0.016367648,9.767638206
1784243372.288752,-0.004210908,-0.011274259,0.947513580,-0.000257933,-0.000714688,-0.000489474,0.093347162,-0.047246445,9.802837372
1784243372.290803,-0.004210908,-0.011274259,0.947513580,-0.000203032,-0.000020123,0.000281376,0.117378168,-0.026531955,9.807925224
1784243372.292741,-0.004210908,-0.011274259,0.947513580,-0.000030652,0.000901846,0.000285854,0.089412302,-0.002303810,9.790568352
1784243372.294722,-0.004209761,-0.011273253,0.947513580,-0.000258607,0.000519113,-0.000331082,0.088743053,0.016935037,9.795622826
1784243372.296747,-0.004209761,-0.011273253,0.947513580,-0.000234571,-0.000501712,-0.000459412,0.083641246,-0.034465767,9.787219048
1784243372.298719,-0.004209165,-0.011272575,0.947513580,0.000350568,-0.000620636,-0.000692932,0.118427530,-0.015617507,9.783336639
1784243372.300745,-0.004209165,-0.011272575,0.947513580,0.001215939,-0.000243694,-0.000913923,0.136052817,-0.041495726,9.799329758
1784243372.302748,-0.004209165,-0.011272575,0.947513580,0.001354441,-0.000288441,-0.000969163,0.142902419,-0.032536894,9.787287712
1784243372.304735,-0.004208643,-0.011274488,0.947513580,0.000800152,-0.000745071,-0.001157223,0.109199725,-0.072116710,9.806280136
1784243372.306727,-0.004208643,-0.011274488,0.947513580,0.000741534,-0.000954674,-0.001419351,0.113279998,-0.032221038,9.796228409
1784243372.308733,-0.004207535,-0.011274523,0.947513580,0.000869603,-0.000353574,-0.001551682,0.076605186,-0.021491010,9.802538872
1784243372.310730,-0.004207535,-0.011274523,0.947513580,0.000494397,0.000233365,-0.001647998,0.089619793,-0.022045285,9.794029236
1784243372.312735,-0.004207535,-0.011274523,0.947513580,0.000594036,0.000062286,-0.001612595,0.085609324,-0.019747376,9.793143272
1784243372.314730,-0.004206544,-0.011273150,0.947513580,0.001481295,0.000124208,-0.001151227,0.078099504,-0.046580754,9.799688339
1784243372.316731,-0.004206544,-0.011273150,0.947513580,0.001841372,0.000495062,-0.000597143,0.093359061,-0.047557678,9.783556938
1784243372.318731,-0.004206820,-0.011271937,0.947513580,0.001485261,0.000447354,-0.000105994,0.127493471,-0.044897050,9.788986206
1784243372.320762,-0.004206820,-0.011271937,0.947513580,0.001135268,0.000413134,0.000323869,0.141755119,-0.014334481,9.812959671
1784243372.322783,-0.004206820,-0.011271937,0.947513580,0.000918046,0.000374338,-0.000103121,0.091371387,-0.026462043,9.781897545
1784243372.324801,-0.004205825,-0.011270377,0.947513580,0.000757442,0.000077552,-0.000650352,0.112195469,-0.047465656,9.799715996
1784243372.326764,-0.004205825,-0.011270377,0.947513580,0.000620542,-0.000178090,-0.000453546,0.093815997,-0.047093213,9.780422211
1784243372.328763,-0.004206078,-0.011269550,0.947513580,0.000704141,-0.000167311,-0.000471253,0.072225116,-0.050073799,9.797419548
1784243372.330746,-0.004206078,-0.011269550,0.947513580,0.000456045,-0.000265340,-0.000286662,0.094072923,-0.024396637,9.801640511
1784243372.332744,-0.004206078,-0.011269550,0.947513580,0.000074249,-0.000462682,0.000189773,0.123818241,-0.013205405,9.812500000
1784243372.334748,-0.004203969,-0.011270271,0.947513580,0.000596722,-0.000321999,-0.000290675,0.128877208,-0.041375123,9.795288086
1784243372.336754,-0.004203969,-0.011270271,0.947513580,0.000888026,-0.000215782,-0.001092093,0.138734832,-0.042826407,9.792597771
1784243372.338743,-0.004203881,-0.011271711,0.947513580,0.000447322,-0.000189125,-0.001063476,0.116651438,-0.012204782,9.810706139
1784243372.340751,-0.004203881,-0.011271711,0.947513580,0.000181162,-0.000133636,-0.001150652,0.101767555,0.016053632,9.770075798
1784243372.342762,-0.004203881,-0.011271711,0.947513580,0.000111790,-0.000414778,-0.001829513,0.098104738,-0.026526028,9.778765678
1784243372.344759,-0.004202854,-0.011271170,0.947513580,-0.000068378,-0.000871063,-0.002181249,0.106591716,-0.028154027,9.803421974
1784243372.346755,-0.004202854,-0.011271170,0.947513580,0.000094098,-0.000600190,-0.001531067,0.125290483,-0.042116944,9.780036926
1784243372.348758,-0.004203326,-0.011271796,0.947513580,0.000452947,0.000203529,-0.000566257,0.133915976,-0.071730584,9.770440102
1784243372.350754,-0.004203326,-0.011271796,0.947513580,0.000204939,0.000436309,-0.000155006,0.105975546,-0.080028489,9.790534019
1784243372.352764,-0.004203326,-0.011271796,0.947513580,-0.000109283,-0.000058089,0.000050415,0.096632034,-0.037234411,9.775108337
1784243372.354763,-0.004203008,-0.011270653,0.947513580,-0.000088113,-0.000673713,0.000325399,0.126827747,-0.024009442,9.814226151
1784243372.356771,-0.004203008,-0.011270653,0.947513580,0.000258412,-0.000621227,0.000438780,0.108396403,-0.028504157,9.786383629
1784243372.358767,-0.004202978,-0.011271256,0.947513580,0.000918606,0.000278233,0.000256046,0.121253639,-0.040432338,9.802459717
1784243372.360784,-0.004202978,-0.011271256,0.947513580,0.001071999,0.000756577,0.000193627,0.121698946,-0.040870149,9.800214767
1784243372.362774,-0.004202978,-0.011271256,0.947513580,0.000669399,0.000442296,0.000522734,0.122118935,-0.042318352,9.814104080
1784243372.364769,-0.004203503,-0.011272063,0.947513580,0.000268930,0.000392834,0.001034092,0.106721751,-0.014969561,9.839372635
1784243372.366818,-0.004203503,-0.011272063,0.947513580,0.000034508,0.000609057,0.001263693,0.125893041,-0.029560704,9.777426720
1784243372.368812,-0.004203140,-0.011272463,0.947513580,0.000094801,0.000386430,0.001375048,0.118491575,-0.047028229,9.789860725
1784243372.370805,-0.004203140,-0.011272463,0.947513580,0.000175793,0.000331180,0.001565135,0.104839407,-0.060116898,9.827873230
1784243372.372783,-0.004203140,-0.011272463,0.947513580,0.000113525,0.000725770,0.001453116,0.081063367,-0.061797619,9.791971207
1784243372.374784,-0.004204507,-0.011271334,0.947513580,-0.000149285,0.000856786,0.000846792,0.100577898,-0.008531395,9.764087677
1784243372.376787,-0.004204507,-0.011271334,0.947513580,-0.000741841,0.000650458,0.000420824,0.108774111,0.001630063,9.769540787
1784243372.378851,-0.004202996,-0.011271268,0.947513580,-0.001267766,0.000211297,0.000415633,0.101467021,-0.008203045,9.779335022
1784243372.380830,-0.004202996,-0.011271268,0.947513580,-0.001357833,0.000125413,-0.000109882,0.104814328,-0.026777603,9.802083015
1784243372.382863,-0.004202996,-0.011271268,0.947513580,-0.000736471,-0.000084679,-0.001124258,0.091468677,-0.017588671,9.794059753
1784243372.384931,-0.004202050,-0.011270173,0.947513580,0.000019069,-0.000567415,-0.001467436,0.100120336,-0.043348730,9.809593201
1784243372.386854,-0.004202050,-0.011270173,0.947513580,0.000409156,-0.000438682,-0.000523596,0.094527774,-0.060727965,9.806339264
1784243372.388860,-0.004202622,-0.011269675,0.947513580,0.000516521,0.000087216,0.000454937,0.091571860,-0.046664201,9.787148476
1784243372.390832,-0.004202622,-0.011269675,0.947513580,0.000052077,0.000317949,0.000552315,0.115103692,-0.030394956,9.788171768
1784243372.392849,-0.004202622,-0.011269675,0.947513580,-0.000543166,0.000076594,0.000331736,0.136506349,-0.041463319,9.793949127
1784243372.394829,-0.004202724,-0.011270132,0.947513580,-0.000920804,0.000167166,0.000660019,0.145090595,0.001345248,9.807234764
1784243372.396828,-0.004202724,-0.011270132,0.947513580,-0.001407989,0.000755418,0.001226674,0.106798798,-0.013145553,9.771686554
1784243372.398811,-0.004201716,-0.011269994,0.947513580,-0.001653813,0.001149324,0.001224266,0.115001336,-0.001313072,9.794187546
1784243372.400819,-0.004201716,-0.011269994,0.947513580,-0.001183531,0.001232948,0.000951633,0.111012727,0.002373235,9.787033081
1784243372.402824,-0.004201716,-0.011269994,0.947513580,-0.000734409,0.001147729,0.000914844,0.108928092,-0.019344373,9.820514679
1784243372.404872,-0.004200911,-0.011270156,0.947513580,-0.000660294,0.001053484,0.000706944,0.103298359,-0.041069672,9.798403740
1784243372.406853,-0.004200911,-0.011270156,0.947513580,-0.000570596,0.000825771,0.000013108,0.101751789,-0.020850273,9.793150902
1784243372.408829,-0.004200759,-0.011270260,0.947513580,-0.000092050,0.000491222,-0.000131592,0.096285023,-0.027510235,9.794448853
1784243372.410834,-0.004200759,-0.011270260,0.947513580,0.000598986,0.000311053,0.000540122,0.106116250,-0.031601600,9.785016060
1784243372.412846,-0.004200759,-0.011270260,0.947513580,0.000434027,0.000223449,0.000956433,0.106903501,-0.041398294,9.775092125
1784243372.414822,-0.004200930,-0.011269937,0.947513640,-0.000187554,0.000492343,0.000719213,0.111703210,-0.015076950,9.782438278
1784243372.416829,-0.004200930,-0.011269937,0.947513640,-0.000149908,0.000846373,0.000313388,0.086888611,-0.026776206,9.771130562
1784243372.418842,-0.004200207,-0.011268075,0.947513640,0.000132857,0.001334742,0.000145801,0.067244470,-0.015206929,9.817812920
1784243372.420831,-0.004200207,-0.011268075,0.947513640,0.000210301,0.001511798,0.000040568,0.117254220,-0.037641957,9.795300484
1784243372.422909,-0.004200207,-0.011268075,0.947513640,0.000001413,0.000509913,-0.000078920,0.115311645,-0.050943326,9.779072762
1784243372.424841,-0.004201008,-0.011268930,0.947513640,-0.000316939,-0.000577034,-0.000348736,0.101546474,-0.038276244,9.786763191
1784243372.426841,-0.004201008,-0.011268930,0.947513640,-0.000344045,-0.000900880,-0.000903399,0.107728526,-0.046439108,9.789406776
1784243372.428840,-0.004201386,-0.011269468,0.947513640,-0.000291303,-0.001067133,-0.001054235,0.097039834,-0.037157856,9.826666832
1784243372.430851,-0.004201386,-0.011269468,0.947513640,-0.000779200,-0.001205219,-0.000406873,0.100225747,-0.035221834,9.800680161
1784243372.432842,-0.004201386,-0.011269468,0.947513640,-0.001601138,-0.000941685,0.000210425,0.133642972,-0.016537571,9.822351456
1784243372.434844,-0.004200678,-0.011270164,0.947513580,-0.001472400,-0.000606471,-0.000493241,0.119413912,-0.005605708,9.822854996
1784243372.436836,-0.004200678,-0.011270164,0.947513580,-0.000910175,-0.000633989,-0.001548179,0.102880448,-0.037578806,9.812323570
1784243372.438841,-0.004200940,-0.011269683,0.947513640,-0.001176279,-0.000961481,-0.000893383,0.083673306,-0.031781174,9.787684441
1784243372.440850,-0.004200940,-0.011269683,0.947513640,-0.001588018,-0.001217586,-0.000109934,0.091715641,-0.037018541,9.753584862
1784243372.442851,-0.004200940,-0.011269683,0.947513640,-0.001736912,-0.001109386,-0.000909256,0.131482542,-0.011800278,9.790100098
1784243372.444855,-0.004200130,-0.011270361,0.947513580,-0.001730468,-0.000507834,-0.001813390,0.096829824,-0.018652152,9.807956696
1784243372.446850,-0.004200130,-0.011270361,0.947513580,-0.001782656,-0.000250759,-0.002184313,0.105045937,-0.007928263,9.797272682
1784243372.448866,-0.004198384,-0.011270510,0.947513640,-0.002102284,-0.000979623,-0.002261509,0.103828952,-0.033539575,9.809661865
1784243372.450860,-0.004198384,-0.011270510,0.947513640,-0.002297996,-0.001385994,-0.002154526,0.125024691,-0.030130338,9.733037949
1784243372.452846,-0.004198384,-0.011270510,0.947513640,-0.002013676,-0.000695794,-0.002214831,0.107079253,-0.024611060,9.808376312
1784243372.454871,-0.004197848,-0.011270965,0.947513640,-0.001371242,-0.000001574,-0.001950124,0.091389231,-0.059858561,9.815756798
1784243372.456854,-0.004197848,-0.011270965,0.947513640,-0.000586130,-0.000080549,-0.000893554,0.072820552,-0.073948063,9.814302444
1784243372.458862,-0.004199041,-0.011269837,0.947513640,-0.000179411,-0.000352732,-0.000053106,0.104122184,-0.046120036,9.814064026
1784243372.460856,-0.004199041,-0.011269837,0.947513640,-0.000096104,-0.000381081,-0.000360882,0.121834986,-0.029664762,9.799391747
1784243372.462856,-0.004199041,-0.011269837,0.947513640,-0.000049010,-0.000057608,-0.000908130,0.123234242,-0.026425458,9.782376289
1784243372.464863,-0.004198553,-0.011270026,0.947513640,-0.000378132,0.000124749,-0.000784167,0.090046465,-0.023846062,9.794466019
1784243372.466856,-0.004198553,-0.011270026,0.947513640,-0.000333698,-0.000073440,-0.000045388,0.092471227,-0.008259760,9.803535461
1784243372.468862,-0.004197377,-0.011270111,0.947513640,0.000277429,-0.000223506,0.000403433,0.085260116,-0.010445737,9.808893204
1784243372.470866,-0.004197377,-0.011270111,0.947513640,0.000161889,-0.000415006,0.000440216,0.103549935,-0.019631136,9.807508469
1784243372.472866,-0.004197377,-0.011270111,0.947513640,-0.000137478,-0.000355196,0.000630248,0.084738731,-0.017092628,9.799436569
1784243372.474866,-0.004196704,-0.011269404,0.947513640,0.000048682,0.000190650,0.000338881,0.090434350,0.007584350,9.784356117
1784243372.476865,-0.004196704,-0.011269404,0.947513640,0.000311069,0.000587480,0.000036561,0.112365849,-0.034773298,9.778725624
1784243372.478901,-0.004196392,-0.011269946,0.947513640,0.000621235,0.000120976,-0.000458474,0.146241382,-0.052798368,9.795231819
1784243372.480901,-0.004196392,-0.011269946,0.947513640,0.000666832,-0.000320822,-0.001487873,0.128836006,-0.045752984,9.780913353
1784243372.482898,-0.004196392,-0.011269946,0.947513640,0.000575656,-0.000320772,-0.001676577,0.102070503,-0.032013711,9.787251472
1784243372.484906,-0.004196392,-0.011269946,0.947513640,0.000524777,-0.000414883,-0.001164681,0.102070503,-0.032013711,9.787251472
1784243372.486886,-0.004195872,-0.011269768,0.947513640,0.000289489,-0.000374638,-0.000574857,0.113198005,-0.038136739,9.809191704
1784243372.488922,-0.004196142,-0.011269746,0.947513640,0.000270733,0.000373556,-0.000231188,0.102410153,-0.077764936,9.793684006
1784243372.490901,-0.004196142,-0.011269746,0.947513640,0.000601443,0.000952110,-0.000178665,0.096993342,-0.043603823,9.788068771
1784243372.492919,-0.004196640,-0.011269319,0.947513640,0.000937712,0.000183941,-0.000038568,0.121174805,-0.048349377,9.781785011
1784243372.494905,-0.004196640,-0.011269319,0.947513640,0.001144332,-0.000503345,0.000405703,0.108398944,-0.027268378,9.801634789
1784243372.496902,-0.004195135,-0.011269488,0.947513640,0.000418710,0.000010387,0.001221009,0.114669211,0.008528747,9.796938896
1784243372.498899,-0.004195135,-0.011269488,0.947513640,-0.000614754,0.000516074,0.001814881,0.128907189,-0.003143233,9.774461746
1784243372.500903,-0.004195135,-0.011269488,0.947513640,-0.000613853,0.000249571,0.001721668,0.131037921,-0.047325928,9.809149742
1784243372.502921,-0.004194850,-0.011271230,0.947513640,-0.000105630,0.000053384,0.001094952,0.106145240,-0.031372663,9.752737999
1784243372.504916,-0.004194850,-0.011271230,0.947513640,0.000303386,0.000109255,0.000440996,0.082074545,-0.014405342,9.804381371
1784243372.506900,-0.004193350,-0.011269169,0.947513640,0.000815659,-0.000034117,0.000252739,0.082155213,-0.044468999,9.810465813
1784243372.508902,-0.004193350,-0.011269169,0.947513640,0.000988650,-0.000262286,0.000096537,0.091816060,-0.026499592,9.786380768
1784243372.510900,-0.004193350,-0.011269169,0.947513640,0.000666091,-0.000117461,-0.000052338,0.103094220,-0.020086065,9.809297562
1784243372.512917,-0.004192320,-0.011269105,0.947513640,-0.000039388,0.000062014,0.000344323,0.083276562,-0.028528411,9.772012711
1784243372.514914,-0.004192320,-0.011269105,0.947513640,-0.000645105,0.000050199,0.000560139,0.118174769,-0.034228750,9.817740440
1784243372.516914,-0.004192043,-0.011269834,0.947513640,-0.000201297,-0.000110064,0.000411040,0.114034474,-0.042681910,9.816784859
1784243372.518963,-0.004192043,-0.011269834,0.947513640,0.000337490,-0.000337908,0.000428509,0.092885330,-0.049775843,9.781300545
1784243372.520924,-0.004192043,-0.011269834,0.947513640,0.000335018,-0.000247532,0.000423983,0.108539917,-0.052398108,9.806854248
1784243372.522923,-0.004193283,-0.011270355,0.947513640,0.000714963,-0.000005486,0.000368119,0.098836780,-0.038785100,9.800207138
1784243372.524922,-0.004193283,-0.011270355,0.947513640,0.001334887,0.000113698,0.000237391,0.124375112,-0.041841902,9.806040764
1784243372.526926,-0.004193410,-0.011270734,0.947513640,0.001240046,-0.000224017,-0.000113802,0.112453260,-0.025572794,9.807928085
1784243372.528930,-0.004193410,-0.011270734,0.947513640,0.000682723,-0.000359989,0.000153697,0.097483300,-0.040041782,9.790334702
1784243372.530947,-0.004193410,-0.011270734,0.947513640,0.000243546,-0.000031022,0.001054920,0.105253771,-0.026856486,9.812393188
1784243372.532931,-0.004192956,-0.011270986,0.947513640,-0.000366287,0.000157645,0.001728759,0.090164535,-0.012377130,9.819647789
1784243372.534930,-0.004192956,-0.011270986,0.947513640,-0.000973818,0.000120397,0.001640753,0.079227768,-0.063312463,9.819309235
1784243372.536928,-0.004194158,-0.011269499,0.947513640,-0.001129097,-0.000212390,0.001015789,0.100844935,-0.058908500,9.791114807
1784243372.538932,-0.004194158,-0.011269499,0.947513640,-0.000987656,-0.000296349,0.000688159,0.125221238,-0.046310760,9.802874565
1784243372.540932,-0.004194158,-0.011269499,0.947513640,-0.000757629,-0.000287769,0.000594489,0.124889925,-0.036462583,9.804731369
1784243372.542937,-0.004193886,-0.011269886,0.947513640,-0.000572021,-0.000316827,0.000381669,0.092978433,-0.041340891,9.792114258
1784243372.544974,-0.004193886,-0.011269886,0.947513640,-0.000507326,-0.000175131,0.000209375,0.070616983,-0.033987798,9.806487083
1784243372.546963,-0.004193094,-0.011267383,0.947513640,-0.000424278,-0.000020399,0.000427189,0.081545800,-0.022326171,9.785052299
1784243372.548953,-0.004193094,-0.011267383,0.947513640,-0.000073251,0.000162404,0.000388147,0.096813463,-0.021212736,9.790005684
1784243372.550941,-0.004193094,-0.011267383,0.947513640,0.000601872,0.000422692,-0.000559563,0.092923328,-0.007833449,9.805780411
1784243372.552943,-0.004191199,-0.011266096,0.947513640,0.000662193,0.000885622,-0.001032501,0.123514168,-0.076700814,9.795056343
1784243372.554949,-0.004191199,-0.011266096,0.947513640,-0.000042961,0.000615867,-0.000876152,0.123445608,-0.043704920,9.817684174
1784243372.556941,-0.004190731,-0.011266686,0.947513640,-0.000453292,-0.000119856,-0.001071975,0.100282244,-0.030723143,9.798019409
1784243372.558944,-0.004190731,-0.011266686,0.947513640,-0.000240947,-0.000140908,-0.000958223,0.105705068,-0.061189651,9.851180077
1784243372.560946,-0.004190731,-0.011266686,0.947513640,0.000078666,0.000127640,-0.000494424,0.097160675,-0.027693439,9.818658829
1784243372.562948,-0.004190588,-0.011266847,0.947513640,0.000384120,0.000358268,-0.000120138,0.125057191,-0.025415804,9.763106346
1784243372.564956,-0.004190588,-0.011266847,0.947513640,0.000586679,0.000294165,-0.000119576,0.127332255,-0.021143006,9.788243294
1784243372.566955,-0.004189857,-0.011267285,0.947513640,0.000641809,-0.000001756,-0.000409531,0.095322348,-0.033687517,9.782752037
1784243372.568967,-0.004189857,-0.011267285,0.947513640,0.000795796,0.000337646,-0.000328659,0.074253142,-0.031234736,9.790817261
1784243372.570997,-0.004189857,-0.011267285,0.947513640,0.000965806,0.000978485,0.000021370,0.100783311,-0.027478699,9.781899452
1784243372.572966,-0.004189325,-0.011266849,0.947513640,0.000955975,0.000816024,0.000399006,0.119815938,-0.012464055,9.778428078
1784243372.574975,-0.004189325,-0.011266849,0.947513640,0.000853761,0.000214269,0.000418540,0.119742230,-0.015882764,9.818306923
1784243372.576963,-0.004188759,-0.011267139,0.947513700,0.000780620,-0.000098233,0.000451526,0.107813127,-0.002507729,9.786101341
1784243372.578969,-0.004188759,-0.011267139,0.947513700,0.000311794,-0.000268185,0.000601580,0.095125064,-0.012649861,9.786024094
1784243372.580970,-0.004188759,-0.011267139,0.947513700,-0.000045455,-0.000333288,-0.000028930,0.090391695,-0.031152733,9.813249588
1784243372.583020,-0.004188505,-0.011266221,0.947513640,-0.000049517,-0.000200607,-0.000956186,0.097303018,-0.017653873,9.792719841
1784243372.584983,-0.004188505,-0.011266221,0.947513640,-0.000015843,-0.000033123,-0.001504867,0.140540227,-0.041550037,9.798884392
1784243372.586976,-0.004188399,-0.011267620,0.947513700,0.000190479,0.000159477,-0.001994152,0.136650145,-0.066570796,9.796030045
1784243372.588984,-0.004188399,-0.011267620,0.947513700,0.000395472,0.000457866,-0.001808069,0.121664651,-0.080757149,9.801753044
1784243372.591024,-0.004188399,-0.011267620,0.947513700,0.000956643,0.000450603,-0.000987138,0.075457238,-0.005725171,9.792775154
1784243372.592980,-0.004187621,-0.011266422,0.947513700,0.001450150,-0.000042687,-0.000211165,0.078484826,0.022013914,9.792956352
1784243372.594987,-0.004187621,-0.011266422,0.947513700,0.001159481,-0.000375815,0.000154667,0.105411373,-0.015886024,9.781530380
1784243372.596984,-0.004186796,-0.011265875,0.947513819,0.000860413,-0.000434685,-0.000047290,0.098204985,-0.016413702,9.805730820
1784243372.598983,-0.004186796,-0.011265875,0.947513819,0.001003610,-0.000412787,0.000348075,0.110518239,-0.037193604,9.807400703
1784243372.600984,-0.004186796,-0.011265875,0.947513819,0.001017940,-0.000307308,0.000871124,0.120392077,-0.074890979,9.798203468
1784243372.602995,-0.004189141,-0.011266589,0.947513700,0.000236163,-0.000091061,0.000457398,0.122487016,-0.050660480,9.789393425
1784243372.604992,-0.004189141,-0.011266589,0.947513700,-0.000800836,0.000235609,-0.000186782,0.111080870,-0.026978921,9.819123268
1784243372.606988,-0.004188779,-0.011265930,0.947513700,-0.000509218,0.000405863,-0.000257635,0.074380144,-0.020505935,9.794024467
1784243372.609003,-0.004188779,-0.011265930,0.947513700,0.000495138,0.000214701,-0.000201437,0.088262185,-0.021713622,9.812859535
1784243372.611001,-0.004188779,-0.011265930,0.947513700,0.000486482,0.000138308,-0.000305738,0.082604840,-0.008498562,9.791867256
1784243372.612994,-0.004186121,-0.011265092,0.947513819,-0.000038386,0.000750456,0.000234939,0.115292370,-0.051906016,9.788482666
1784243372.614995,-0.004186121,-0.011265092,0.947513819,-0.000367224,0.001106489,0.000520089,0.102909103,-0.035326280,9.810544014
1784243372.617006,-0.004185343,-0.011265124,0.947513819,-0.000302176,0.000918015,-0.000158732,0.128337055,-0.050601676,9.770569801
1784243372.619009,-0.004185343,-0.011265124,0.947513819,-0.000507534,0.000941890,-0.000075092,0.104536399,-0.051666293,9.774127960
1784243372.621001,-0.004185343,-0.011265124,0.947513819,-0.001381373,0.000981882,0.000508317,0.095826983,-0.064357512,9.810352325
1784243372.622998,-0.004186511,-0.011264613,0.947513819,-0.002016350,0.001015093,0.000265432,0.082916230,-0.056499138,9.799629211
1784243372.624996,-0.004186511,-0.011264613,0.947513819,-0.001806674,0.001338025,0.000091226,0.053574521,-0.033299111,9.803336143
1784243372.627005,-0.004186423,-0.011261197,0.947513759,-0.000713716,0.001563362,-0.000070346,0.078276798,-0.031807575,9.801129341
1784243372.629001,-0.004186423,-0.011261197,0.947513759,-0.000087714,0.000975159,-0.000481341,0.100342095,-0.024982326,9.809713364
1784243372.631000,-0.004186423,-0.011261197,0.947513759,-0.000035621,0.000080158,-0.000314641,0.119203933,-0.025500046,9.785516739
1784243372.633006,-0.004185987,-0.011262253,0.947513759,0.000585002,-0.000095024,0.000279728,0.104826465,-0.027492289,9.776523590
1784243372.635013,-0.004185987,-0.011262253,0.947513759,0.000877980,0.000050722,0.000443213,0.139007017,-0.019198941,9.808890343
1784243372.637011,-0.004184916,-0.011263630,0.947513819,0.000404463,0.000146968,0.000452852,0.134313017,-0.001016936,9.780755997
1784243372.639012,-0.004184916,-0.011263630,0.947513819,-0.000102531,0.000308050,0.000586486,0.108848736,-0.063234411,9.817992210
1784243372.641014,-0.004184916,-0.011263630,0.947513819,-0.000182125,0.000423491,0.000485717,0.067853518,-0.040999856,9.789403915
1784243372.643015,-0.004185026,-0.011261567,0.947513819,-0.000132173,0.000452538,0.000394121,0.081129208,-0.020445902,9.773407936
1784243372.645019,-0.004185026,-0.011261567,0.947513819,-0.000529233,0.000532038,0.000381186,0.113319196,0.006894056,9.777200699
1784243372.647040,-0.004182778,-0.011261540,0.947513819,-0.000288555,0.001123662,0.000465837,0.124892280,-0.035633430,9.814150810
1784243372.649029,-0.004182778,-0.011261540,0.947513819,0.000718100,0.001562361,0.000745490,0.090739615,-0.080080651,9.762274742
1784243372.651028,-0.004182778,-0.011261540,0.947513819,0.000882380,0.001078563,0.000871627,0.103739865,-0.041942731,9.794363022
1784243372.653065,-0.004183157,-0.011260998,0.947513819,0.000475589,0.000551253,0.001051965,0.112708792,-0.043719191,9.775979042
1784243372.655031,-0.004183157,-0.011260998,0.947513819,0.000540550,0.000179999,0.001382555,0.101245135,-0.059702426,9.839080811
1784243372.657027,-0.004183711,-0.011260995,0.947513819,0.001219610,-0.000169928,0.001732258,0.082316503,-0.031443149,9.805618286
1784243372.659021,-0.004183711,-0.011260995,0.947513819,0.001881796,0.000093110,0.002351201,0.093377545,-0.009011378,9.781562805
1784243372.661032,-0.004183711,-0.011260995,0.947513819,0.001532954,0.000347249,0.002873330,0.118641429,0.003091927,9.798253059
1784243372.663033,-0.004181773,-0.011261492,0.947513819,0.000442805,0.000075192,0.002960990,0.113424025,-0.020141985,9.798546791
1784243372.665031,-0.004181773,-0.011261492,0.947513819,-0.000350723,-0.000313913,0.001868472,0.111040235,-0.030946977,9.810132980
1784243372.667030,-0.004181545,-0.011261213,0.947513819,-0.000818196,-0.000593140,0.000188244,0.103330247,-0.038791712,9.793038368
1784243372.669034,-0.004181545,-0.011261213,0.947513819,-0.001068245,-0.000604742,-0.000186137,0.116904616,-0.028343497,9.811499596
1784243372.671034,-0.004181545,-0.011261213,0.947513819,-0.000726560,-0.000532498,0.000138122,0.102413453,-0.003369642,9.791022301
1784243372.673033,-0.004179578,-0.011261059,0.947513819,-0.000352324,-0.000606883,0.000319678,0.120032795,-0.030915694,9.789518356
1784243372.675037,-0.004179578,-0.011261059,0.947513819,-0.000802785,-0.000583048,0.000740054,0.089383468,-0.042552926,9.779998779
1784243372.677039,-0.004180346,-0.011259161,0.947513819,-0.001595478,-0.000179040,0.000452000,0.087375224,-0.062046263,9.752523422
1784243372.679065,-0.004180346,-0.011259161,0.947513819,-0.001497510,0.000614627,-0.000187233,0.112282701,-0.041508611,9.780924797
1784243372.681051,-0.004180346,-0.011259161,0.947513819,-0.000542553,0.001037403,-0.000345488,0.140376419,-0.018221695,9.794999123
1784243372.683042,-0.004179366,-0.011260035,0.947513819,0.000326794,0.000572762,-0.000988307,0.121777497,-0.034576442,9.797117233
1784243372.685045,-0.004179366,-0.011260035,0.947513819,0.000684386,-0.000106839,-0.001115948,0.112332880,-0.035844103,9.803378105
1784243372.687046,-0.004178952,-0.011260112,0.947513819,0.000711216,-0.000263394,-0.000232620,0.089223213,-0.055975858,9.777669907
1784243372.689053,-0.004178952,-0.011260112,0.947513819,0.000897419,-0.000089149,0.000069761,0.101909436,-0.045443010,9.785820007
1784243372.691054,-0.004178952,-0.011260112,0.947513819,0.001391859,-0.000270740,0.000072272,0.097218834,-0.061582066,9.795576096
1784243372.693050,-0.004180577,-0.011259429,0.947513819,0.001638032,-0.000940999,-0.000055439,0.117282882,-0.035389431,9.793521881
1784243372.695071,-0.004180577,-0.011259429,0.947513819,0.001109761,-0.001638079,-0.000078556,0.099749826,-0.037862513,9.794834137
1784243372.697065,-0.004180665,-0.011258516,0.947513819,0.000513013,-0.001588179,0.000322565,0.120723285,-0.048365884,9.784922600
1784243372.699063,-0.004180665,-0.011258516,0.947513819,0.000356627,-0.000941528,0.000401999,0.097973615,0.001923480,9.810778618
1784243372.701062,-0.004180665,-0.011258516,0.947513819,0.000407887,-0.000325913,0.000081845,0.118524998,-0.043927472,9.794813156
1784243372.703068,-0.004179932,-0.011260044,0.947513819,0.000460191,-0.000200596,-0.000315626,0.090875268,-0.066041611,9.804059029
1784243372.705065,-0.004179932,-0.011260044,0.947513819,0.000365216,-0.000597056,-0.000084606,0.100036502,-0.048873708,9.830630302
1784243372.707105,-0.004179752,-0.011260130,0.947513819,0.000462402,-0.000545794,0.000103900,0.107006453,-0.032480400,9.780978203
1784243372.709266,-0.004179752,-0.011260130,0.947513819,0.000480785,-0.000398229,-0.000029022,0.109358087,-0.022739854,9.793147087
1784243372.711091,-0.004179752,-0.011260130,0.947513819,-0.000160796,-0.000609202,0.000124057,0.123844415,-0.012998728,9.783359528
1784243372.713082,-0.004178465,-0.011261160,0.947513819,-0.000483934,-0.000870453,-0.000089730,0.153010413,-0.012559181,9.795046806
1784243372.715115,-0.004178465,-0.011261160,0.947513819,0.000257837,-0.001086540,-0.000695357,0.131822035,-0.020368164,9.797218323
1784243372.717091,-0.004177998,-0.011261762,0.947513819,0.000894151,-0.000705791,-0.001007037,0.091701314,-0.071479514,9.811199188
1784243372.719100,-0.004177998,-0.011261762,0.947513819,0.001394158,-0.000288029,-0.000709750,0.060922183,-0.056277838,9.808127403
1784243372.721090,-0.004177998,-0.011261762,0.947513819,0.001628367,-0.000323722,-0.000585540,0.103484049,-0.025419651,9.802539825
1784243372.723091,-0.004177648,-0.011261621,0.947513819,0.001344316,-0.000596700,-0.000515204,0.100193352,-0.001129704,9.795069695
1784243372.725087,-0.004177648,-0.011261621,0.947513819,0.001210548,-0.000636682,-0.000083876,0.119703732,-0.021455066,9.782853127
1784243372.727108,-0.004177250,-0.011261649,0.947513819,0.000895780,-0.000716910,0.000139454,0.086845584,-0.027926499,9.806990623
1784243372.729100,-0.004177250,-0.011261649,0.947513819,0.000631964,-0.000700772,-0.000058529,0.120855570,-0.073158935,9.805835724
1784243372.731124,-0.004177250,-0.011261649,0.947513819,0.000483150,-0.000058516,-0.000361642,0.129157186,-0.057707421,9.760212898
1784243372.733100,-0.004177866,-0.011263306,0.947513819,0.000193555,0.000410317,-0.000420273,0.098144770,-0.060557742,9.775856972
1784243372.735106,-0.004177866,-0.011263306,0.947513819,0.000071081,0.000536020,-0.000644565,0.083545908,-0.042513158,9.784925461
1784243372.737108,-0.004177676,-0.011261716,0.947513819,0.000215244,0.000480862,-0.000772302,0.091742083,0.006048340,9.809006691
1784243372.739105,-0.004177676,-0.011261716,0.947513819,0.000459416,0.000092658,-0.000126951,0.092521511,-0.004215389,9.801767349
1784243372.741112,-0.004177676,-0.011261716,0.947513819,0.000076596,-0.000202209,0.000360274,0.119563505,-0.033098880,9.782330513
1784243372.743112,-0.004176646,-0.011261976,0.947513819,-0.000754900,0.000204014,0.000212344,0.115207262,-0.059467301,9.780812263
1784243372.745108,-0.004176646,-0.011261976,0.947513819,-0.001088212,0.000657670,0.000322512,0.110843033,-0.049119428,9.782667160
1784243372.747131,-0.004176612,-0.011261654,0.947513819,-0.000938849,0.000497172,0.000527018,0.130870983,-0.025643168,9.784630775
1784243372.749114,-0.004176612,-0.011261654,0.947513819,-0.000578682,0.000145543,0.000350158,0.113404177,-0.021514488,9.802572250
1784243372.751103,-0.004176612,-0.011261654,0.947513819,-0.000004925,0.000211342,0.000006984,0.079107285,-0.037210502,9.803336143
1784243372.753114,-0.004176498,-0.011260711,0.947513819,0.000451504,0.000544746,0.000101621,0.078325078,-0.027779106,9.801602364
1784243372.755115,-0.004176498,-0.011260711,0.947513819,0.000545011,0.000482558,0.000439261,0.121447153,-0.024315279,9.803908348
1784243372.757108,-0.004175249,-0.011261805,0.947513819,0.000653408,0.000657348,-0.000053606,0.115677506,-0.018471098,9.811562538
1784243372.759109,-0.004175249,-0.011261805,0.947513819,0.000716073,0.000894401,-0.000664794,0.109676063,-0.031882890,9.818195343
1784243372.761114,-0.004175249,-0.011261805,0.947513819,0.000484942,0.000705775,-0.000408470,0.101549461,-0.037847359,9.789455414
1784243372.763114,-0.004174945,-0.011261146,0.947513819,0.000375029,0.000876044,-0.000599022,0.116747409,-0.042147614,9.799755096
1784243372.765114,-0.004174945,-0.011261146,0.947513819,0.000298470,0.001254027,-0.001061350,0.125549808,-0.019401295,9.798563957
1784243372.767117,-0.004174198,-0.011261989,0.947513819,0.000147813,0.001256433,-0.000749956,0.090126902,-0.053506270,9.806828499
1784243372.769122,-0.004174198,-0.011261989,0.947513819,0.000286755,0.000824187,-0.000633443,0.059820510,-0.036499433,9.801081657
1784243372.771127,-0.004174198,-0.011261989,0.947513819,0.000445115,0.000726114,-0.000781940,0.119544514,0.002314876,9.779867172
1784243372.773119,-0.004171483,-0.011262107,0.947513938,0.000293902,0.001141861,-0.000617050,0.124324612,-0.007892863,9.820605278
1784243372.775127,-0.004171483,-0.011262107,0.947513938,-0.000036480,0.001211232,-0.000191699,0.107006967,-0.031260520,9.798469543
1784243372.777124,-0.004170794,-0.011262048,0.947513938,-0.000012293,0.000647714,-0.000011199,0.094282322,-0.007748945,9.791435242
1784243372.779130,-0.004170794,-0.011262048,0.947513938,0.000236071,-0.000231278,-0.000206882,0.082714736,-0.035899892,9.801554680
1784243372.781121,-0.004170794,-0.011262048,0.947513938,0.000327559,-0.000798210,-0.000421376,0.105943725,-0.045526553,9.790307045
1784243372.783129,-0.004171155,-0.011261368,0.947513938,0.000399428,-0.000795407,-0.000882188,0.110901222,-0.042581245,9.808264732
1784243372.785127,-0.004171155,-0.011261368,0.947513938,0.000327241,-0.000524358,-0.000837496,0.088251822,-0.023416435,9.800294876
1784243372.787131,-0.004169633,-0.011260713,0.947513938,-0.000085790,0.000012439,0.000261436,0.110579684,-0.031440068,9.817302704
1784243372.789133,-0.004169633,-0.011260713,0.947513938,-0.000440722,0.000422072,0.001062014,0.095172070,-0.007820858,9.799953461
1784243372.791136,-0.004169633,-0.011260713,0.947513938,-0.000518962,0.000437306,0.000542776,0.118111700,-0.005241881,9.773989677
1784243372.793133,-0.004167102,-0.011261335,0.947513938,-0.000721932,0.000201530,-0.000414749,0.085132487,-0.020774273,9.812414169
1784243372.795134,-0.004167102,-0.011261335,0.947513938,-0.000977709,0.000172381,-0.000696482,0.075938918,-0.039413244,9.803768158
1784243372.797138,-0.004166252,-0.011259881,0.947513938,-0.000766860,0.000215431,-0.000341126,0.085405275,-0.035137042,9.815461159
1784243372.799135,-0.004166252,-0.011259881,0.947513938,-0.000235238,0.000028496,-0.000371697,0.096090518,-0.044040285,9.788065910
1784243372.801147,-0.004166252,-0.011259881,0.947513938,0.000026924,-0.000172686,-0.001315171,0.094105437,-0.022518938,9.789547920
1784243372.803148,-0.004164924,-0.011259023,0.947513938,-0.000145523,-0.000442538,-0.001805176,0.110902764,-0.041758459,9.818582535
1784243372.805147,-0.004164924,-0.011259023,0.947513938,-0.000306598,-0.000339394,-0.001077418,0.118090965,-0.043400638,9.784502983
1784243372.807146,-0.004165106,-0.011259140,0.947513938,0.000101288,-0.000040024,0.000122747,0.103557229,-0.020383975,9.787327766
1784243372.809146,-0.004165106,-0.011259140,0.947513938,0.000306821,0.000000941,0.000689041,0.130696878,-0.039580837,9.791713715
1784243372.811148,-0.004165106,-0.011259140,0.947513938,0.000004397,-0.000139795,0.000359788,0.091343887,-0.027894961,9.794441223
1784243372.813147,-0.004165155,-0.011258421,0.947513938,-0.000036074,-0.000351700,0.000029348,0.080128908,-0.027325522,9.797573090
1784243372.815156,-0.004165155,-0.011258421,0.947513938,0.000259891,-0.000457021,0.000024089,0.103815265,0.001105440,9.789258957
1784243372.817154,-0.004162574,-0.011258581,0.947513938,0.000081566,-0.000169736,0.000057764,0.135546252,-0.008814866,9.804020882
1784243372.819157,-0.004162574,-0.011258581,0.947513938,-0.000697313,0.000243872,0.000190714,0.141970500,0.003170981,9.808139801
1784243372.821156,-0.004162574,-0.011258581,0.947513938,-0.000925805,0.000214775,0.000737560,0.100842819,-0.022551129,9.781931877
1784243372.823155,-0.004161456,-0.011258132,0.947513938,-0.000555554,-0.000316740,0.001224200,0.126790911,-0.027542254,9.807030678
1784243372.825164,-0.004161456,-0.011258132,0.947513938,-0.000447393,-0.000716769,0.001018778,0.111349568,-0.043400247,9.796602249
1784243372.827173,-0.004161198,-0.011257810,0.947513938,-0.000703568,-0.000352729,0.000240436,0.123872899,-0.045905963,9.811393738
1784243372.829164,-0.004161198,-0.011257810,0.947513938,-0.000635237,0.000071936,-0.000361388,0.097666122,-0.023603942,9.809717178
1784243372.831167,-0.004161198,-0.011257810,0.947513938,-0.000172388,0.000247310,-0.000222243,0.101456881,-0.045062430,9.796133995
1784243372.833165,-0.004160766,-0.011256862,0.947513938,-0.000178368,0.000414656,-0.000103149,0.092051335,-0.043184828,9.801069260
1784243372.835172,-0.004160766,-0.011256862,0.947513938,-0.000398981,0.000540669,-0.000305541,0.111138560,-0.060060661,9.808600426
1784243372.837170,-0.004161237,-0.011257067,0.947513938,-0.000199042,0.000573696,-0.000308321,0.110919751,-0.039598148,9.829804420
1784243372.839165,-0.004161237,-0.011257067,0.947513938,0.000088909,0.000310226,-0.000636655,0.093933493,-0.073624045,9.793702126
1784243372.841178,-0.004161237,-0.011257067,0.947513938,0.000121525,0.000374515,-0.001253785,0.117128089,-0.049174480,9.779086113
1784243372.843177,-0.004162967,-0.011256428,0.947513938,-0.000051533,0.000726248,-0.001178469,0.112755120,-0.037679851,9.808746338
1784243372.845175,-0.004162967,-0.011256428,0.947513938,-0.000258848,0.000295514,-0.000495745,0.093541533,-0.031933092,9.791278839
1784243372.847175,-0.004161950,-0.011255502,0.947513938,-0.000341330,-0.000238653,0.000596203,0.083429500,-0.051942609,9.788003922
1784243372.849180,-0.004161950,-0.011255502,0.947513938,-0.000105824,0.000015226,0.001684557,0.122219451,-0.036256384,9.780519485
1784243372.851182,-0.004161950,-0.011255502,0.947513938,0.000248183,0.000167410,0.001629084,0.117276661,-0.035843745,9.794414520
1784243372.853182,-0.004161876,-0.011256496,0.947513938,0.000230773,-0.000254306,0.000863195,0.111723937,-0.011671323,9.807566643
1784243372.855181,-0.004161876,-0.011256496,0.947513938,-0.000052472,-0.000504497,0.000287089,0.104109168,-0.012685351,9.774824142
1784243372.857186,-0.004160074,-0.011256821,0.947513938,-0.000147521,-0.000435748,-0.000167127,0.112365685,-0.035179928,9.772894859
1784243372.859186,-0.004160074,-0.011256821,0.947513938,0.000200731,-0.000263397,-0.000623036,0.097366191,-0.051097725,9.770089149
1784243372.861186,-0.004160074,-0.011256821,0.947513938,0.000675692,0.000238310,-0.001042973,0.100831471,-0.059420057,9.800077438
1784243372.863184,-0.004161016,-0.011255716,0.947513938,0.000697892,0.000733948,-0.001456993,0.124921285,-0.035404496,9.781872749
1784243372.865195,-0.004161016,-0.011255716,0.947513938,0.000421570,0.000757402,-0.001959518,0.127282798,-0.063581057,9.770485878
1784243372.867189,-0.004162444,-0.011255835,0.947513938,-0.000324277,0.000669819,-0.001911859,0.111577362,-0.024986148,9.789996147
1784243372.869211,-0.004162444,-0.011255835,0.947513938,-0.000960055,0.000531805,-0.001354197,0.105741709,-0.026147183,9.774740219
1784243372.871222,-0.004162444,-0.011255835,0.947513938,-0.000578206,-0.000009939,-0.000931010,0.127128080,-0.037749358,9.792619705
1784243372.873199,-0.004162303,-0.011256402,0.947513938,-0.000063809,-0.000351595,-0.000874778,0.100962609,-0.047442753,9.816741943
1784243372.875202,-0.004162303,-0.011256402,0.947513938,0.000280095,-0.000166513,-0.001102222,0.091787286,-0.027131965,9.812380791
1784243372.877200,-0.004161690,-0.011255463,0.947513938,0.000636804,-0.000178703,-0.000961681,0.083463646,-0.009625385,9.822795868
1784243372.879199,-0.004161690,-0.011255463,0.947513938,0.000767898,-0.000366851,-0.000752192,0.096565299,-0.039382372,9.825307846
1784243372.881210,-0.004161690,-0.011255463,0.947513938,0.000757954,-0.000180009,-0.000399374,0.104771703,-0.030761560,9.795332909
1784243372.883248,-0.004160671,-0.011254536,0.947513938,0.000312666,-0.000277258,0.000523571,0.121664822,-0.045597408,9.771940231
1784243372.885212,-0.004160671,-0.011254536,0.947513938,-0.000267258,-0.000596562,0.001067774,0.120222926,-0.015230702,9.788722038
1784243372.887228,-0.004159171,-0.011254241,0.947513938,-0.000233670,-0.000473662,0.001394718,0.101977527,-0.001641998,9.800896645
1784243372.889211,-0.004159171,-0.011254241,0.947513938,0.000027022,-0.000261125,0.001706161,0.102652408,-0.020836333,9.789566040
1784243372.891209,-0.004159171,-0.011254241,0.947513938,-0.000200492,-0.000350905,0.001461671,0.075258099,-0.021886745,9.797602654
1784243372.893213,-0.004157686,-0.011252893,0.947513938,-0.000965578,-0.000696836,0.001118581,0.100197129,-0.041121271,9.748187065
1784243372.895214,-0.004157686,-0.011252893,0.947513938,-0.001394607,-0.000700673,0.001267370,0.112152763,-0.053476378,9.762914658
1784243372.897216,-0.004158448,-0.011253363,0.947513938,-0.000925474,-0.000228465,0.001794841,0.136037856,-0.043640144,9.785863876
1784243372.899214,-0.004158448,-0.011253363,0.947513938,0.000103279,0.000020566,0.001782521,0.110792153,-0.053573601,9.779051781
1784243372.901219,-0.004158448,-0.011253363,0.947513938,0.000759094,-0.000207780,0.001247612,0.091244854,-0.035160899,9.808292389
1784243372.903229,-0.004159138,-0.011252560,0.947513938,0.000367456,-0.000421297,0.001271483,0.124408588,-0.039551232,9.798881531
1784243372.905224,-0.004159138,-0.011252560,0.947513938,-0.000421080,-0.000283760,0.001343862,0.112966985,-0.056576282,9.819385529
1784243372.907223,-0.004159348,-0.011252608,0.947513938,-0.001139416,-0.000215135,0.000926838,0.101300612,-0.020053528,9.807950974
1784243372.909221,-0.004159348,-0.011252608,0.947513938,-0.001447171,-0.000328574,0.000478058,0.114933021,-0.044710632,9.785389900
1784243372.911222,-0.004159348,-0.011252608,0.947513938,-0.001273883,-0.000416163,0.000260041,0.099362358,-0.031699780,9.811013222
1784243372.913234,-0.004158803,-0.011252014,0.947513938,-0.001002162,-0.000496881,-0.000331889,0.113547221,-0.047438387,9.793440819
1784243372.915232,-0.004158803,-0.011252014,0.947513938,-0.000512064,-0.000393964,-0.001231085,0.126923591,-0.052332126,9.827495575
1784243372.917235,-0.004159446,-0.011252218,0.947513938,0.000005076,-0.000327357,-0.000802824,0.085327372,-0.041831020,9.811831474
1784243372.919230,-0.004159446,-0.011252218,0.947513938,-0.000020559,-0.000443794,0.000699021,0.097781181,-0.018237581,9.747883797
1784243372.921231,-0.004159446,-0.011252218,0.947513938,-0.000038971,-0.000597960,0.001359470,0.108017839,-0.023081541,9.780590057
1784243372.923312,-0.004158614,-0.011252000,0.947513938,0.000510572,-0.000692473,0.000884848,0.107573174,-0.023043992,9.776106834
1784243372.925239,-0.004158614,-0.011252000,0.947513938,0.001077392,-0.000473473,0.000270182,0.099412695,-0.028465481,9.797135353
1784243372.927247,-0.004158530,-0.011251812,0.947513938,0.001206331,0.000192664,-0.000103018,0.097539283,-0.036762971,9.770180702
1784243372.929241,-0.004158530,-0.011251812,0.947513938,0.000827880,0.000484597,-0.000304510,0.087133229,-0.006608411,9.769915581
1784243372.931251,-0.004158530,-0.011251812,0.947513938,0.000526523,0.000013132,-0.000382940,0.113531210,-0.049185719,9.787152290
1784243372.933249,-0.004158175,-0.011251353,0.947513938,0.000741342,-0.000176337,0.000103027,0.140670329,-0.069602452,9.774044991
1784243372.935247,-0.004158175,-0.011251353,0.947513938,0.001045891,0.000077810,0.000820505,0.095434442,-0.060666334,9.796029091
1784243372.937251,-0.004158400,-0.011250520,0.947513938,0.001304758,0.000247212,0.000909908,0.083028503,-0.045481350,9.825255394
1784243372.939250,-0.004158400,-0.011250520,0.947513938,0.001565400,0.000229169,0.000432809,0.103345834,-0.037047558,9.799774170
1784243372.941246,-0.004158400,-0.011250520,0.947513938,0.001575305,0.000255071,-0.000095339,0.087836727,-0.019903310,9.811077118
1784243372.943252,-0.004157729,-0.011249924,0.947513938,0.001419502,0.000344928,-0.000028658,0.105141982,-0.001091201,9.780730247
1784243372.945257,-0.004157729,-0.011249924,0.947513938,0.001702077,0.000314351,0.000308842,0.102470070,-0.035244223,9.799785614
1784243372.947257,-0.004157794,-0.011249542,0.947513938,0.002112762,0.000742614,0.000106248,0.115645893,-0.059552543,9.792019844
1784243372.949257,-0.004157794,-0.011249542,0.947513938,0.001994815,0.001020774,0.000336897,0.123986475,-0.039335623,9.769292831
1784243372.951254,-0.004157794,-0.011249542,0.947513938,0.001211781,0.000400087,0.000968574,0.097976074,-0.036457479,9.789461136
1784243372.953263,-0.004157264,-0.011249567,0.947513938,-0.000008920,-0.000061073,0.001102729,0.082563907,-0.051679913,9.752584457
1784243372.955266,-0.004157264,-0.011249567,0.947513938,-0.001020278,-0.000069286,0.000804951,0.113504469,-0.015049071,9.775266647
1784243372.957263,-0.004156305,-0.011249701,0.947513938,-0.001338444,0.000137315,0.000409355,0.093638316,-0.024279604,9.785947800
1784243372.959267,-0.004156305,-0.011249701,0.947513938,-0.000488974,-0.000012821,0.000283676,0.114052437,-0.005355480,9.797298431
1784243372.961262,-0.004156305,-0.011249701,0.947513938,0.000470852,-0.000412307,-0.000061679,0.063175768,-0.018637124,9.803440094
1784243372.963265,-0.004155044,-0.011247618,0.947513938,0.000272978,-0.000168578,-0.000817164,0.091972902,-0.051098686,9.779947281
1784243372.965273,-0.004155044,-0.011247618,0.947513938,-0.000517086,0.000413583,-0.001637076,0.092603624,-0.034672961,9.800228119
1784243372.967273,-0.004154818,-0.011247177,0.947513938,-0.000537144,0.000521499,-0.001549283,0.099331692,-0.033968203,9.815032959
1784243372.969274,-0.004154818,-0.011247177,0.947513938,0.000056093,0.000086042,-0.000909567,0.121701770,-0.040847894,9.797077179
1784243372.971274,-0.004154818,-0.011247177,0.947513938,0.000491097,0.000038551,-0.000405930,0.117581010,-0.045904960,9.822595596
1784243372.973274,-0.004154843,-0.011247605,0.947513938,0.000634543,0.000672127,-0.000089744,0.095500961,-0.055278074,9.794269562
1784243372.975281,-0.004154843,-0.011247605,0.947513938,0.001011314,0.001238519,0.000177714,0.100079887,-0.046910156,9.806432724
1784243372.977279,-0.004154649,-0.011247502,0.947513938,0.001460775,0.001179382,0.000677086,0.085618585,-0.054427370,9.818475723
1784243372.979277,-0.004154649,-0.011247502,0.947513938,0.001314221,0.000728869,0.000803176,0.080954097,-0.069549687,9.811201096
1784243372.981278,-0.004154649,-0.011247502,0.947513938,0.000976260,0.000745485,0.000842429,0.108195238,-0.044681631,9.793454170
1784243372.983283,-0.004155311,-0.011247594,0.947513938,0.000734914,0.001119956,0.000475912,0.116968192,-0.024194194,9.794937134
1784243372.985286,-0.004155311,-0.011247594,0.947513938,0.000594262,0.001109811,-0.000677151,0.121166714,-0.010012928,9.809379578
1784243372.987284,-0.004154136,-0.011248085,0.947513938,0.000307191,0.000849656,-0.001067552,0.126456842,-0.018526407,9.799915314
1784243372.989286,-0.004154136,-0.011248085,0.947513938,0.000403112,0.000615977,-0.000557437,0.118277647,-0.027337626,9.793573380
1784243372.991286,-0.004154136,-0.011248085,0.947513938,0.000565272,0.000607075,-0.000238933,0.105949603,-0.008295512,9.784270287
1784243372.993287,-0.004151875,-0.011248150,0.947514057,0.000321710,0.000551709,-0.000206323,0.123216875,-0.028588949,9.771602631
1784243372.995292,-0.004151875,-0.011248150,0.947514057,0.000774782,0.000236250,-0.000453876,0.099148922,-0.051216111,9.783538818
1784243372.997293,-0.004152723,-0.011247458,0.947513938,0.001355413,-0.000125244,-0.000147152,0.076866694,-0.038779642,9.775975227
1784243372.999301,-0.004152723,-0.011247458,0.947513938,0.001217673,-0.000208194,0.000997050,0.099018894,-0.023973763,9.796267509
1784243373.001300,-0.004152723,-0.011247458,0.947513938,0.000688651,0.000046856,0.001037386,0.090515226,-0.022882756,9.784161568
1784243373.003305,-0.004151637,-0.011246659,0.947513938,0.000017120,0.000313717,0.000091969,0.110110775,-0.036456902,9.767504692
1784243373.005301,-0.004151637,-0.011246659,0.947513938,-0.000381949,0.000576491,-0.000162989,0.125006169,-0.027439764,9.795821190
1784243373.007310,-0.004151141,-0.011247012,0.947514057,-0.000118078,0.000274411,-0.000097867,0.118631355,-0.034577530,9.802942276
1784243373.009304,-0.004151141,-0.011247012,0.947514057,0.000282242,-0.000793083,-0.000181180,0.109833829,-0.055258926,9.828805923
1784243373.011306,-0.004151141,-0.011247012,0.947514057,0.000175433,-0.001603218,-0.000116323,0.117504008,-0.016622758,9.800367355
1784243373.013305,-0.004150635,-0.011247422,0.947514057,-0.000166596,-0.001402674,0.000602827,0.111756451,-0.009793629,9.795474052
1784243373.015315,-0.004150635,-0.011247422,0.947514057,-0.000628014,-0.000734750,0.001526430,0.080564156,-0.027842823,9.806536674
1784243373.017312,-0.004150332,-0.011245439,0.947513938,-0.001003925,-0.000694515,0.001673212,0.083120674,-0.041106302,9.776864052
1784243373.019310,-0.004150332,-0.011245439,0.947513938,-0.001029597,-0.001205531,0.001398438,0.090386063,-0.034034085,9.777364731
1784243373.021311,-0.004150332,-0.011245439,0.947513938,-0.000467096,-0.001349745,0.001146306,0.090632401,-0.012636882,9.792297363
1784243373.023314,-0.004148950,-0.011244451,0.947514057,-0.000050995,-0.000878676,0.000929747,0.126118064,-0.011978934,9.761848450
1784243373.025321,-0.004148950,-0.011244451,0.947514057,-0.000521793,-0.000185731,0.000862964,0.152041763,-0.019594235,9.777965546
1784243373.027324,-0.004147809,-0.011246774,0.947514057,-0.000756614,0.000299574,0.000868532,0.131815463,-0.021635735,9.786450386
1784243373.029322,-0.004147809,-0.011246774,0.947514057,0.000153400,0.000282025,0.000781980,0.121615455,-0.048418716,9.790752411
1784243373.031320,-0.004147809,-0.011246774,0.947514057,0.001157439,-0.000003097,0.000501330,0.110822320,-0.049688209,9.799699783
1784243373.033327,-0.004148046,-0.011248142,0.947514057,0.001112392,-0.000112548,0.000314245,0.100924984,-0.050981920,9.810441971
1784243373.035324,-0.004148046,-0.011248142,0.947514057,0.000375217,-0.000077799,0.000357993,0.135642156,-0.037947621,9.805179596
1784243373.037334,-0.004147498,-0.011249494,0.947514057,-0.000166289,-0.000536423,0.000062226,0.115625262,-0.023341438,9.803461075
1784243373.039330,-0.004147498,-0.011249494,0.947514057,-0.000076852,-0.001254060,-0.000100449,0.101718642,-0.022327702,9.811972618
1784243373.041330,-0.004147498,-0.011249494,0.947514057,0.000521026,-0.000938514,0.000093442,0.111838266,-0.039037678,9.812323570
1784243373.043339,-0.004148089,-0.011249925,0.947514057,0.000942437,-0.000383398,0.000055961,0.106954098,-0.035730600,9.797096252
1784243373.045338,-0.004148089,-0.011249925,0.947514057,0.000502462,-0.000545593,-0.000192309,0.094849430,-0.035899319,9.779597282
1784243373.047336,-0.004147748,-0.011248698,0.947514057,0.000253524,-0.000701406,-0.000228853,0.087097503,-0.008511544,9.785594940
1784243373.049340,-0.004147748,-0.011248698,0.947514057,0.000525632,-0.000676031,-0.000217877,0.097472727,-0.038504306,9.826210022
1784243373.051338,-0.004147748,-0.011248698,0.947514057,0.000525510,-0.000724082,-0.000752121,0.082712136,-0.036325604,9.798414230
1784243373.053337,-0.004147295,-0.011247660,0.947514057,0.000941854,-0.000762027,-0.001393392,0.100713626,-0.033702467,9.775135040
1784243373.055348,-0.004147295,-0.011247660,0.947514057,0.001477997,-0.000885276,-0.001355263,0.097575493,-0.029993044,9.826266289
1784243373.057343,-0.004146906,-0.011247039,0.947514057,0.001017022,-0.001075534,-0.001058623,0.105811797,-0.019920249,9.781058311
1784243373.059344,-0.004146906,-0.011247039,0.947514057,0.000017644,-0.000738227,-0.000967289,0.103112847,-0.021559946,9.764454842
1784243373.061347,-0.004146906,-0.011247039,0.947514057,-0.000580439,-0.000082688,-0.000446968,0.098426342,-0.035640441,9.799777985
1784243373.063356,-0.004146790,-0.011246724,0.947514057,-0.000842080,-0.000166758,0.000218057,0.074096933,-0.041789036,9.826167107
1784243373.065355,-0.004146790,-0.011246724,0.947514057,-0.000716132,-0.001234168,-0.000151017,0.107762583,-0.043738622,9.787630081
1784243373.067357,-0.004147309,-0.011247343,0.947514057,0.000230136,-0.001571221,-0.000379968,0.110261403,-0.061510321,9.761964798
1784243373.069382,-0.004147309,-0.011247343,0.947514057,0.001001627,-0.000707451,0.000398248,0.123212039,-0.028627105,9.776983261
1784243373.071367,-0.004147309,-0.011247343,0.947514057,0.000750601,-0.000033107,0.000909975,0.127901152,-0.011284066,9.786961555
1784243373.073367,-0.004146560,-0.011248280,0.947514057,0.000603028,0.000210535,0.000505211,0.116726637,-0.007153204,9.793253899
1784243373.075362,-0.004146560,-0.011248280,0.947514057,0.000907991,0.000042479,0.000064661,0.066153906,-0.030499239,9.828025818
1784243373.077365,-0.004146501,-0.011246589,0.947514057,0.000945524,-0.000350269,0.000121013,0.069640227,-0.040276371,9.810482025
1784243373.079366,-0.004146501,-0.011246589,0.947514057,0.001047391,-0.000386524,0.000380197,0.099391177,-0.029040627,9.815064430
1784243373.081371,-0.004146501,-0.011246589,0.947514057,0.001284507,-0.000256684,0.001220005,0.087401710,-0.019789454,9.795834541
1784243373.083366,-0.004145807,-0.011245674,0.947514057,0.001183411,-0.000445913,0.001631209,0.105181150,-0.034319200,9.790827751
1784243373.085369,-0.004145807,-0.011245674,0.947514057,0.000786400,-0.000592522,0.000991511,0.119972669,-0.073032968,9.789696693
1784243373.087375,-0.004146898,-0.011245918,0.947514057,0.000501365,-0.000461174,-0.000159138,0.105087064,-0.043167133,9.775077820
1784243373.089475,-0.004146898,-0.011245918,0.947514057,0.000309396,-0.000669320,-0.001378129,0.124113932,-0.026576862,9.802102089
1784243373.091453,-0.004146898,-0.011245918,0.947514057,-0.000196113,-0.001037427,-0.001545867,0.111595437,-0.024032995,9.781931877
1784243373.093405,-0.004146494,-0.011246231,0.947514057,-0.000689176,-0.000967240,-0.000854043,0.089970909,-0.029710889,9.800256729
1784243373.095402,-0.004146494,-0.011246231,0.947514057,-0.001047477,-0.000966353,-0.000964097,0.079196125,-0.031240748,9.782751083
1784243373.097479,-0.004146430,-0.011244974,0.947514057,-0.001346731,-0.001215622,-0.001316500,0.109665409,-0.035209026,9.781859398
1784243373.099416,-0.004146430,-0.011244974,0.947514057,-0.001343324,-0.000863166,-0.000992237,0.091400728,-0.060172979,9.796924591
1784243373.101415,-0.004146430,-0.011244974,0.947514057,-0.000975530,-0.000250802,-0.000681246,0.111621849,-0.021392919,9.788674355
1784243373.103444,-0.004145762,-0.011244915,0.947514057,-0.000893391,-0.000323015,-0.000728653,0.135634512,-0.038008042,9.813697815
1784243373.105415,-0.004145762,-0.011244915,0.947514057,-0.001470706,-0.000729953,-0.000567604,0.093929358,-0.034445740,9.828924179
1784243373.107398,-0.004145222,-0.011244119,0.947514057,-0.001965543,-0.001135589,-0.000126076,0.090233073,-0.006972983,9.815647125
1784243373.109428,-0.004145222,-0.011244119,0.947514057,-0.001982692,-0.001470237,0.000105641,0.094392635,0.002442877,9.807192802
1784243373.111412,-0.004145222,-0.011244119,0.947514057,-0.001862651,-0.001140144,0.000386163,0.103936367,-0.025396783,9.798504829
1784243373.113399,-0.004143567,-0.011244052,0.947514057,-0.001584659,-0.000071773,0.000270503,0.095352687,-0.029395510,9.809229851
1784243373.115409,-0.004143567,-0.011244052,0.947514057,-0.001292375,0.000581443,-0.000121189,0.104072750,-0.013378144,9.809341431
1784243373.117422,-0.004141479,-0.011243307,0.947514057,-0.000981611,0.000206524,0.000202645,0.101485789,-0.005623382,9.794593811
1784243373.119405,-0.004141479,-0.011243307,0.947514057,-0.000649867,-0.000285720,0.000762433,0.148624822,-0.005216666,9.778502464
1784243373.121405,-0.004141479,-0.011243307,0.947514057,-0.000494017,-0.000369195,0.000485661,0.138278767,-0.044094592,9.782726288
1784243373.123410,-0.004141815,-0.011245790,0.947513938,-0.000103637,-0.000016022,-0.000200617,0.077969536,-0.020148480,9.800306320
1784243373.125413,-0.004141815,-0.011245790,0.947513938,0.000272144,0.000347827,-0.000627618,0.122760527,-0.025806775,9.822280884
1784243373.127418,-0.004141118,-0.011247134,0.947513938,0.000159884,0.000023298,-0.000978685,0.117612764,-0.044843704,9.799288750
1784243373.129415,-0.004141118,-0.011247134,0.947513938,0.000293560,-0.000271765,-0.000855330,0.097770773,-0.016293481,9.789589882
1784243373.131415,-0.004141118,-0.011247134,0.947513938,0.000504118,-0.000073400,-0.000853243,0.120837212,-0.038145453,9.796646118
1784243373.133462,-0.004141616,-0.011247988,0.947513938,-0.000085239,-0.000117216,-0.001124730,0.111503206,-0.030434817,9.800273895
1784243373.135431,-0.004141616,-0.011247988,0.947513938,-0.000554746,-0.000456460,-0.001035452,0.150003195,-0.075295866,9.801815033
1784243373.137426,-0.004142724,-0.011249932,0.947513938,-0.000097693,-0.000318001,-0.000678168,0.117829502,-0.064512044,9.792438507
1784243373.139422,-0.004142724,-0.011249932,0.947513938,0.000584965,0.000389960,-0.000233433,0.116514832,-0.023819976,9.806147575
1784243373.141417,-0.004142724,-0.011249932,0.947513938,0.000718005,0.000587747,-0.000254783,0.112321727,0.000036693,9.798228264
1784243373.143436,-0.004140592,-0.011249849,0.947514057,0.000142611,0.000415428,-0.000327323,0.091187961,-0.002072805,9.817920685
1784243373.145427,-0.004140592,-0.011249849,0.947514057,-0.000620133,0.000380940,0.000053037,0.100159071,-0.003426745,9.803124428
1784243373.147424,-0.004138831,-0.011249439,0.947514057,-0.000816582,0.000240849,0.000835506,0.100853063,-0.019228164,9.818716049
1784243373.149428,-0.004138831,-0.011249439,0.947514057,-0.000687613,0.000190632,0.001279885,0.128480300,-0.038528983,9.773785591
1784243373.151429,-0.004138831,-0.011249439,0.947514057,-0.000175709,0.000154967,0.000719741,0.129567802,-0.057608616,9.808633804
1784243373.153429,-0.004140076,-0.011250111,0.947514057,0.000723176,0.000250083,0.000186830,0.126001149,-0.019791413,9.789595604
1784243373.155429,-0.004140076,-0.011250111,0.947514057,0.000960507,0.000337115,0.000574273,0.105314367,-0.023136074,9.793140411
1784243373.157433,-0.004138929,-0.011249672,0.947514057,0.000589527,0.000280055,0.000909141,0.098197676,-0.018497702,9.783748627
1784243373.159432,-0.004138929,-0.011249672,0.947514057,0.000611316,0.000382432,0.000648904,0.089842528,-0.040855866,9.792563438
1784243373.161432,-0.004138929,-0.011249672,0.947514057,0.000790339,0.000421357,0.000116401,0.109060079,-0.048597593,9.775496483
1784243373.163443,-0.004139222,-0.011249804,0.947514057,0.000359561,0.000313874,-0.000616155,0.116179481,-0.051593561,9.805969238
1784243373.165437,-0.004139222,-0.011249804,0.947514057,-0.000155014,0.000075414,-0.001096871,0.137508377,-0.033354282,9.785932541
1784243373.167445,-0.004138905,-0.011250979,0.947514057,-0.000239180,0.000147232,-0.000903682,0.114220224,-0.027841955,9.808810234
1784243373.169440,-0.004138905,-0.011250979,0.947514057,-0.000132432,0.000753942,-0.000470762,0.096262343,-0.028904995,9.801612854
1784243373.171447,-0.004138905,-0.011250979,0.947514057,0.000017693,0.001230257,-0.000010663,0.119844012,-0.045374457,9.806910515
1784243373.173446,-0.004138983,-0.011250718,0.947514057,0.000250427,0.001340267,0.000594166,0.116780259,-0.039456666,9.799324036
1784243373.175448,-0.004138983,-0.011250718,0.947514057,0.000220579,0.001386228,0.001088427,0.076234445,-0.015601352,9.794057846
1784243373.177443,-0.004137202,-0.011248988,0.947514057,-0.000273501,0.001191478,0.001338157,0.096461020,-0.049526490,9.802825928
1784243373.179450,-0.004137202,-0.011248988,0.947514057,-0.000350898,0.000381806,0.001318242,0.147076070,-0.020172916,9.805304527
1784243373.181445,-0.004137202,-0.011248988,0.947514057,-0.000247363,-0.000374405,0.001736304,0.117558561,-0.012950038,9.787837982
1784243373.183549,-0.004136437,-0.011249593,0.947514057,-0.000692428,-0.000559922,0.002078170,0.106603406,0.009528156,9.796937943
1784243373.185495,-0.004136437,-0.011249593,0.947514057,-0.000902236,-0.000366120,0.001318330,0.123415276,-0.010406963,9.797722816
1784243373.187470,-0.004134896,-0.011250262,0.947514057,-0.000507932,0.000166363,0.000569273,0.118466541,-0.049252134,9.787604332
1784243373.189535,-0.004134896,-0.011250262,0.947514057,-0.000401631,0.000573336,0.000167827,0.088627264,-0.030484637,9.785455704
1784243373.191466,-0.004134896,-0.011250262,0.947514057,-0.000581243,0.000442485,-0.000434293,0.091686480,-0.037654098,9.780032158
1784243373.193465,-0.004134806,-0.011249006,0.947514057,-0.000046902,0.000067898,-0.000530446,0.106229708,-0.058164239,9.802780151
1784243373.195472,-0.004134806,-0.011249006,0.947514057,0.000507844,0.000115335,-0.000291563,0.114884973,-0.049142551,9.778635979
1784243373.197463,-0.004134850,-0.011249280,0.947514057,0.000352227,0.000210258,-0.000172249,0.121155433,-0.047691923,9.815414429
1784243373.199460,-0.004134850,-0.011249280,0.947514057,0.000183346,0.000154233,-0.000122218,0.133384213,-0.038843419,9.809206963
1784243373.201471,-0.004134850,-0.011249280,0.947514057,-0.000204785,0.000639362,-0.000263781,0.090506956,-0.022542899,9.799407959
1784243373.203478,-0.004133681,-0.011248695,0.947514057,-0.000760631,0.000885842,-0.000061056,0.085533991,-0.026015654,9.792654991
1784243373.205473,-0.004133681,-0.011248695,0.947514057,-0.000450249,0.000355054,0.000192116,0.104762264,0.003511810,9.764170647
1784243373.207476,-0.004130060,-0.011248478,0.947514057,0.000173694,-0.000000686,0.000503716,0.102440432,-0.037909728,9.796630859
1784243373.209478,-0.004130060,-0.011248478,0.947514057,0.000051055,-0.000057616,0.001055856,0.089718290,-0.050752342,9.798327446
1784243373.211476,-0.004130060,-0.011248478,0.947514057,-0.000215807,0.000138697,0.001152246,0.082516566,-0.051648483,9.811318398
1784243373.213472,-0.004130448,-0.011246492,0.947514057,-0.000372320,0.000355734,0.000825798,0.104305781,-0.032512676,9.790389061
1784243373.215522,-0.004130448,-0.011246492,0.947514057,-0.000959173,0.000266841,0.000603908,0.086862616,-0.026576249,9.806102753
1784243373.217506,-0.004128938,-0.011244955,0.947514057,-0.001331648,0.000256042,0.000352393,0.103579864,-0.015342305,9.834435463
1784243373.219488,-0.004128938,-0.011244955,0.947514057,-0.000699195,0.000062976,-0.000570553,0.090240307,-0.044505712,9.801058769
1784243373.221482,-0.004128938,-0.011244955,0.947514057,0.000140319,-0.000206531,-0.001441596,0.076910496,-0.033976078,9.793493271
1784243373.223487,-0.004129251,-0.011243034,0.947514057,0.000355491,-0.000150141,-0.001497705,0.095085077,-0.014181344,9.812467575
1784243373.225491,-0.004129251,-0.011243034,0.947514057,0.000386140,-0.000019035,-0.001321657,0.111217737,-0.054167215,9.798774719
1784243373.227495,-0.004130046,-0.011243060,0.947514057,0.000371831,0.000040650,-0.001157562,0.124648824,-0.057818450,9.783970833
1784243373.229489,-0.004130046,-0.011243060,0.947514057,0.000538777,-0.000171542,-0.000750335,0.124739282,-0.048999138,9.803752899
1784243373.231488,-0.004130046,-0.011243060,0.947514057,0.000768589,-0.000345510,-0.000417506,0.112151392,-0.051055703,9.800589561
1784243373.233490,-0.004131090,-0.011244082,0.947514057,0.000379247,-0.000054251,0.000151333,0.114413276,-0.013754846,9.780656815
1784243373.235497,-0.004131090,-0.011244082,0.947514057,0.000251548,-0.000403611,0.000869726,0.095909335,-0.022875434,9.773406029
1784243373.237503,-0.004130526,-0.011243100,0.947514057,0.000860303,-0.001076675,0.000904452,0.103066869,-0.023949195,9.785511017
1784243373.239493,-0.004130526,-0.011243100,0.947514057,0.001383070,-0.001059998,0.000300887,0.131045207,-0.048078764,9.788969040
1784243373.241500,-0.004130526,-0.011243100,0.947514057,0.001170684,-0.000735245,-0.000174108,0.098842457,-0.039550651,9.781820297
1784243373.243496,-0.004130093,-0.011243070,0.947514057,0.000401263,-0.000352029,0.000129568,0.076079093,-0.026959362,9.816399574
1784243373.245498,-0.004130093,-0.011243070,0.947514057,0.000131467,0.000085223,0.000478498,0.106833488,-0.045598458,9.798825264
1784243373.247503,-0.004130041,-0.011243237,0.947514057,0.000565340,0.000128410,0.000497485,0.095466055,-0.019584885,9.815570831
1784243373.249695,-0.004130041,-0.011243237,0.947514057,0.000931037,-0.000254978,0.000563239,0.100732736,-0.030309554,9.802057266
1784243373.251549,-0.004130041,-0.011243237,0.947514057,0.000984629,-0.000188885,0.000432208,0.084192842,-0.024743555,9.805215836
1784243373.253557,-0.004129193,-0.011241712,0.947514057,0.000993275,0.000364344,0.000213157,0.097447276,-0.043568239,9.782241821
1784243373.255538,-0.004129193,-0.011241712,0.947514057,0.001056604,0.001071409,0.000271986,0.133486912,-0.069948897,9.772691727
1784243373.257531,-0.004130501,-0.011243386,0.947514057,0.001118024,0.001281674,0.000096547,0.114026085,-0.043558754,9.814088821
1784243373.259522,-0.004130501,-0.011243386,0.947514057,0.001269209,0.001183484,-0.000321318,0.124533638,-0.029648384,9.792222023
1784243373.261523,-0.004130501,-0.011243386,0.947514057,0.001414916,0.001197582,0.000024669,0.113375351,-0.024173636,9.798521996
1784243373.263521,-0.004130211,-0.011244048,0.947514057,0.000935244,0.000635537,0.000705842,0.104464255,-0.019509092,9.788679123
1784243373.265523,-0.004130211,-0.011244048,0.947514057,-0.000014273,-0.000196318,0.000693312,0.108223043,-0.041625392,9.804681778
1784243373.267527,-0.004130061,-0.011244135,0.947514057,-0.000535688,-0.000224746,0.000128066,0.082705982,-0.037589997,9.787198067
1784243373.269531,-0.004130061,-0.011244135,0.947514057,-0.000728740,0.000310394,-0.000262265,0.110210076,-0.065157607,9.770907402
1784243373.271524,-0.004130061,-0.011244135,0.947514057,-0.000945598,0.000516088,0.000264568,0.107621036,-0.056608666,9.770510674
1784243373.273524,-0.004130350,-0.011243834,0.947514057,-0.001069867,0.000501806,0.000936329,0.122811429,-0.059752632,9.807270050
1784243373.275528,-0.004130350,-0.011243834,0.947514057,-0.001084176,0.000710556,0.000777176,0.112331606,-0.037880410,9.774670601
1784243373.277527,-0.004129766,-0.011243415,0.947514057,-0.001000562,0.001150929,0.000446369,0.091903083,-0.017302262,9.816030502
1784243373.279528,-0.004129766,-0.011243415,0.947514057,-0.000871058,0.001076453,-0.000031388,0.105715014,-0.027573738,9.786388397
1784243373.281535,-0.004129766,-0.011243415,0.947514057,-0.000980134,0.000522738,-0.000761622,0.121406354,-0.028689960,9.789085388
1784243373.283544,-0.004129213,-0.011243585,0.947514057,-0.001414121,0.000806270,-0.001145912,0.121431217,-0.026872678,9.785510063
1784243373.285543,-0.004129213,-0.011243585,0.947514057,-0.001491520,0.001404789,-0.001188626,0.129638866,-0.016215557,9.784241676
1784243373.287540,-0.004128284,-0.011244658,0.947514057,-0.001088371,0.000968898,-0.000736472,0.098360218,-0.041025508,9.801088333
1784243373.289610,-0.004128284,-0.011244658,0.947514057,-0.000853469,0.000290345,-0.000138410,0.111822672,-0.040781833,9.805585861
1784243373.291560,-0.004128284,-0.011244658,0.947514057,-0.000409877,-0.000151144,0.000009170,0.136881247,-0.046104483,9.815889359
1784243373.293543,-0.004128489,-0.011247491,0.947514057,0.000097773,-0.000132769,0.000118868,0.096453786,-0.049583726,9.810895920
1784243373.295600,-0.004128489,-0.011247491,0.947514057,0.000021021,0.000459303,0.000544281,0.111093752,-0.026877170,9.804778099
1784243373.297554,-0.004126641,-0.011247412,0.947514117,-0.000001592,0.000602939,0.000744329,0.094002508,0.006153135,9.790179253
1784243373.299553,-0.004126641,-0.011247412,0.947514117,0.000303944,0.000310335,0.000527324,0.119373910,-0.012810874,9.764974594
1784243373.301560,-0.004126641,-0.011247412,0.947514117,0.000421057,0.000403526,0.000497140,0.103858635,-0.031684138,9.800704956
1784243373.303560,-0.004126118,-0.011247523,0.947514117,0.000273115,0.000758485,0.001035986,0.117814139,-0.029069670,9.785941124
1784243373.305560,-0.004126118,-0.011247523,0.947514117,0.000270936,0.000781055,0.001571797,0.137637317,-0.059389479,9.792490959
1784243373.307551,-0.004127828,-0.011249536,0.947514117,0.001151120,0.000357447,0.001726406,0.120080851,-0.064073749,9.789753914
1784243373.309559,-0.004127828,-0.011249536,0.947514117,0.001669409,0.000339493,0.001623839,0.099810310,-0.032521963,9.799798965
1784243373.311554,-0.004127828,-0.011249536,0.947514117,0.000732322,0.000721229,0.001115987,0.097158544,-0.028926030,9.802959442
1784243373.313560,-0.004127197,-0.011248710,0.947514117,0.000134106,0.000405653,0.000544280,0.101993561,-0.038294710,9.788557053
1784243373.315563,-0.004127197,-0.011248710,0.947514117,0.000540328,-0.000483062,0.000414293,0.094788969,-0.038403038,9.816793442
1784243373.317564,-0.004127077,-0.011246958,0.947514117,0.000929529,-0.000721600,0.000989942,0.099377140,-0.029961986,9.818645477
1784243373.319562,-0.004127077,-0.011246958,0.947514117,0.000676982,-0.000295950,0.001465939,0.118289724,-0.027242241,9.780124664
1784243373.321575,-0.004127077,-0.011246958,0.947514117,0.000257326,-0.000159998,0.001269800,0.102550164,-0.028127717,9.807003975
1784243373.323569,-0.004126703,-0.011246499,0.947514117,0.000509689,-0.000353082,0.000819292,0.108671285,-0.040824249,9.817240715
1784243373.325567,-0.004126703,-0.011246499,0.947514117,0.000997806,-0.000784899,0.000471912,0.120508552,-0.028681640,9.789532661
1784243373.327575,-0.004126208,-0.011247361,0.947514117,0.001086753,-0.000664949,0.000275002,0.098629855,-0.018633818,9.802129745
1784243373.329574,-0.004126208,-0.011247361,0.947514117,0.000995852,0.000142087,0.000460250,0.089919806,-0.033761613,9.802920341
1784243373.331577,-0.004126208,-0.011247361,0.947514117,0.000815935,0.000280365,0.000736929,0.105526634,-0.042029321,9.803331375
1784243373.333573,-0.004125853,-0.011247043,0.947514117,0.000209523,-0.000222317,0.000374764,0.112810232,-0.033597328,9.801598549
1784243373.335613,-0.004125853,-0.011247043,0.947514117,-0.000015051,-0.000607750,-0.000069349,0.098207839,-0.017201509,9.790482521
1784243373.337588,-0.004124567,-0.011247331,0.947514117,0.000328111,-0.000770107,-0.000048432,0.103607893,-0.012689508,9.839384079
1784243373.339608,-0.004124567,-0.011247331,0.947514117,0.000306889,-0.000868012,0.000056747,0.114904501,-0.008156494,9.811626434
1784243373.341588,-0.004124567,-0.011247331,0.947514117,0.000043281,-0.000556462,-0.000225928,0.098296180,-0.009614788,9.794565201
1784243373.343580,-0.004122578,-0.011247135,0.947514117,-0.000687711,0.000000074,-0.000394770,0.100799255,-0.024921296,9.800297737
1784243373.345586,-0.004122578,-0.011247135,0.947514117,-0.001206876,0.000078277,-0.000014121,0.129307091,-0.043150462,9.792139053
1784243373.347590,-0.004122627,-0.011248279,0.947514117,-0.001225662,-0.000084178,0.000190319,0.089344807,-0.042858176,9.823036194
1784243373.349589,-0.004122627,-0.011248279,0.947514117,-0.001095815,-0.000399407,-0.000094861,0.098614708,-0.058774825,9.776316643
1784243373.351590,-0.004122627,-0.011248279,0.947514117,-0.000260619,-0.000743700,-0.000518695,0.107657760,-0.051455710,9.801926613
1784243373.353588,-0.004123527,-0.011248050,0.947514117,0.000839245,-0.000676381,-0.000734642,0.117772602,-0.031423941,9.802065849
1784243373.355593,-0.004123527,-0.011248050,0.947514117,0.000922727,-0.000115734,-0.000872195,0.087883271,-0.017104253,9.795403481
1784243373.357592,-0.004122780,-0.011247884,0.947514117,-0.000011299,0.000337204,-0.000612697,0.115417995,-0.004003410,9.793721199
1784243373.359596,-0.004122780,-0.011247884,0.947514117,-0.000518256,0.000051550,-0.000137981,0.125058517,-0.024189569,9.779703140
1784243373.361594,-0.004122780,-0.011247884,0.947514117,-0.000272846,-0.000285626,-0.000369556,0.113538645,-0.011131886,9.791432381
1784243373.363599,-0.004121736,-0.011247706,0.947514117,0.000307643,-0.000227941,-0.000806705,0.123566091,-0.035053756,9.798012733
1784243373.365599,-0.004121736,-0.011247706,0.947514117,0.000908195,-0.000370814,-0.000638512,0.093579568,-0.028390743,9.797130585
1784243373.367600,-0.004121484,-0.011247416,0.947514117,0.001215276,-0.000693353,0.000114404,0.080834396,-0.081031330,9.787814140
1784243373.369604,-0.004121484,-0.011247416,0.947514117,0.001298788,-0.000547939,0.000520377,0.081561849,-0.056142036,9.814874649
1784243373.371604,-0.004121484,-0.011247416,0.947514117,0.001148397,-0.000075096,0.000059657,0.111057147,-0.030813431,9.791303635
1784243373.373606,-0.004121767,-0.011247727,0.947514117,0.000911310,0.000110739,-0.000601992,0.122403249,-0.022242403,9.762676239
1784243373.375609,-0.004121767,-0.011247727,0.947514117,0.000577202,0.000338740,-0.001228151,0.117676407,-0.038667630,9.812779427
1784243373.377617,-0.004121690,-0.011247986,0.947514117,-0.000099293,0.000564057,-0.001774919,0.094710521,-0.046316892,9.795672417
1784243373.379608,-0.004121690,-0.011247986,0.947514117,-0.000595495,0.000509587,-0.001741213,0.118990161,-0.042992786,9.788543701
1784243373.381624,-0.004121690,-0.011247986,0.947514117,-0.000453178,0.000283266,-0.001518328,0.098404869,-0.037025657,9.805597305
1784243373.383615,-0.004121941,-0.011247073,0.947514117,-0.000295133,0.000083137,-0.001572691,0.094017513,-0.030102482,9.785014153
1784243373.385617,-0.004121941,-0.011247073,0.947514117,-0.000069490,0.000256376,-0.000996579,0.109319016,-0.025885120,9.794471741
1784243373.387619,-0.004121762,-0.011247937,0.947514117,0.000548234,0.000608691,-0.000087508,0.107761905,-0.042528283,9.806468964
1784243373.389616,-0.004121762,-0.011247937,0.947514117,0.001104681,0.000578981,0.000122018,0.115418971,-0.003590420,9.798655510
1784243373.391620,-0.004121762,-0.011247937,0.947514117,0.001559046,0.000018382,0.000019006,0.135711610,-0.031320419,9.818223953
1784243373.393619,-0.004120435,-0.011249026,0.947514117,0.001309818,-0.000563080,-0.000166234,0.115736283,-0.052759998,9.781752586
1784243373.395623,-0.004120435,-0.011249026,0.947514117,0.000445145,-0.000689324,-0.000625541,0.096347675,-0.059337124,9.796485901
1784243373.397627,-0.004121334,-0.011247720,0.947514117,0.000252563,-0.000357236,-0.000433582,0.095851742,-0.026166961,9.795353889
1784243373.399624,-0.004121334,-0.011247720,0.947514117,0.000615582,-0.000198159,0.000591136,0.088784903,0.020912632,9.803271294
1784243373.401637,-0.004121334,-0.011247720,0.947514117,0.000643908,-0.000380069,0.000414955,0.085684828,-0.013072476,9.799462318
1784243373.403634,-0.004118770,-0.011246865,0.947514117,0.000196674,-0.000484452,-0.000544361,0.104299448,-0.071773663,9.766825676
1784243373.405637,-0.004118770,-0.011246865,0.947514117,0.000015587,-0.000456827,-0.000791110,0.117070325,-0.052872628,9.795202255
1784243373.407631,-0.004119505,-0.011247487,0.947514117,0.000622318,-0.000591317,-0.000537308,0.083996207,-0.080096155,9.776615143
1784243373.409639,-0.004119505,-0.011247487,0.947514117,0.001010011,-0.000671371,-0.000244091,0.080077469,-0.032189500,9.788575172
1784243373.411638,-0.004119505,-0.011247487,0.947514117,0.000486520,-0.000088925,-0.000371181,0.107329480,-0.041988727,9.794366837
1784243373.413637,-0.004119188,-0.011246861,0.947514117,0.000106483,0.000461251,-0.000445010,0.103712149,-0.005382230,9.819705009
1784243373.415644,-0.004119188,-0.011246861,0.947514117,0.000292694,0.000331647,0.000058594,0.108370177,-0.027900755,9.827634811
1784243373.417639,-0.004118903,-0.011247025,0.947514117,0.000432031,0.000491617,0.000029747,0.091341347,-0.063883856,9.814833641
1784243373.419643,-0.004118903,-0.011247025,0.947514117,0.000699761,0.000860341,-0.000314531,0.094692454,-0.047270048,9.803734779
1784243373.421639,-0.004118903,-0.011247025,0.947514117,0.000726473,0.000713909,-0.000098567,0.116754428,-0.041686933,9.797965050
1784243373.423710,-0.004119255,-0.011247441,0.947514117,0.000364618,0.000537135,0.000418801,0.086070783,-0.020868080,9.760856628
1784243373.425658,-0.004119255,-0.011247441,0.947514117,0.000117985,0.000317846,0.000849376,0.118400663,-0.017450692,9.789155006
1784243373.427667,-0.004118321,-0.011247971,0.947514117,-0.000063785,-0.000039761,0.001143888,0.103823319,0.001169031,9.780293465
1784243373.429652,-0.004118321,-0.011247971,0.947514117,-0.000012768,0.000019519,0.001721546,0.093255498,-0.018485332,9.790915489
1784243373.431652,-0.004118321,-0.011247971,0.947514117,0.000279304,0.000257061,0.002288266,0.131967410,-0.045462921,9.797507286
1784243373.433658,-0.004118154,-0.011247998,0.947514117,0.000435458,0.000109611,0.002229893,0.132548720,-0.036722109,9.764386177
1784243373.435661,-0.004118154,-0.011247998,0.947514117,0.000204194,-0.000242975,0.001680004,0.095650688,-0.041127741,9.820363998
1784243373.437660,-0.004117957,-0.011247454,0.947514117,-0.000303433,-0.000082523,0.001335357,0.094546653,-0.022178477,9.803896904
1784243373.439655,-0.004117957,-0.011247454,0.947514117,-0.000562356,0.000336832,0.001465235,0.094077930,-0.023951858,9.802091599
1784243373.441662,-0.004117957,-0.011247454,0.947514117,0.000003087,0.000253225,0.002046279,0.082814470,-0.027007446,9.811026573
1784243373.443664,-0.004117358,-0.011246268,0.947514117,0.000851730,0.000299811,0.001784887,0.093745396,-0.051703189,9.798773766
1784243373.445672,-0.004117358,-0.011246268,0.947514117,0.000933130,0.000598720,0.000421722,0.100438893,-0.017328823,9.804381371
1784243373.447665,-0.004116237,-0.011245956,0.947514117,0.000212308,0.000660456,-0.000176299,0.105577953,-0.038382031,9.794387817
1784243373.449677,-0.004116237,-0.011245956,0.947514117,-0.000533983,0.000504511,0.000253066,0.115911104,-0.037195820,9.797991753
1784243373.451668,-0.004116237,-0.011245956,0.947514117,-0.000934660,0.000245150,0.000601372,0.107456781,-0.029636592,9.821346283
1784243373.453670,-0.004115352,-0.011245769,0.947514176,-0.001060626,0.000272623,0.000495542,0.119007595,-0.041639373,9.787206650
1784243373.455681,-0.004115352,-0.011245769,0.947514176,-0.000972789,0.000130147,0.000183153,0.116545558,-0.019524781,9.832180023
1784243373.457679,-0.004114762,-0.011246027,0.947514176,-0.000569321,-0.000337622,0.000008248,0.103561908,-0.017915606,9.818279266
1784243373.459685,-0.004114762,-0.011246027,0.947514176,0.000091474,-0.000248813,-0.000368918,0.102475300,-0.032366045,9.836117744
1784243373.461675,-0.004114762,-0.011246027,0.947514176,0.000486360,0.000106796,-0.000967129,0.121825323,-0.029741075,9.810150146
1784243373.463677,-0.004113780,-0.011246671,0.947514236,0.000317649,0.000062020,-0.000954041,0.107464306,-0.030792875,9.794885635
1784243373.465678,-0.004113780,-0.011246671,0.947514236,0.000280523,-0.000245828,-0.000241884,0.105234250,-0.030252574,9.785921097
1784243373.467679,-0.004113807,-0.011246352,0.947514236,0.000272793,-0.000414642,0.000006478,0.129286602,-0.046959534,9.760730743
1784243373.469680,-0.004113807,-0.011246352,0.947514236,0.000199612,-0.000174695,-0.000171715,0.128544807,-0.033156630,9.774269104
1784243373.471681,-0.004113807,-0.011246352,0.947514236,0.000651761,-0.000024785,-0.000066188,0.092956856,-0.043942802,9.779993057
1784243373.473683,-0.004114274,-0.011246290,0.947514236,0.001048396,-0.000384281,0.000008182,0.104445212,-0.020875229,9.791810036
1784243373.475695,-0.004114274,-0.011246290,0.947514236,0.000869053,-0.000426570,0.000297513,0.086263113,-0.001923720,9.805810928
1784243373.477689,-0.004113231,-0.011245472,0.947514236,0.000054117,-0.000128004,0.000833968,0.104224361,-0.038018577,9.808735847
1784243373.479695,-0.004113231,-0.011245472,0.947514236,-0.000485878,-0.000052529,0.000808872,0.094403565,-0.033034477,9.818622589
1784243373.481692,-0.004113231,-0.011245472,0.947514236,-0.000173685,-0.000073941,0.000267783,0.115218148,-0.018954646,9.817386627
1784243373.483726,-0.004112650,-0.011245642,0.947514236,0.000179238,-0.000181110,-0.000090602,0.103192776,-0.049603194,9.801487923
1784243373.485706,-0.004112650,-0.011245642,0.947514236,0.000038355,-0.000273000,-0.000334339,0.085564613,-0.057690281,9.836388588
1784243373.487696,-0.004113540,-0.011244773,0.947514236,-0.000607264,-0.000370637,-0.000422673,0.111091889,-0.064076409,9.806333542
1784243373.489697,-0.004113540,-0.011244773,0.947514236,-0.000790206,-0.000607188,-0.000433334,0.072846510,-0.035747971,9.797960281
1784243373.491700,-0.004113540,-0.011244773,0.947514236,-0.000595862,-0.000584944,-0.000457547,0.108405158,-0.026814058,9.800741196
1784243373.493703,-0.004113764,-0.011244736,0.947514176,-0.000435643,-0.000497497,-0.000384501,0.104695916,-0.036222938,9.807402611
1784243373.495703,-0.004113764,-0.011244736,0.947514176,0.000185153,-0.000672221,-0.000494281,0.096358150,-0.021664487,9.791347504
1784243373.497719,-0.004112775,-0.011243924,0.947514236,0.000388012,-0.000472278,-0.000663087,0.094755977,-0.045147527,9.757122040
1784243373.499712,-0.004112775,-0.011243924,0.947514236,0.000244834,-0.000467809,-0.000733153,0.090516284,-0.020443005,9.819148064
1784243373.501712,-0.004112775,-0.011243924,0.947514236,0.000537153,-0.000716724,-0.001452888,0.089750752,-0.048064575,9.798345566
1784243373.503712,-0.004112865,-0.011242920,0.947514176,0.000845809,-0.000448000,-0.002155066,0.122142926,-0.042534202,9.781375885
1784243373.505712,-0.004112865,-0.011242920,0.947514176,0.000924308,-0.000132523,-0.001384482,0.121457621,-0.024232605,9.792251587
1784243373.507713,-0.004112420,-0.011243296,0.947514236,0.000704063,-0.000335676,-0.000176108,0.117301524,-0.034026470,9.790840149
1784243373.509718,-0.004112420,-0.011243296,0.947514236,0.000254396,-0.000690455,-0.000290281,0.086650588,-0.042839576,9.825276375
1784243373.511714,-0.004112420,-0.011243296,0.947514236,-0.000156319,-0.000351935,-0.000713245,0.102530546,-0.029903665,9.804750443
1784243373.513721,-0.004111804,-0.011243667,0.947514236,-0.000363462,0.000230463,-0.000170918,0.097549587,-0.034250084,9.794855118
1784243373.515719,-0.004111804,-0.011243667,0.947514236,-0.000244449,0.000491048,0.000025108,0.118553728,-0.004895058,9.787441254
1784243373.517720,-0.004110050,-0.011243963,0.947514236,-0.000199106,0.000178014,0.000056733,0.118357852,0.015748696,9.783091545
1784243373.519728,-0.004110050,-0.011243963,0.947514236,-0.000621869,-0.000369874,0.000203628,0.102521926,0.007212903,9.814851761
1784243373.521725,-0.004110050,-0.011243963,0.947514236,-0.000889031,-0.000390023,0.000078142,0.126084939,-0.048209488,9.816311836
1784243373.523726,-0.004111018,-0.011244738,0.947514236,-0.000561005,-0.000449545,0.000510810,0.099037528,-0.060200769,9.787068367
1784243373.525728,-0.004111018,-0.011244738,0.947514236,-0.000073781,-0.000998011,0.000570859,0.096245758,-0.068652093,9.783424377
1784243373.527736,-0.004112205,-0.011244098,0.947514236,-0.000020254,-0.000994125,-0.000069595,0.103346638,-0.037041206,9.798876762
1784243373.529738,-0.004112205,-0.011244098,0.947514236,-0.000532992,-0.000140488,-0.000351778,0.101840399,-0.049230192,9.814488411
1784243373.531738,-0.004112205,-0.011244098,0.947514236,-0.000673653,0.000368325,-0.000142414,0.101909608,-0.045036383,9.791651726
1784243373.533738,-0.004113046,-0.011243721,0.947514176,-0.000201767,0.000389595,0.000207642,0.116858751,0.002400245,9.772691727
1784243373.535737,-0.004113046,-0.011243721,0.947514176,-0.000458129,0.000052573,0.000297270,0.088044621,-0.039641604,9.814088821
1784243373.537743,-0.004113262,-0.011242339,0.947514176,-0.001190903,-0.000581378,0.000088754,0.105556361,-0.040983949,9.782265663
1784243373.539739,-0.004113262,-0.011242339,0.947514176,-0.001049177,-0.000526076,-0.000456333,0.071446829,-0.038990464,9.815422058
1784243373.541743,-0.004113262,-0.011242339,0.947514176,-0.000523651,0.000051182,-0.001102486,0.101470463,-0.043334179,9.805112839
1784243373.543742,-0.004113226,-0.011242879,0.947514176,-0.000560601,0.000168589,-0.001304780,0.103606313,-0.053939104,9.780387878
1784243373.545744,-0.004113226,-0.011242879,0.947514176,-0.001042169,0.000129706,-0.000912010,0.091947205,-0.014522285,9.803045273
1784243373.547745,-0.004111701,-0.011242087,0.947514236,-0.001174910,0.000311920,-0.000118912,0.120275222,-0.011170433,9.784712791
1784243373.549766,-0.004111701,-0.011242087,0.947514236,-0.001040304,0.000117628,0.000547657,0.127894536,-0.046494696,9.823946953
1784243373.551760,-0.004111701,-0.011242087,0.947514236,-0.000980177,-0.000343061,0.000309335,0.124976248,-0.028891753,9.811055183
1784243373.553761,-0.004112117,-0.011241972,0.947514176,-0.000751245,-0.000424579,-0.000530488,0.092626192,-0.031658053,9.817283630
1784243373.555762,-0.004112117,-0.011241972,0.947514176,-0.000694423,-0.000521545,-0.000691379,0.092255041,-0.025771575,9.809249878
1784243373.557768,-0.004111506,-0.011241395,0.947514176,-0.000726648,-0.000594710,-0.000267163,0.148408979,-0.024752077,9.753718376
1784243373.559765,-0.004111506,-0.011241395,0.947514176,-0.000563744,-0.000040703,0.000478797,0.111870147,-0.036759708,9.806957245
1784243373.561768,-0.004111506,-0.011241395,0.947514176,-0.000194603,0.000143420,0.001147759,0.087042086,-0.048970517,9.804615021
1784243373.563777,-0.004111705,-0.011240915,0.947514176,0.000013167,-0.000456989,0.001179606,0.092272714,-0.024821604,9.801634789
1784243373.565782,-0.004111705,-0.011240915,0.947514176,-0.000250649,-0.000818239,0.001256726,0.086468115,-0.023711037,9.781910896
1784243373.567770,-0.004111367,-0.011240316,0.947514176,-0.000114893,-0.000973516,0.000754423,0.103275165,-0.043684311,9.788075447
1784243373.569771,-0.004111367,-0.011240316,0.947514176,0.000818388,-0.001053655,-0.000584787,0.106622428,-0.026695674,9.787290573
1784243373.571790,-0.004111367,-0.011240316,0.947514176,0.001137830,-0.000842698,-0.000819336,0.121871516,-0.027755268,9.782814980
1784243373.573775,-0.004110594,-0.011240538,0.947514236,0.000484412,-0.000522563,-0.000160300,0.116191268,-0.050284654,9.810910225
1784243373.575777,-0.004110594,-0.011240538,0.947514236,0.000516402,-0.000220283,-0.000094198,0.104560055,-0.049858544,9.771896362
1784243373.577775,-0.004110526,-0.011240165,0.947514236,0.001206845,-0.000169371,-0.000027875,0.096729800,-0.029167928,9.774711609
1784243373.579772,-0.004110526,-0.011240165,0.947514236,0.001325283,-0.000508112,0.000342668,0.139783084,0.007695234,9.805924416
1784243373.581773,-0.004110526,-0.011240165,0.947514236,0.001342151,-0.000501701,0.000541698,0.116981827,-0.023276009,9.791805267
1784243373.583779,-0.004109450,-0.011240202,0.947514236,0.001975137,0.000019139,0.000546136,0.100587264,-0.079584658,9.800844193
1784243373.585782,-0.004109450,-0.011240202,0.947514236,0.001947796,0.000280494,0.000114692,0.110259667,-0.059902895,9.787978172
1784243373.587779,-0.004109815,-0.011240397,0.947514236,0.000547939,-0.000176882,-0.000746966,0.102905892,-0.035351720,9.814130783
1784243373.589782,-0.004109815,-0.011240397,0.947514236,-0.000605179,-0.001033493,-0.000908456,0.110329971,-0.012842524,9.848804474
1784243373.591784,-0.004109815,-0.011240397,0.947514236,-0.000648754,-0.001366104,-0.000048413,0.126858458,-0.022551090,9.798096657
1784243373.593783,-0.004109490,-0.011241348,0.947514236,-0.000169188,-0.001093382,0.000816475,0.102583654,-0.025837036,9.799845695
1784243373.595788,-0.004109490,-0.011241348,0.947514236,0.000216678,-0.000929219,0.001139522,0.110346638,-0.015142373,9.794093132
1784243373.597787,-0.004108354,-0.011241394,0.947514236,0.000052989,-0.000296426,0.000654938,0.106819674,-0.046923265,9.796127319
1784243373.599788,-0.004108354,-0.011241394,0.947514236,-0.000329689,0.000817250,-0.000001739,0.099394172,-0.031448588,9.775597572
1784243373.601810,-0.004108354,-0.011241394,0.947514236,-0.000290123,0.001029485,-0.000212176,0.095631361,-0.044117201,9.799722672
1784243373.603802,-0.004108849,-0.011240759,0.947514236,-0.000489605,0.000247501,0.000134392,0.097263329,-0.020398874,9.800771713
1784243373.605802,-0.004108849,-0.011240759,0.947514236,-0.001051118,-0.000336121,0.000458332,0.100863643,-0.020765642,9.782839775
1784243373.607800,-0.004108123,-0.011240574,0.947514236,-0.000871344,0.000046205,0.000067940,0.089278296,-0.013493303,9.789152145
1784243373.609804,-0.004108123,-0.011240574,0.947514236,-0.000338477,0.000751045,0.000003179,0.104452856,-0.055567943,9.818935394
1784243373.611802,-0.004108123,-0.011240574,0.947514236,-0.000349229,0.001283273,0.000533130,0.109368548,-0.060247149,9.774972916
1784243373.613802,-0.004108927,-0.011240765,0.947514236,-0.000554113,0.001747772,0.000486064,0.126793727,-0.027519999,9.803893089
1784243373.615809,-0.004108927,-0.011240765,0.947514236,-0.000799200,0.001495761,0.000033145,0.126692787,-0.036421984,9.795765877
1784243373.617809,-0.004109016,-0.011241322,0.947514236,-0.001020034,0.000824437,0.000061449,0.112681128,-0.042721894,9.824852943
1784243373.619807,-0.004109016,-0.011241322,0.947514236,-0.000997451,0.000567728,0.000029499,0.110628292,-0.029435180,9.787276268
1784243373.621814,-0.004109016,-0.011241322,0.947514236,-0.001178784,0.000280611,-0.000933342,0.106420815,-0.042066254,9.806918144
1784243373.623810,-0.004108980,-0.011241429,0.947514236,-0.001153259,-0.000415786,-0.001709434,0.078937307,-0.049899682,9.823878288
1784243373.625810,-0.004108980,-0.011241429,0.947514236,-0.000644752,-0.000538823,-0.001224884,0.082402334,-0.063492253,9.775822639
1784243373.627820,-0.004109990,-0.011240174,0.947514236,-0.000338787,0.000092320,-0.000886032,0.098721288,-0.049828321,9.778167725
1784243373.629820,-0.004109990,-0.011240174,0.947514236,-0.000101365,0.000122841,-0.001110899,0.117265783,-0.035929598,9.806519508
1784243373.631824,-0.004109990,-0.011240174,0.947514236,0.000159846,-0.000053867,-0.001275679,0.132198617,-0.064206727,9.786626816
1784243373.633838,-0.004110637,-0.011240846,0.947514236,0.000590191,0.000317685,-0.001212033,0.115767367,-0.050488394,9.777282715
1784243373.635822,-0.004110637,-0.011240846,0.947514236,0.001355652,0.000635931,-0.000911960,0.094856754,0.000937807,9.765937805
1784243373.637827,-0.004108441,-0.011240171,0.947514236,0.001421351,0.000565871,-0.000497253,0.092282318,-0.023935216,9.802986145
1784243373.639826,-0.004108441,-0.011240171,0.947514236,0.000540343,-0.000105123,-0.000200073,0.096821696,-0.020742519,9.786871910
1784243373.641826,-0.004108441,-0.011240171,0.947514236,-0.000233648,-0.001096930,0.000085614,0.085795812,-0.004090993,9.796381950
1784243373.643827,-0.004107868,-0.011239393,0.947514236,-0.000554402,-0.001136442,0.000027148,0.098097429,-0.025773186,9.798944473
1784243373.645829,-0.004107868,-0.011239393,0.947514236,-0.000382415,-0.000536861,-0.000462593,0.103501134,-0.024879476,9.789541245
1784243373.647833,-0.004107146,-0.011239407,0.947514236,0.000427550,-0.000253441,-0.000494198,0.129204109,-0.013668306,9.804881096
1784243373.649839,-0.004107146,-0.011239407,0.947514236,0.001028529,-0.000555384,0.000183983,0.144736350,-0.027387857,9.816016197
1784243373.651833,-0.004107146,-0.011239407,0.947514236,0.000719883,-0.001200607,0.000891097,0.112237252,-0.042677984,9.819473267
1784243373.653831,-0.004107784,-0.011239700,0.947514236,0.000049362,-0.001247210,0.000649697,0.097505048,-0.037033238,9.808286667
1784243373.655839,-0.004107784,-0.011239700,0.947514236,-0.000160677,-0.000775646,-0.000263025,0.115158893,-0.024285665,9.811076164
1784243373.657842,-0.004106827,-0.011239965,0.947514236,-0.000043471,-0.000595031,-0.001253345,0.091246076,-0.032314524,9.849109650
1784243373.659839,-0.004106827,-0.011239965,0.947514236,-0.000014473,-0.000520829,-0.001325327,0.089202046,-0.055737760,9.807262421
1784243373.661842,-0.004106827,-0.011239965,0.947514236,0.000475537,-0.000299807,-0.000076359,0.106704935,-0.057150058,9.785301208
1784243373.663841,-0.004107313,-0.011240399,0.947514236,0.001266496,-0.000213258,0.000472740,0.124508128,-0.068655372,9.796005249
1784243373.665844,-0.004107313,-0.011240399,0.947514236,0.001322261,0.000040267,0.000078707,0.120268188,-0.049221080,9.779985428
1784243373.667847,-0.004107531,-0.011240272,0.947514236,0.000890069,0.000100518,0.000367871,0.111782394,-0.043936629,9.808257103
1784243373.669846,-0.004107531,-0.011240272,0.947514236,0.000820402,-0.000508528,0.000954364,0.124880314,-0.037348963,9.803380013
1784243373.671846,-0.004107531,-0.011240272,0.947514236,0.000717324,-0.000981781,0.000424624,0.123851843,-0.047288001,9.816764832
1784243373.673847,-0.004108293,-0.011241255,0.947514236,0.000141301,-0.001027618,-0.000863006,0.102265067,-0.013456897,9.823685646
1784243373.675852,-0.004108293,-0.011241255,0.947514236,-0.000366927,-0.000792944,-0.001330332,0.074419670,-0.018167559,9.780141830
1784243373.677853,-0.004107610,-0.011239806,0.947514236,-0.000229844,-0.000397119,-0.001073005,0.101861350,-0.046228014,9.833339691
1784243373.679880,-0.004107610,-0.011239806,0.947514236,0.000660248,-0.000603263,-0.000887045,0.121661305,-0.044409323,9.793915749
1784243373.681863,-0.004107610,-0.011239806,0.947514236,0.001399694,-0.000665308,-0.000606525,0.096720256,-0.028027542,9.803411484
1784243373.683862,-0.004106903,-0.011238694,0.947514296,0.001493926,0.000083594,0.000034793,0.118287645,-0.026448065,9.794476509
1784243373.685865,-0.004106903,-0.011238694,0.947514296,0.000638362,0.000388577,0.000264503,0.132325977,-0.052664660,9.801495552
1784243373.687859,-0.004107761,-0.011239720,0.947514236,-0.001056263,0.000085318,-0.000060183,0.137097821,-0.028589481,9.809723854
1784243373.689862,-0.004107761,-0.011239720,0.947514236,-0.001585017,-0.000018990,-0.000006114,0.108591251,-0.011160859,9.804429054
1784243373.691867,-0.004107761,-0.011239720,0.947514236,-0.000597762,-0.000201321,0.000287588,0.074602947,-0.037289739,9.822608948
1784243373.693874,-0.004107552,-0.011238782,0.947514296,0.000024896,-0.000978863,0.000136766,0.084468506,-0.039894126,9.793011665
1784243373.695887,-0.004107552,-0.011238782,0.947514296,0.000352157,-0.001473374,0.000261767,0.129737258,-0.046139318,9.770599365
1784243373.697879,-0.004107715,-0.011239696,0.947514236,0.000781274,-0.000865270,0.000611252,0.127610058,-0.069814116,9.827383995
1784243373.699884,-0.004107715,-0.011239696,0.947514236,0.000263469,-0.000357661,0.000594112,0.095310159,-0.034999613,9.778260231
1784243373.701890,-0.004107715,-0.011239696,0.947514236,-0.000191564,-0.000561127,0.000271427,0.115067042,-0.033521146,9.786807060
1784243373.703887,-0.004107586,-0.011239887,0.947514236,0.000582325,-0.000557283,-0.000285975,0.091843389,-0.025473300,9.768005371
1784243373.705884,-0.004107586,-0.011239887,0.947514236,0.001109889,-0.000414195,-0.000023395,0.097092949,-0.035928063,9.779599190
1784243373.707885,-0.004107487,-0.011239500,0.947514236,0.000570128,-0.000340196,0.000852224,0.069783099,-0.029016932,9.802035332
1784243373.709886,-0.004107487,-0.011239500,0.947514236,-0.000022863,-0.000426468,0.001218228,0.109143481,-0.004675750,9.773536682
1784243373.711888,-0.004107487,-0.011239500,0.947514236,-0.000314092,-0.000868264,0.001392711,0.118938379,-0.045833178,9.810045242
1784243373.713889,-0.004107619,-0.011240192,0.947514236,-0.000251615,-0.000921753,0.001305129,0.130815700,-0.030132318,9.785945892
1784243373.715889,-0.004107619,-0.011240192,0.947514236,0.000326149,-0.000263605,0.001101643,0.118000172,-0.050196365,9.795220375
1784243373.717890,-0.004107801,-0.011240369,0.947514236,0.000641101,0.000520986,0.001279869,0.122323103,-0.025711995,9.809727669
1784243373.719890,-0.004107801,-0.011240369,0.947514236,0.000321991,0.000400151,0.000809266,0.108160786,-0.009795327,9.802195549
1784243373.721888,-0.004107801,-0.011240369,0.947514236,-0.000330847,-0.000255001,-0.000241412,0.086033866,-0.019943908,9.820042610
1784243373.723891,-0.004106678,-0.011238973,0.947514296,-0.000585865,-0.000287879,-0.000480490,0.100845397,-0.022125425,9.785071373
1784243373.725896,-0.004106678,-0.011238973,0.947514296,-0.000429442,-0.000213835,0.000375386,0.131435409,-0.052599110,9.793873787
1784243373.727906,-0.004107210,-0.011240068,0.947514236,-0.000644816,-0.000516327,0.000996374,0.130592823,-0.084881529,9.798596382
1784243373.729894,-0.004107210,-0.011240068,0.947514236,-0.000633450,-0.000409317,0.000602414,0.077820323,-0.033078935,9.791705132
1784243373.731900,-0.004107210,-0.011240068,0.947514236,-0.000333803,-0.000031615,0.000823001,0.055980701,-0.019885842,9.802976608
1784243373.733902,-0.004106393,-0.011237768,0.947514296,-0.000374149,-0.000135309,0.001576885,0.086568587,-0.014002155,9.802596092
1784243373.735907,-0.004106393,-0.011237768,0.947514296,-0.000038894,-0.000189476,0.000935360,0.087993808,-0.044905853,9.798363686
1784243373.737919,-0.004106931,-0.011237504,0.947514296,0.000644723,0.000112849,-0.000269505,0.109576792,-0.041582227,9.796164513
1784243373.739909,-0.004106931,-0.011237504,0.947514296,0.000942836,0.000420149,-0.000316687,0.098114282,-0.062419534,9.785709381
1784243373.741906,-0.004106931,-0.011237504,0.947514296,0.001066791,0.000567821,0.000496804,0.107484207,-0.030230450,9.778750420
1784243373.743909,-0.004106802,-0.011237142,0.947514296,0.001611326,0.000886269,0.001127425,0.112012669,-0.026313525,9.786850929
1784243373.745908,-0.004106802,-0.011237142,0.947514296,0.002551524,0.001115273,0.001118324,0.123046957,-0.042088196,9.780033112
1784243373.747913,-0.004106554,-0.011236358,0.947514296,0.003198318,0.001084963,0.001038329,0.065273188,-0.029950751,9.815475464
1784243373.749915,-0.004106554,-0.011236358,0.947514296,0.003125605,0.000924864,0.000960368,0.070198201,-0.032530058,9.791254044
1784243373.751914,-0.004106554,-0.011236358,0.947514296,0.002362387,0.000312689,0.000773323,0.107808225,-0.039325785,9.797073364
1784243373.753918,-0.004105728,-0.011236303,0.947514296,0.001462428,-0.000148228,0.000744743,0.122931175,-0.051917907,9.776383400
1784243373.755922,-0.004105728,-0.011236303,0.947514296,0.000707764,0.000363693,0.000620177,0.098288581,-0.048075244,9.784456253
1784243373.757918,-0.004105926,-0.011235793,0.947514296,0.000289212,0.001149632,0.000459735,0.109577201,-0.041579045,9.795716286
1784243373.759949,-0.004105926,-0.011235793,0.947514296,0.000627250,0.001012504,0.000466285,0.099917375,-0.025192419,9.776982307
1784243373.761924,-0.004105926,-0.011235793,0.947514296,0.001142078,0.000605497,0.000180943,0.097642526,-0.026221761,9.799838066
1784243373.763923,-0.004113530,-0.011234436,0.947477877,0.001178854,0.000712748,-0.000675522,0.069256380,0.000668111,9.786982536
1784243373.765926,-0.004113530,-0.011234436,0.947477877,0.001077043,0.000718747,-0.001029719,0.083261423,-0.028242609,9.794879913
1784243373.767931,-0.004112320,-0.011233161,0.947477877,0.001159909,0.000356902,-0.000549415,0.091408379,-0.022522600,9.794924736
1784243373.769929,-0.004112320,-0.011233161,0.947477877,0.001290775,-0.000087118,-0.000254567,0.098385528,-0.040015120,9.784955025
1784243373.771934,-0.004112320,-0.011233161,0.947477877,0.001113448,-0.000586416,-0.000239756,0.085028164,-0.030108327,9.802042961
1784243373.773940,-0.004112083,-0.011231855,0.947477877,0.000712537,-0.001036108,-0.000410395,0.102975681,-0.030748097,9.796676636
1784243373.775932,-0.004112083,-0.011231855,0.947477877,0.000264395,-0.000855054,-0.001019517,0.126461759,-0.054861519,9.805957794
1784243373.777936,-0.004113142,-0.011232483,0.947477877,-0.000311221,-0.000307819,-0.001244716,0.123612590,-0.031444635,9.794448853
1784243373.779937,-0.004113142,-0.011232483,0.947477877,-0.000860230,-0.000020742,-0.000597267,0.078000203,-0.020716898,9.754124641
1784243373.781938,-0.004113142,-0.011232483,0.947477877,-0.001117519,0.000164315,0.000614609,0.104041532,-0.054456413,9.789351463
1784243373.783977,-0.004113864,-0.011232064,0.947477877,-0.001088366,0.000208345,0.001244561,0.127613887,-0.035435811,9.781426430
1784243373.785945,-0.004113864,-0.011232064,0.947477877,-0.000575038,0.000350194,0.000549552,0.070317261,-0.020648142,9.821368217
1784243373.787941,-0.004113023,-0.011229192,0.947477877,0.000323607,0.000483872,0.000044248,0.089954861,-0.030648150,9.806077957
1784243373.789940,-0.004113023,-0.011229192,0.947477877,0.000415264,0.000493345,0.000324621,0.117578514,-0.047950812,9.795235634
1784243373.791945,-0.004113023,-0.011229192,0.947477877,-0.000312548,0.000651148,0.000799224,0.084102616,-0.031129474,9.821312904
1784243373.793944,-0.004112802,-0.011227776,0.947477877,-0.000842120,0.000750203,0.000801896,0.096501768,-0.012425452,9.751953125
1784243373.795953,-0.004112802,-0.011227776,0.947477877,-0.001085005,0.000606382,0.000550141,0.118990988,-0.005396464,9.794164658
1784243373.797948,-0.004111473,-0.011228307,0.947477877,-0.001408007,0.000324521,0.000148899,0.125716597,-0.045137588,9.762981415
1784243373.799953,-0.004111473,-0.011228307,0.947477877,-0.001602752,0.000462507,-0.000430253,0.100824922,-0.023097655,9.795825958
1784243373.801960,-0.004111473,-0.011228307,0.947477877,-0.001564524,0.000559315,-0.000563064,0.096711628,-0.028500935,9.806996346
1784243373.803956,-0.004110923,-0.011227507,0.947477877,-0.001542674,0.000072039,-0.000680986,0.082249694,-0.038454726,9.783605576
1784243373.805959,-0.004110923,-0.011227507,0.947477877,-0.001256649,-0.000428624,-0.000965842,0.068114527,-0.056671530,9.787508965
1784243373.807960,-0.004111400,-0.011226213,0.947477877,-0.000772456,-0.000399458,-0.001315139,0.120039016,-0.030461377,9.788623810
1784243373.809963,-0.004111400,-0.011226213,0.947477877,-0.000197773,0.000104710,-0.001458244,0.123947345,-0.041670818,9.782728195
1784243373.812024,-0.004111400,-0.011226213,0.947477877,0.000291267,0.000308798,-0.001491084,0.096158773,-0.037422616,9.802455902
1784243373.813983,-0.004111030,-0.011225206,0.947477937,0.000371269,0.000027475,-0.001355377,0.141468585,-0.040506635,9.776474953
1784243373.815976,-0.004111030,-0.011225206,0.947477937,-0.000022089,-0.000066703,-0.000913631,0.135246322,-0.033471804,9.806553841
1784243373.817973,-0.004110045,-0.011225645,0.947477937,-0.000849726,-0.000021149,-0.000646204,0.126984179,-0.013858587,9.772597313
1784243373.819976,-0.004110045,-0.011225645,0.947477937,-0.001059995,-0.000477734,-0.000525697,0.124057710,-0.032289062,9.786375046
1784243373.821980,-0.004110045,-0.011225645,0.947477937,-0.000686729,-0.000618036,-0.000436002,0.093913935,-0.035783265,9.828018188
1784243373.823977,-0.004109508,-0.011225739,0.947477937,-0.000764590,0.000381256,-0.000328975,0.073847085,-0.027245035,9.797567368
1784243373.825983,-0.004109508,-0.011225739,0.947477937,-0.000729182,0.001287676,-0.000159607,0.108521163,-0.017387798,9.798111916
1784243373.827975,-0.004108658,-0.011225545,0.947477937,0.000087189,0.001384371,-0.000507456,0.084322937,-0.015206007,9.786894798
1784243373.829978,-0.004108658,-0.011225545,0.947477937,0.000931661,0.001076018,-0.001069454,0.088011011,-0.008395855,9.767663002
1784243373.831979,-0.004108658,-0.011225545,0.947477937,0.001018585,0.000584438,-0.001047947,0.103128500,-0.017789025,9.801242828
1784243373.833979,-0.004107241,-0.011225720,0.947477937,0.000558907,0.000375295,-0.000923970,0.114588477,-0.035777461,9.789929390
1784243373.835990,-0.004107241,-0.011225720,0.947477937,0.000173482,0.000512908,-0.001066792,0.137484431,-0.033948515,9.806551933
1784243373.837981,-0.004106767,-0.011226978,0.947477937,0.000288498,0.000463900,-0.001008573,0.127204672,-0.032281615,9.779653549
1784243373.839983,-0.004106767,-0.011226978,0.947477937,0.000371551,0.000356320,-0.000984614,0.095650740,-0.041937809,9.808254242
1784243373.841988,-0.004106767,-0.011226978,0.947477937,0.000140836,0.000031092,-0.001293931,0.103671968,-0.047747146,9.791635513
1784243373.843987,-0.004108188,-0.011226622,0.947477937,-0.000044797,-0.000134311,-0.001410584,0.108475409,-0.023017338,9.770727158
1784243373.845986,-0.004108188,-0.011226622,0.947477937,0.000093085,0.000044695,-0.000915804,0.065887310,-0.053272124,9.817567825
1784243373.847992,-0.004109259,-0.011224631,0.947477937,-0.000153358,-0.000039807,-0.000123866,0.091602243,-0.043182258,9.801516533
1784243373.849994,-0.004109259,-0.011224631,0.947477937,-0.000715068,-0.000348680,0.000360807,0.107729629,-0.010056295,9.776638031
1784243373.852002,-0.004109259,-0.011224631,0.947477937,-0.000866867,-0.000215486,0.000553825,0.114335828,-0.018418871,9.806629181
1784243373.853996,-0.004108075,-0.011225552,0.947477937,-0.001062843,0.000297774,0.000479999,0.090564325,-0.018847924,9.783740044
1784243373.855996,-0.004108075,-0.011225552,0.947477937,-0.001441677,0.000496557,0.000045778,0.080328695,-0.046317343,9.821660995
1784243373.857993,-0.004108340,-0.011224804,0.947477937,-0.001412970,0.000368759,-0.000379893,0.110931084,-0.040319186,9.805141449
1784243373.859998,-0.004108340,-0.011224804,0.947477937,-0.000833962,0.000176105,-0.000112000,0.170151144,-0.041551486,9.808776855
1784243373.861997,-0.004108340,-0.011224804,0.947477937,-0.000387755,0.000576687,-0.000112360,0.126860008,-0.021728296,9.808412552
1784243373.863998,-0.004106951,-0.011226799,0.947477937,-0.000706335,0.001366406,-0.000923202,0.106157050,-0.027226916,9.799839973
1784243373.866010,-0.004106951,-0.011226799,0.947477937,-0.001160635,0.001528130,-0.001191617,0.102252580,-0.013555467,9.837584496
1784243373.868005,-0.004105943,-0.011226612,0.947477937,-0.001085038,0.000952832,-0.000614142,0.113251291,-0.033663489,9.810117722
1784243373.870012,-0.004105943,-0.011226612,0.947477937,-0.001251337,0.000139806,-0.000141849,0.113994308,-0.047456857,9.795234680
1784243373.872005,-0.004105943,-0.011226612,0.947477937,-0.001420740,-0.000051656,-0.000499652,0.097828716,-0.046941821,9.814949036
1784243373.874009,-0.004106305,-0.011226679,0.947477937,-0.000762641,0.000108418,-0.001082330,0.095136270,-0.046503883,9.821225166
1784243373.876012,-0.004106305,-0.011226679,0.947477937,-0.000089618,-0.000123026,-0.000858571,0.134768471,-0.034101613,9.833000183
1784243373.878008,-0.004105720,-0.011227570,0.947477937,-0.000720899,-0.000211194,-0.000101190,0.132929012,-0.003325346,9.792845726
1784243373.880010,-0.004105720,-0.011227570,0.947477937,-0.001448808,0.000050567,0.000596360,0.088434473,-0.007385227,9.813848495
1784243373.882016,-0.004105720,-0.011227570,0.947477937,-0.000985759,0.000122883,0.001051281,0.063546844,-0.026550369,9.781422615
1784243373.884019,-0.004104821,-0.011226055,0.947477937,-0.000199350,-0.000151712,0.001128851,0.098000139,-0.034646560,9.786782265
1784243373.886017,-0.004104821,-0.011226055,0.947477937,0.000013340,-0.000169315,0.001420477,0.126349851,-0.027476089,9.798512459
1784243373.888020,-0.004104224,-0.011226231,0.947477937,-0.000047998,-0.000160590,0.001434130,0.100297734,-0.030195693,9.786813736
1784243373.890018,-0.004104224,-0.011226231,0.947477937,-0.000072992,-0.000255358,0.000288229,0.089317746,-0.047934823,9.780861855
1784243373.892025,-0.004104224,-0.011226231,0.947477937,-0.000000869,-0.000343037,-0.000600665,0.097546317,-0.033465441,9.810552597
1784243373.894024,-0.004103772,-0.011225803,0.947477937,0.000357978,-0.000342864,-0.000489194,0.120280281,-0.046288852,9.808697701
1784243373.896026,-0.004103772,-0.011225803,0.947477937,0.000354572,0.000236424,-0.000459339,0.116466150,-0.027851621,9.806121826
1784243373.898072,-0.004103226,-0.011226360,0.947477937,-0.000134946,0.000754008,-0.000491986,0.093479171,-0.036072850,9.806496620
1784243373.900033,-0.004103226,-0.011226360,0.947477937,0.000062015,0.000547459,-0.000247364,0.100122355,-0.043332826,9.807353020
1784243373.902030,-0.004103226,-0.011226360,0.947477937,0.000782046,0.000175669,-0.000213891,0.111256763,-0.050211877,9.809559822
1784243373.904035,-0.004103267,-0.011226507,0.947477937,0.000910157,0.000034982,-0.000171360,0.098578058,-0.061901014,9.774951935
1784243373.906037,-0.004103267,-0.011226507,0.947477937,0.000333487,-0.000115498,0.000056862,0.103069447,-0.061113462,9.782135010
1784243373.908038,-0.004104228,-0.011226397,0.947477937,-0.000162416,-0.000565735,0.000130843,0.111417517,-0.038405906,9.787220001
1784243373.910037,-0.004104228,-0.011226397,0.947477937,0.000181849,-0.000795222,0.000493287,0.103729628,-0.042428847,9.799740791
1784243373.912034,-0.004104228,-0.011226397,0.947477937,0.000291107,-0.000725446,0.000523746,0.118653037,-0.033595759,9.790844917
1784243373.914043,-0.004103755,-0.011226886,0.947477937,-0.000599536,-0.000246188,-0.000103085,0.107598253,-0.021630157,9.766252518
1784243373.916039,-0.004103755,-0.011226886,0.947477937,-0.001011860,0.000349176,-0.000034475,0.085132763,-0.059577759,9.787507057
1784243373.918039,-0.004104799,-0.011226081,0.947477937,-0.000651146,0.000300701,0.001169187,0.096466713,-0.050292049,9.784440041
1784243373.920049,-0.004104799,-0.011226081,0.947477937,-0.000698967,-0.000019582,0.002098116,0.104188561,-0.041948482,9.794363976
