time_sec,roll_rad,pitch_rad,yaw_rad,gyro_x,gyro_y,gyro_z,acc_x,acc_y,acc_z
1784242578.728756,-0.004282695,0.001183032,-0.158743203,-0.000398176,0.000013808,-0.000780803,-0.002430917,-0.025851501,9.801985741
1784242578.730731,-0.004275566,0.001181692,-0.158741444,-0.000047902,-0.000328295,-0.000146968,0.024898032,-0.029369732,9.806473732
1784242578.732707,-0.004268193,0.001181278,-0.158745766,0.000862873,-0.000274945,-0.000278208,0.016141433,-0.012543459,9.787294388
1784242578.734684,-0.004263485,0.001177319,-0.158748001,0.001362351,-0.000412643,-0.000645836,0.009211693,-0.027808720,9.804226875
1784242578.736691,-0.004265382,0.001177684,-0.158756033,0.001184054,-0.000541558,-0.001167396,-0.011451067,-0.032179311,9.762932777
1784242578.738670,-0.004268779,0.001181340,-0.158762202,0.000463853,-0.000105469,-0.001816109,-0.017593538,-0.057241261,9.769937515
1784242578.740664,-0.004262160,0.001181867,-0.158763602,0.000516843,0.000221220,-0.001836426,-0.058740467,-0.043499250,9.801819801
1784242578.742695,-0.004255622,0.001184007,-0.158761501,0.001256658,0.000214229,-0.001291872,-0.027657105,-0.035225708,9.779485703
1784242578.744706,-0.004252690,0.001188286,-0.158762619,0.001545181,0.000463716,-0.000876097,-0.014486564,-0.058765288,9.789658546
1784242578.746672,-0.004254795,0.001194221,-0.158769846,0.001182443,0.001033498,-0.001203772,-0.004760165,-0.032983780,9.801041603
1784242578.748675,-0.004256936,0.001199631,-0.158773884,0.000594215,0.001543286,-0.001641036,0.012525574,-0.049484033,9.822024345
1784242578.750696,-0.004262274,0.001202674,-0.158775523,-0.000054310,0.001716717,-0.001581943,-0.008438647,-0.079334356,9.772944450
1784242578.752713,-0.004265290,0.001202894,-0.158777460,-0.000531196,0.001464239,-0.001396597,-0.004946552,-0.050260302,9.773581505
1784242578.754684,-0.004261670,0.001197347,-0.158775449,-0.000270751,0.000696234,-0.001011138,-0.037360944,-0.057992324,9.785159111
1784242578.756705,-0.004263094,0.001193445,-0.158772647,-0.000048567,-0.000135580,-0.000406868,-0.008340404,-0.031647950,9.808669090
1784242578.758687,-0.004261643,0.001198160,-0.158776656,-0.000022936,-0.000053564,-0.000378239,-0.005304337,-0.042242125,9.780807495
1784242578.760704,-0.004258734,0.001199797,-0.158783376,0.000290662,0.000384972,-0.001004669,-0.028696863,-0.045253772,9.805423737
1784242578.762684,-0.004251118,0.001196258,-0.158781350,0.000927702,0.000121515,-0.001048424,-0.025954125,-0.006894215,9.761735916
1784242578.764725,-0.004249557,0.001197884,-0.158774242,0.001299125,-0.000075166,-0.000141778,0.018172612,-0.030458856,9.782698631
1784242578.766688,-0.004253855,0.001198530,-0.158776447,0.000760141,0.000098039,0.000230352,0.006044765,-0.030405371,9.797033310
1784242578.768692,-0.004255672,0.001194586,-0.158780545,0.000112897,-0.000074376,-0.000258800,-0.020695196,-0.050812282,9.816603661
1784242578.770687,-0.004251456,0.001194346,-0.158783287,0.000219427,-0.000259987,-0.000650661,-0.023336835,-0.047946934,9.796443939
1784242578.772697,-0.004257312,0.001193749,-0.158781230,0.000062172,-0.000287220,-0.000520708,-0.017413137,-0.040822499,9.792012215
1784242578.774699,-0.004255238,0.001192992,-0.158778936,-0.000198236,-0.000343588,-0.000083489,0.000820017,-0.017323250,9.793973923
1784242578.776687,-0.004252923,0.001189585,-0.158779263,0.000153271,-0.000533485,0.000072585,-0.010813037,-0.013669577,9.805194855
1784242578.778693,-0.004251377,0.001185624,-0.158778593,0.000317255,-0.000850158,0.000076832,-0.028988073,-0.032657415,9.798778534
1784242578.780702,-0.004256468,0.001188376,-0.158768013,-0.000066802,-0.000665978,0.000821562,-0.009627532,-0.027923008,9.791206360
1784242578.782694,-0.004254896,0.001193137,-0.158765420,-0.000340844,0.000025333,0.001493566,0.014970120,-0.037388846,9.754854202
1784242578.784710,-0.004252846,0.001190259,-0.158763081,-0.000055087,0.000149161,0.001422162,0.016096540,-0.053729832,9.782546997
1784242578.786725,-0.004254045,0.001182117,-0.158763468,0.000017455,-0.000639913,0.001166462,-0.003937441,-0.002073849,9.800343513
1784242578.788702,-0.004257274,0.001179161,-0.158767283,-0.000344525,-0.001207727,0.000564375,-0.012970408,-0.006476631,9.805686951
1784242578.790737,-0.004261550,0.001182192,-0.158768386,-0.000816857,-0.000862825,0.000075500,-0.007408662,-0.067762449,9.781985283
1784242578.792737,-0.004263663,0.001183691,-0.158764228,-0.000941788,-0.000293266,0.000263036,-0.004600728,-0.057157170,9.797748566
1784242578.794709,-0.004263952,0.001186143,-0.158762395,-0.000762478,0.000081521,0.000598429,-0.006977505,-0.067501470,9.807541847
1784242578.796709,-0.004263417,0.001190187,-0.158766448,-0.000538550,0.000500969,0.000284118,-0.017816795,-0.074403688,9.789555550
1784242578.798705,-0.004268277,0.001192277,-0.158765450,-0.000556865,0.000736824,0.000000313,0.003022378,-0.057293054,9.803134918
1784242578.800704,-0.004272578,0.001193701,-0.158758074,-0.000899451,0.000727440,0.000568260,-0.013387702,-0.040975988,9.806363106
1784242578.802709,-0.004266879,0.001200948,-0.158755720,-0.000602570,0.001110141,0.001075301,-0.031357199,-0.042941317,9.800054550
1784242578.804711,-0.004255711,0.001204064,-0.158750176,0.000663974,0.001504380,0.001320624,-0.016145725,-0.007113275,9.837959290
1784242578.806710,-0.004256569,0.001203336,-0.158746257,0.001182786,0.001255293,0.001604020,-0.020344647,0.013455405,9.788322449
1784242578.808716,-0.004262364,0.001202632,-0.158745021,0.000238520,0.000801876,0.001518027,-0.003963278,-0.004304115,9.798983574
1784242578.810717,-0.004270933,0.001203051,-0.158743247,-0.000972541,0.000550091,0.001310573,0.008321417,-0.028956687,9.778214455
1784242578.812725,-0.004270600,0.001202424,-0.158739060,-0.001329793,0.000467784,0.001359413,-0.001609935,-0.033760957,9.778622627
1784242578.814717,-0.004269573,0.001203532,-0.158735424,-0.000938911,0.000454026,0.001522646,-0.001034518,-0.021824382,9.800220490
1784242578.816714,-0.004265889,0.001203820,-0.158733904,-0.000364649,0.000423989,0.001461391,-0.027580626,-0.028137816,9.790739059
1784242578.818714,-0.004261339,0.001203785,-0.158735558,0.000233993,0.000276383,0.001055317,-0.018256167,-0.037544910,9.773651123
1784242578.820717,-0.004260364,0.001199599,-0.158736706,0.000486424,-0.000134045,0.000576998,0.013889345,-0.013798185,9.778766632
1784242578.822716,-0.004261900,0.001196759,-0.158739477,0.000254082,-0.000482105,0.000155406,-0.019495079,-0.028981421,9.768773079
1784242578.824720,-0.004261930,0.001197891,-0.158742711,0.000016753,-0.000374060,-0.000294227,-0.029465603,-0.035310820,9.794725418
1784242578.826717,-0.004260663,0.001196870,-0.158736423,0.000095884,-0.000265833,-0.000007453,-0.016846025,-0.068972878,9.780176163
1784242578.828724,-0.004264560,0.001198083,-0.158726394,0.000043077,-0.000173334,0.001103949,-0.017002581,-0.042750459,9.810382843
1784242578.830724,-0.004265370,0.001201861,-0.158721641,-0.000136257,0.000220218,0.001806877,-0.022730522,-0.034145381,9.807742119
1784242578.832729,-0.004268878,0.001200995,-0.158723608,-0.000411530,0.000333465,0.001505424,-0.021615228,-0.055842459,9.769495010
1784242578.834722,-0.004267593,0.001200521,-0.158726871,-0.000469245,0.000129758,0.000742898,-0.028572053,-0.034947488,9.805042267
1784242578.836726,-0.004266527,0.001204296,-0.158731684,-0.000181681,0.000321008,-0.000008749,0.015717924,-0.047497142,9.788863182
1784242578.838730,-0.004268498,0.001207297,-0.158733338,-0.000149543,0.000803563,-0.000446374,-0.004937897,-0.009360093,9.818677902
1784242578.840733,-0.004268506,0.001211594,-0.158727258,-0.000199839,0.001187355,-0.000024993,0.019167151,-0.022003602,9.789029121
1784242578.842729,-0.004267966,0.001216093,-0.158725426,-0.000163752,0.001554716,0.000517257,-0.000794991,-0.041718107,9.761984825
1784242578.844740,-0.004267949,0.001221993,-0.158725709,-0.000135250,0.001932961,0.000479657,-0.007835085,-0.028775156,9.781786919
1784242578.846749,-0.004266116,0.001223884,-0.158720180,0.000026615,0.001935450,0.000703694,-0.023276359,-0.042606376,9.801410675
1784242578.848736,-0.004263111,0.001219220,-0.158720016,0.000371874,0.001232622,0.000899441,-0.039533667,-0.050110135,9.814797401
1784242578.850734,-0.004260527,0.001216079,-0.158722252,0.000675185,0.000381285,0.000516731,-0.031973809,-0.056418911,9.806245804
1784242578.852736,-0.004264622,0.001221498,-0.158722833,0.000414565,0.000360594,0.000186349,-0.019198513,-0.040319748,9.787530899
1784242578.854742,-0.004265419,0.001226079,-0.158722579,-0.000005062,0.000868980,0.000110688,-0.014547663,-0.026115619,9.797938347
1784242578.856743,-0.004256900,0.001230548,-0.158716246,0.000519959,0.001245497,0.000526270,0.008090281,-0.011022955,9.776985168
1784242578.858745,-0.004251767,0.001231487,-0.158717394,0.001244011,0.001318665,0.000738181,-0.033077721,-0.036252953,9.807718277
1784242578.860748,-0.004249427,0.001229684,-0.158724383,0.001353144,0.000950031,-0.000013050,-0.031388089,-0.044806294,9.810356140
1784242578.862746,-0.004250123,0.001229669,-0.158723921,0.001086929,0.000504557,-0.000453539,-0.022947270,-0.014477038,9.814592361
1784242578.864751,-0.004257605,0.001231151,-0.158729583,0.000226181,0.000402661,-0.000683990,-0.024644436,-0.007604260,9.796255112
1784242578.866749,-0.004257390,0.001230684,-0.158729896,-0.000328028,0.000363976,-0.000905713,-0.017539503,-0.051951580,9.782077789
1784242578.868755,-0.004257093,0.001231323,-0.158730775,-0.000155176,0.000219590,-0.000742034,-0.023067838,-0.062744938,9.797696114
1784242578.870755,-0.004254222,0.001229512,-0.158736706,0.000151475,0.000024787,-0.001002097,-0.027618790,-0.067649998,9.802591324
1784242578.872760,-0.004253526,0.001227401,-0.158746108,0.000410271,-0.000311957,-0.001770236,0.007149027,-0.049758080,9.807222366
1784242578.874761,-0.004251728,0.001225589,-0.158745378,0.000525398,-0.000559246,-0.001878650,0.015995620,-0.025041854,9.780937195
1784242578.876758,-0.004252863,0.001224327,-0.158738285,0.000427146,-0.000618297,-0.000838031,-0.033696044,-0.013370001,9.804278374
1784242578.878764,-0.004258898,0.001224158,-0.158735991,-0.000258802,-0.000601357,0.000027717,-0.033658698,-0.008617306,9.828967094
1784242578.880765,-0.004264581,0.001219784,-0.158740342,-0.001066328,-0.000796929,-0.000119469,-0.020102650,-0.041982450,9.770930290
1784242578.882760,-0.004261820,0.001225064,-0.158747852,-0.000962083,-0.000582788,-0.000891522,0.010493511,-0.071191736,9.790948868
1784242578.884763,-0.004261006,0.001230689,-0.158747882,-0.000445524,0.000250659,-0.001160652,0.022596110,-0.035475712,9.787154198
1784242578.886765,-0.004260722,0.001235543,-0.158757716,-0.000249229,0.000896752,-0.001519245,-0.025836570,-0.031398293,9.805066109
1784242578.888767,-0.004261717,0.001240736,-0.158767104,-0.000268009,0.001319045,-0.002412817,-0.017635230,-0.019575350,9.828910828
1784242578.890769,-0.004264728,0.001236869,-0.158774123,-0.000505553,0.001033904,-0.002868863,-0.021155303,-0.054949105,9.769054413
1784242578.892772,-0.004266955,0.001235128,-0.158781394,-0.000629779,0.000356791,-0.003059210,-0.009919390,-0.052516352,9.784770966
1784242578.894767,-0.004273092,0.001238179,-0.158783033,-0.000933029,0.000331580,-0.002834571,-0.022819374,-0.042951979,9.786165237
1784242578.896770,-0.004278482,0.001236972,-0.158781007,-0.001462228,0.000366663,-0.002039302,-0.008761105,-0.069416218,9.764937401
1784242578.898775,-0.004278023,0.001237394,-0.158777058,-0.001344578,0.000186479,-0.001081216,0.009103557,-0.075167976,9.785540581
1784242578.900777,-0.004276751,0.001236641,-0.158772081,-0.000806976,0.000085126,-0.000183805,0.004727760,-0.066532455,9.776177406
1784242578.902776,-0.004277581,0.001236143,-0.158768430,-0.000523382,0.000048564,0.000451933,-0.009559175,-0.022925481,9.781374931
1784242578.904778,-0.004279732,0.001238357,-0.158770651,-0.000548501,0.000225407,0.000428428,-0.014183492,-0.033272844,9.795651436
1784242578.906782,-0.004279724,0.001243458,-0.158769369,-0.000545016,0.000660983,0.000250583,-0.018084737,0.015177162,9.794164658
1784242578.908782,-0.004278020,0.001242116,-0.158766761,-0.000401352,0.000722793,0.000444757,-0.014880363,-0.016683605,9.795308113
1784242578.910796,-0.004276827,0.001233941,-0.158762917,-0.000216479,-0.000134110,0.000761832,-0.023811253,-0.048954759,9.813026428
1784242578.912796,-0.004273861,0.001235010,-0.158760577,0.000154833,-0.000616803,0.000975930,-0.016979041,-0.039322577,9.832371712
1784242578.914793,-0.004277061,0.001238824,-0.158761412,0.000127535,-0.000153272,0.000811035,-0.015831806,-0.056714918,9.818811417
1784242578.916830,-0.004280572,0.001238402,-0.158764735,-0.000362282,0.000119800,0.000310715,-0.033375841,-0.060490549,9.814287186
1784242578.918799,-0.004283633,0.001234430,-0.158764303,-0.000689210,-0.000240120,0.000033431,-0.032053910,-0.063535422,9.799026489
1784242578.920794,-0.004285531,0.001235316,-0.158767045,-0.000818010,-0.000413723,-0.000131797,0.002706016,-0.048137303,9.776292801
1784242578.922796,-0.004289374,0.001239522,-0.158770263,-0.000994805,0.000092225,-0.000501498,-0.034966949,-0.008301178,9.786824226
1784242578.924797,-0.004292564,0.001243875,-0.158775881,-0.001210983,0.000696952,-0.000968214,-0.052475426,-0.007743469,9.802950859
1784242578.926798,-0.004282678,0.001250733,-0.158778280,-0.000426912,0.001270998,-0.001251816,-0.002629032,-0.042410165,9.799638748
1784242578.928802,-0.004272136,0.001254385,-0.158775404,0.001082621,0.001639527,-0.000879545,-0.000893963,-0.049794126,9.763725281
1784242578.930798,-0.004273825,0.001250487,-0.158773392,0.001396158,0.001176624,-0.000306793,-0.015282528,-0.051468767,9.773117065
1784242578.932829,-0.004273597,0.001249453,-0.158774540,0.000916615,0.000524712,-0.000163204,0.016874891,-0.062786400,9.794593811
1784242578.934836,-0.004268021,0.001251848,-0.158776447,0.001060745,0.000478121,-0.000326208,0.003663212,-0.041597907,9.800097466
1784242578.936806,-0.004272594,0.001252484,-0.158771724,0.000840528,0.000553247,-0.000047724,-0.033526998,-0.036657013,9.802335739
1784242578.938805,-0.004280803,0.001247911,-0.158766821,-0.000248725,0.000093137,0.000620152,-0.049456149,-0.017254485,9.811859131
1784242578.940820,-0.004284621,0.001244038,-0.158766136,-0.000990659,-0.000546931,0.000834298,-0.023480047,-0.022429660,9.799746513
1784242578.942885,-0.004284260,0.001244394,-0.158761948,-0.001002821,-0.000658594,0.000938962,-0.025638463,-0.052429594,9.800896645
1784242578.944928,-0.004280066,0.001242294,-0.158762857,-0.000467675,-0.000619147,0.000908434,-0.018797738,-0.043540716,9.798718452
1784242578.946837,-0.004279384,0.001236244,-0.158758163,-0.000010080,-0.001005344,0.000920095,-0.016920589,-0.036834754,9.797418594
1784242578.948845,-0.004282884,0.001234048,-0.158748969,-0.000221537,-0.001357011,0.001613301,0.010659002,-0.057727467,9.787447929
1784242578.950964,-0.004286932,0.001234406,-0.158740252,-0.000696981,-0.001179412,0.002390977,0.004728510,-0.065716021,9.787390709
1784242578.952904,-0.004290659,0.001236141,-0.158742696,-0.000947132,-0.000686216,0.002165407,-0.023233315,-0.038619246,9.807712555
1784242578.954889,-0.004292596,0.001233580,-0.158745214,-0.000985051,-0.000521826,0.001242048,-0.047427855,-0.037218902,9.780349731
1784242578.956845,-0.004293463,0.001232055,-0.158740491,-0.000908099,-0.000658175,0.001055530,-0.016851425,-0.031830873,9.786690712
1784242578.958875,-0.004294492,0.001228549,-0.158740327,-0.000799212,-0.000849176,0.001099744,-0.012127212,-0.012184436,9.787717819
1784242578.960884,-0.004297541,0.001222276,-0.158736482,-0.000867902,-0.001310376,0.001075769,-0.007914206,-0.035478674,9.779502869
1784242578.962863,-0.004297164,0.001216857,-0.158735007,-0.000828738,-0.001737866,0.001148194,-0.013700966,-0.067764640,9.793636322
1784242578.964838,-0.004290210,0.001223742,-0.158735558,-0.000120786,-0.001154773,0.000900137,-0.017734397,-0.068484806,9.776143074
1784242578.966856,-0.004296847,0.001230765,-0.158730522,-0.000066710,0.000101507,0.000958004,0.005108803,-0.035156105,9.773689270
1784242578.968840,-0.004302617,0.001235173,-0.158722624,-0.000880384,0.000842357,0.001575490,0.020999769,-0.018080795,9.801161766
1784242578.970846,-0.004302374,0.001237617,-0.158719495,-0.001006085,0.001071812,0.001897973,-0.012842445,-0.032924805,9.807312012
1784242578.972842,-0.004301317,0.001239314,-0.158712357,-0.000738278,0.001019434,0.002078091,-0.048289001,-0.031247556,9.824323654
1784242578.974855,-0.004307800,0.001234946,-0.158714876,-0.000999323,0.000520541,0.001826925,-0.021189706,-0.055625997,9.801328659
1784242578.976845,-0.004309457,0.001233445,-0.158719212,-0.001279971,-0.000017154,0.000866611,-0.031650662,-0.067547373,9.795414925
1784242578.978850,-0.004308021,0.001234891,-0.158715039,-0.000885184,-0.000076103,0.000621133,-0.047199823,-0.053961381,9.803108215
1784242578.980854,-0.004306996,0.001235736,-0.158712715,-0.000416124,0.000038223,0.000894766,-0.004159622,-0.058033403,9.794157028
1784242578.982849,-0.004301336,0.001234770,-0.158709854,0.000250836,0.000082556,0.001004144,-0.029294182,-0.020178707,9.808721542
1784242578.984850,-0.004291798,0.001235247,-0.158701688,0.001314097,0.000088191,0.001481734,-0.014755966,-0.043970462,9.788856506
1784242578.986852,-0.004296344,0.001238533,-0.158695877,0.001295044,0.000315627,0.002028207,-0.031551912,-0.021477949,9.806468964
1784242578.988861,-0.004300983,0.001238753,-0.158693016,0.000232846,0.000440831,0.002063379,-0.033312194,-0.019561354,9.792134285
1784242578.990855,-0.004298402,0.001234822,-0.158697933,-0.000056338,0.000045265,0.001364987,-0.026636561,-0.024133567,9.793007851
1784242578.992859,-0.004288365,0.001235174,-0.158697739,0.000764340,-0.000216916,0.000677481,-0.036577061,-0.030631110,9.779505730
1784242578.994888,-0.004284137,0.001237300,-0.158689007,0.001472941,-0.000000770,0.001099727,-0.039687309,-0.028322443,9.775483131
1784242578.996871,-0.004288756,0.001233172,-0.158689395,0.001045798,-0.000138902,0.001368079,-0.025712339,-0.021501815,9.799302101
1784242578.998863,-0.004290373,0.001234124,-0.158693984,0.000228824,-0.000390535,0.000659336,0.008161281,-0.041162930,9.793828011
1784242579.000860,-0.004288537,0.001234976,-0.158700153,0.000072231,-0.000234155,-0.000251527,0.007344031,-0.034844995,9.788936615
1784242579.002867,-0.004291533,0.001234328,-0.158700794,-0.000023833,-0.000068092,-0.000643985,-0.014792044,-0.046686850,9.792874336
1784242579.004865,-0.004289692,0.001236493,-0.158700034,-0.000093969,0.000140003,-0.000460054,-0.014973080,-0.062705338,9.777527809
1784242579.006861,-0.004289214,0.001235758,-0.158700377,0.000088951,0.000198968,-0.000308154,-0.008034294,-0.044126660,9.798726082
1784242579.008863,-0.004289897,0.001232073,-0.158699945,0.000055832,-0.000098158,-0.000217708,-0.027115982,-0.025586171,9.809137344
1784242579.010873,-0.004295798,0.001232729,-0.158698142,-0.000401572,-0.000220828,-0.000007571,-0.006649505,-0.003411850,9.804367065
1784242579.012880,-0.004295185,0.001230542,-0.158699289,-0.000823556,-0.000182577,0.000037772,0.020590767,-0.050083175,9.828751564
1784242579.014874,-0.004296860,0.001227710,-0.158700183,-0.000843797,-0.000390691,-0.000110574,-0.012665222,-0.054931518,9.814342499
1784242579.016870,-0.004293683,0.001229867,-0.158702910,-0.000512436,-0.000329377,-0.000325216,-0.007353699,-0.061249707,9.811168671
1784242579.018875,-0.004284962,0.001229612,-0.158705354,0.000508968,-0.000076467,-0.000587493,-0.026976852,-0.050325166,9.822429657
1784242579.020877,-0.004283944,0.001229662,-0.158703566,0.001106118,-0.000036516,-0.000472715,-0.025917059,-0.035681132,9.840456009
1784242579.022878,-0.004286280,0.001230567,-0.158705771,0.000709442,0.000001446,-0.000372321,-0.020686259,-0.011125594,9.843310356
1784242579.024879,-0.004283630,0.001233524,-0.158707395,0.000531653,0.000227332,-0.000532577,-0.013185274,-0.025599053,9.785837173
1784242579.026879,-0.004282293,0.001238347,-0.158706918,0.000658127,0.000694006,-0.000466714,-0.002649058,-0.044189289,9.797833443
1784242579.028879,-0.004276986,0.001241753,-0.158704042,0.000894938,0.001102529,-0.000111241,-0.011423564,-0.065499522,9.786031723
1784242579.030889,-0.004271213,0.001237782,-0.158706263,0.001368801,0.000804017,-0.000035643,-0.013273376,-0.033589218,9.775475502
1784242579.032884,-0.004268430,0.001233707,-0.158709526,0.001546248,0.000032934,-0.000399113,-0.010551231,-0.029334888,9.802404404
1784242579.034887,-0.004264983,0.001235867,-0.158715174,0.001517850,-0.000111671,-0.000896498,-0.032555599,-0.031626474,9.786228180
1784242579.036887,-0.004256470,0.001238245,-0.158725321,0.001918990,0.000231295,-0.001725016,-0.050032020,-0.028384171,9.802820206
1784242579.038891,-0.004252538,0.001240227,-0.158733621,0.002227975,0.000320077,-0.002509972,-0.011938542,-0.033695497,9.788028717
1784242579.040891,-0.004255560,0.001236602,-0.158728436,0.001668654,-0.000027190,-0.002038340,0.021569010,-0.044998582,9.805025101
1784242579.042950,-0.004254436,0.001233922,-0.158718407,0.001112785,-0.000358204,-0.000449857,0.026516184,-0.044566169,9.798307419
1784242579.044912,-0.004257415,0.001233231,-0.158722490,0.000711503,-0.000397519,0.000076653,0.016306277,-0.036268890,9.784005165
1784242579.046973,-0.004263364,0.001228860,-0.158726841,-0.000087042,-0.000630715,-0.000516532,-0.001117907,-0.065746211,9.802180290
1784242579.048909,-0.004265077,0.001220567,-0.158724591,-0.000494287,-0.001291113,-0.000517873,-0.022448979,-0.012064921,9.789502144
1784242579.050911,-0.004264888,0.001217973,-0.158721745,-0.000374944,-0.001653685,-0.000030130,-0.051959515,-0.003571302,9.782353401
1784242579.052906,-0.004267287,0.001223030,-0.158730298,-0.000458439,-0.001119474,-0.000410761,-0.026595004,-0.018942453,9.819044113
1784242579.054945,-0.004272072,0.001227403,-0.158737823,-0.000856009,-0.000254380,-0.001389951,-0.043310586,-0.030973755,9.776806831
1784242579.056912,-0.004275334,0.001226951,-0.158725932,-0.001170177,0.000079587,-0.000714981,-0.027061395,-0.060313486,9.777978897
1784242579.058932,-0.004278226,0.001227999,-0.158723593,-0.001204704,0.000046700,0.000443415,-0.009106100,-0.022086184,9.788554192
1784242579.060922,-0.004280904,0.001230488,-0.158728436,-0.001188817,0.000227264,0.000151235,-0.012527071,-0.045330375,9.787056923
1784242579.062923,-0.004286631,0.001232064,-0.158725306,-0.001447590,0.000451382,-0.000007373,-0.017863788,-0.038805880,9.824303627
1784242579.064908,-0.004290968,0.001230043,-0.158719018,-0.001749716,0.000305239,0.000633354,-0.043782469,-0.030745804,9.808639526
1784242579.066918,-0.004291554,0.001229322,-0.158720687,-0.001609199,0.000034887,0.000774844,0.003711665,-0.037162818,9.806403160
1784242579.068914,-0.004298561,0.001228409,-0.158726901,-0.001666142,-0.000029148,0.000029970,-0.026879732,-0.044695266,9.786598206
1784242579.070939,-0.004300425,0.001232475,-0.158729076,-0.001794425,0.000249346,-0.000547092,-0.026214156,-0.025562692,9.804206848
1784242579.072930,-0.004298785,0.001240897,-0.158730969,-0.001412272,0.001021301,-0.000674721,-0.027663482,-0.033249810,9.816709518
1784242579.074926,-0.004302230,0.001247355,-0.158726484,-0.001241684,0.001744051,-0.000315680,-0.010431094,-0.056250099,9.806715012
1784242579.076996,-0.004306798,0.001247739,-0.158728957,-0.001448602,0.001734383,-0.000093739,-0.024310881,-0.052593112,9.821521759
1784242579.078932,-0.004307205,0.001243347,-0.158730656,-0.001317844,0.000916887,-0.000351317,0.000792329,-0.056752756,9.794169426
1784242579.080929,-0.004304648,0.001238076,-0.158728123,-0.000739366,-0.000063947,-0.000197355,-0.021938652,-0.043500472,9.798716545
1784242579.082927,-0.004302922,0.001239212,-0.158727124,-0.000241389,-0.000348425,0.000097841,-0.034316976,-0.028502725,9.791178703
1784242579.084931,-0.004299765,0.001239773,-0.158726662,0.000162177,-0.000159237,0.000170747,-0.010170310,0.000824774,9.781973839
1784242579.086936,-0.004296869,0.001241653,-0.158721119,0.000528530,0.000047920,0.000531240,-0.007818041,-0.024588071,9.823060989
1784242579.088928,-0.004294634,0.001247098,-0.158716887,0.000635797,0.000540988,0.001048234,-0.007363540,-0.026979517,9.780454636
1784242579.090935,-0.004296536,0.001247979,-0.158717230,0.000388687,0.000834128,0.001026833,0.015783180,-0.041308358,9.800559998
1784242579.092931,-0.004294396,0.001250465,-0.158714861,0.000316476,0.000957293,0.000884549,0.005642317,-0.063977018,9.793231010
1784242579.094938,-0.004289597,0.001255251,-0.158714384,0.000718647,0.001311769,0.000837249,-0.024820071,-0.060764760,9.774393082
1784242579.096936,-0.004288914,0.001248944,-0.158714220,0.000895699,0.000852169,0.000654193,-0.043833807,-0.037229925,9.775422096
1784242579.098942,-0.004290255,0.001248987,-0.158712432,0.000622038,0.000089163,0.000608073,-0.019786580,-0.052761517,9.774000168
1784242579.100947,-0.004290188,0.001259395,-0.158713251,0.000380896,0.000668164,0.000508524,-0.000491860,-0.051788863,9.791510582
1784242579.102949,-0.004297246,0.001263234,-0.158712476,-0.000170367,0.001454437,0.000365230,-0.020295698,-0.021316431,9.763441086
1784242579.104945,-0.004300714,0.001266788,-0.158714950,-0.000811796,0.001562500,0.000149561,0.004605380,-0.039229698,9.780386925
1784242579.106950,-0.004301531,0.001269250,-0.158716038,-0.000881995,0.001547719,-0.000133805,0.001740200,-0.052313261,9.798233986
1784242579.108944,-0.004301981,0.001261685,-0.158714041,-0.000724329,0.000848848,-0.000036855,-0.015990390,-0.070935205,9.802579880
1784242579.110949,-0.004298393,0.001252437,-0.158718154,-0.000310222,-0.000454245,-0.000168746,-0.009136029,-0.061128143,9.797269821
1784242579.112954,-0.004295937,0.001249084,-0.158724368,0.000266520,-0.001169081,-0.000822690,0.017474653,-0.012662454,9.801641464
1784242579.114953,-0.004294382,0.001249658,-0.158722028,0.000548207,-0.001025024,-0.000862354,-0.024372848,-0.021976555,9.800644875
1784242579.116954,-0.004288579,0.001248600,-0.158722371,0.000898651,-0.000780087,-0.000493098,-0.040195849,-0.031220676,9.805950165
1784242579.118961,-0.004288353,0.001249138,-0.158726156,0.001045300,-0.000705930,-0.000640044,-0.023492314,-0.060521644,9.800847054
1784242579.120956,-0.004296112,0.001249825,-0.158730224,0.000231863,-0.000532441,-0.001000615,-0.015319921,-0.052574541,9.802699089
1784242579.122952,-0.004301683,0.001246618,-0.158731684,-0.000670016,-0.000547710,-0.001102101,-0.009326549,-0.076816313,9.798514366
1784242579.124952,-0.004297706,0.001249290,-0.158730671,-0.000530801,-0.000425528,-0.000831041,-0.006192413,-0.040130723,9.800546646
1784242579.126956,-0.004299110,0.001246983,-0.158730239,-0.000212151,-0.000285639,-0.000506585,-0.015750732,-0.052022271,9.788803101
1784242579.128958,-0.004303146,0.001242465,-0.158742875,-0.000489484,-0.000676571,-0.001194420,0.007620912,-0.049986035,9.775388718
1784242579.130957,-0.004294890,0.001245898,-0.158748493,-0.000035374,-0.000569908,-0.002107468,0.034898315,-0.019158131,9.801616669
1784242579.132974,-0.004286685,0.001246104,-0.158739224,0.001020511,-0.000005122,-0.001288500,-0.000443519,-0.010980497,9.786391258
1784242579.134989,-0.004282449,0.001248761,-0.158731818,0.001515810,0.000349850,0.000191898,-0.034758311,-0.027223038,9.801049232
1784242579.136969,-0.004281208,0.001243789,-0.158739910,0.001476054,0.000097980,0.000093505,-0.000098511,-0.055473685,9.804936409
1784242579.138971,-0.004278290,0.001239102,-0.158752799,0.001373202,-0.000526277,-0.001352685,-0.011025837,-0.068339296,9.806637764
1784242579.140976,-0.004275925,0.001239944,-0.158756852,0.001374229,-0.000587538,-0.002133128,-0.022823913,-0.041366816,9.815317154
1784242579.142976,-0.004282935,0.001238969,-0.158752427,0.000705170,-0.000452146,-0.001528367,-0.021759592,-0.065897927,9.797676086
1784242579.144969,-0.004284082,0.001235603,-0.158754379,-0.000020731,-0.000639815,-0.000945364,-0.010593982,-0.031698693,9.819873810
1784242579.146977,-0.004284358,0.001238072,-0.158762693,-0.000110825,-0.000523960,-0.001385035,0.009506125,-0.040379643,9.807284355
1784242579.148978,-0.004289377,0.001233440,-0.158764660,-0.000447647,-0.000436637,-0.001705745,0.012812532,-0.026955616,9.803787231
1784242579.150988,-0.004289999,0.001229274,-0.158767432,-0.000716883,-0.000825070,-0.001562848,0.006394322,-0.038893767,9.792943954
1784242579.152983,-0.004289896,0.001226761,-0.158765420,-0.000568993,-0.001005414,-0.001186853,-0.011209335,-0.048813671,9.770447731
1784242579.154985,-0.004289916,0.001228691,-0.158769712,-0.000420354,-0.000722588,-0.001018883,-0.006659246,-0.043104906,9.778558731
1784242579.156982,-0.004289652,0.001232473,-0.158773735,-0.000288901,-0.000136274,-0.001309555,-0.003572891,-0.084407836,9.784573555
1784242579.158985,-0.004291853,0.001231917,-0.158769563,-0.000195699,0.000179340,-0.000944274,-0.026408834,-0.080089323,9.785474777
1784242579.160991,-0.004292679,0.001233584,-0.158770412,-0.000202200,0.000264742,-0.000462472,-0.035076916,-0.052432865,9.818371773
1784242579.162996,-0.004296882,0.001240333,-0.158771247,-0.000491481,0.000692111,-0.000452886,-0.029279862,-0.020470867,9.786751747
1784242579.164999,-0.004296941,0.001239596,-0.158767611,-0.000650474,0.000839014,-0.000139856,-0.047643624,-0.017137578,9.792136192
1784242579.167005,-0.004296503,0.001235671,-0.158763155,-0.000448757,0.000292422,0.000446082,-0.009960636,-0.018494176,9.789025307
1784242579.168987,-0.004291286,0.001234535,-0.158763260,-0.000030009,-0.000107146,0.000620631,0.003850850,-0.027958760,9.771940231
1784242579.170993,-0.004290800,0.001234855,-0.158760667,0.000278466,-0.000109502,0.000623039,-0.023029560,-0.022016065,9.803784370
1784242579.172990,-0.004287196,0.001240672,-0.158761218,0.000381009,0.000286304,0.000590710,-0.045959864,-0.025331981,9.807328224
1784242579.174999,-0.004284596,0.001239117,-0.158760771,0.000599328,0.000447986,0.000422267,-0.006898089,-0.024421511,9.797957420
1784242579.177034,-0.004287052,0.001238406,-0.158757120,0.000446038,0.000171385,0.000585694,-0.011982281,-0.074062258,9.794046402
1784242579.179016,-0.004286816,0.001237400,-0.158757225,0.000244838,0.000043067,0.000668910,-0.020143228,-0.081513695,9.785472870
1784242579.181013,-0.004289830,0.001233527,-0.158761293,0.000061027,-0.000262791,0.000204787,-0.006987047,-0.031607963,9.800600052
1784242579.183024,-0.004295660,0.001234391,-0.158765376,-0.000595356,-0.000370316,-0.000404286,0.009821836,-0.054808799,9.756530762
1784242579.185013,-0.004299222,0.001229717,-0.158763081,-0.001111310,-0.000504893,-0.000415120,0.013997686,-0.042022295,9.778137207
1784242579.187015,-0.004305677,0.001228524,-0.158761859,-0.001489801,-0.000767110,-0.000062895,-0.021706710,-0.061427843,9.799050331
1784242579.189008,-0.004316247,0.001230834,-0.158758178,-0.002158226,-0.000468472,0.000286061,-0.029268356,-0.055538412,9.803562164
1784242579.191019,-0.004322654,0.001234144,-0.158755317,-0.002642114,0.000054371,0.000650288,-0.002455156,-0.065659016,9.792315483
1784242579.193013,-0.004319543,0.001237403,-0.158754542,-0.002052849,0.000534315,0.000719102,0.007144076,-0.051012930,9.794660568
1784242579.195014,-0.004313775,0.001233423,-0.158751711,-0.000797191,0.000389059,0.000767788,-0.007793250,-0.024797559,9.789434433
1784242579.197011,-0.004313317,0.001230832,-0.158751547,-0.000158433,-0.000163540,0.000764224,-0.002894409,-0.027583539,9.794353485
1784242579.199019,-0.004314978,0.001229749,-0.158751622,-0.000214784,-0.000361270,0.000563370,-0.005011328,-0.016829167,9.798007011
1784242579.201014,-0.004314489,0.001230334,-0.158748791,-0.000253929,-0.000290451,0.000598768,-0.010201096,-0.037413470,9.803698540
1784242579.203018,-0.004322232,0.001232337,-0.158748060,-0.000660098,-0.000037129,0.000679235,-0.014323666,-0.045726724,9.783017159
1784242579.205021,-0.004332136,0.001231721,-0.158752143,-0.001660928,0.000067897,0.000266943,-0.018049300,-0.019296154,9.790356636
1784242579.207020,-0.004334571,0.001232606,-0.158751428,-0.002047294,0.000068714,-0.000033284,-0.008641236,-0.057527941,9.794155121
1784242579.209056,-0.004332403,0.001232833,-0.158746421,-0.001461842,0.000110197,0.000363371,-0.004783760,-0.035601586,9.791161537
1784242579.211087,-0.004331641,0.001234467,-0.158738777,-0.000818939,0.000189203,0.001122292,-0.004570856,-0.017305134,9.801142693
1784242579.213044,-0.004326710,0.001233859,-0.158739388,-0.000313324,0.000266679,0.001296241,-0.004394554,-0.040534902,9.791130066
1784242579.215049,-0.004325736,0.001229671,-0.158739492,0.000070061,-0.000069815,0.000897293,-0.023583340,-0.032160804,9.782199860
1784242579.217035,-0.004325548,0.001226293,-0.158743054,0.000130149,-0.000563355,0.000406361,-0.025843775,-0.069855563,9.794507980
1784242579.219031,-0.004318634,0.001227311,-0.158750832,0.000648363,-0.000636812,-0.000472432,-0.008158080,-0.092419997,9.785413742
1784242579.221031,-0.004317916,0.001223924,-0.158752531,0.001061731,-0.000691486,-0.000986211,0.018279692,-0.057882436,9.795523643
1784242579.223032,-0.004324320,0.001221958,-0.158753932,0.000457272,-0.000778205,-0.000928950,-0.007209511,-0.051600870,9.777157784
1784242579.225032,-0.004327036,0.001221520,-0.158752680,-0.000216435,-0.000642090,-0.000687926,-0.017853035,-0.039936733,9.794259071
1784242579.227040,-0.004327899,0.001220522,-0.158746392,-0.000401329,-0.000567439,0.000011509,0.004829966,-0.020841036,9.777366638
1784242579.229047,-0.004319371,0.001222160,-0.158740327,0.000152550,-0.000306483,0.000848217,0.011094134,-0.021871496,9.784987450
1784242579.231050,-0.004311138,0.001224779,-0.158735082,0.001173645,0.000129392,0.001387894,0.004990384,-0.044601440,9.779007912
1784242579.233050,-0.004315298,0.001223081,-0.158728227,0.001174170,0.000274613,0.001833057,-0.010577604,-0.070374995,9.777034760
1784242579.235045,-0.004316972,0.001220249,-0.158729658,0.000502609,0.000012434,0.001702941,-0.029984787,-0.038698345,9.831018448
1784242579.237042,-0.004316261,0.001216332,-0.158731356,0.000301118,-0.000448109,0.001029450,-0.017743537,-0.032588109,9.768751144
1784242579.239049,-0.004315712,0.001213880,-0.158730119,0.000316224,-0.000822461,0.000719378,-0.003249722,-0.020356361,9.786776543
1784242579.241045,-0.004320061,0.001210800,-0.158724368,-0.000016909,-0.001040562,0.000998702,0.017881118,-0.016648980,9.794443130
1784242579.243048,-0.004326507,0.001212778,-0.158727616,-0.000832130,-0.000705415,0.000897149,0.004136879,-0.041406520,9.772302628
1784242579.245046,-0.004329994,0.001214738,-0.158728763,-0.001366939,-0.000117038,0.000355833,0.003142301,-0.046214852,9.820242882
1784242579.247072,-0.004328181,0.001214253,-0.158728302,-0.001109413,0.000015074,0.000213591,-0.041460495,-0.064097568,9.768975258
1784242579.249056,-0.004329188,0.001216399,-0.158727556,-0.000706524,-0.000017773,0.000235955,-0.023725878,-0.045443833,9.760145187
1784242579.251092,-0.004335067,0.001218916,-0.158728942,-0.000934877,0.000162691,0.000126194,-0.019897409,-0.061336376,9.782911301
1784242579.253075,-0.004335859,0.001221600,-0.158733517,-0.001080722,0.000440144,-0.000313956,0.016836343,-0.029958669,9.777769089
1784242579.255064,-0.004337056,0.001213725,-0.158734426,-0.000869231,-0.000063351,-0.000601924,-0.010196386,-0.038592011,9.780376434
1784242579.257107,-0.004333448,0.001207378,-0.158729479,-0.000469852,-0.001012746,-0.000164696,0.004595597,-0.040522706,9.773205757
1784242579.259070,-0.004334658,0.001205644,-0.158732221,-0.000136989,-0.001200071,0.000030333,-0.012911496,-0.039548825,9.793817520
1784242579.261073,-0.004340253,0.001209489,-0.158735991,-0.000518437,-0.000642185,-0.000420422,-0.018589677,-0.062872387,9.807561874
1784242579.263075,-0.004345939,0.001209200,-0.158736601,-0.001086130,-0.000251531,-0.000604927,-0.022067379,-0.055458687,9.779360771
1784242579.265062,-0.004340935,0.001208152,-0.158737466,-0.000780502,-0.000299901,-0.000541479,-0.029143257,-0.043608800,9.826952934
1784242579.267076,-0.004334838,0.001210004,-0.158735663,0.000184956,-0.000164151,-0.000330659,-0.027281996,-0.040270310,9.795145035
1784242579.269075,-0.004337687,0.001213597,-0.158733889,0.000384355,0.000191057,0.000004067,-0.003772245,-0.024986025,9.808715820
1784242579.271086,-0.004341708,0.001215561,-0.158733413,-0.000157182,0.000457781,0.000156606,0.014690031,-0.019436400,9.814147949
1784242579.273085,-0.004338560,0.001213797,-0.158730850,-0.000229312,0.000378291,0.000320870,-0.023602329,-0.034337007,9.773218155
1784242579.275075,-0.004339137,0.001214133,-0.158730626,-0.000047953,0.000209976,0.000422240,-0.022206441,-0.028692925,9.796120644
1784242579.277071,-0.004341043,0.001214745,-0.158728316,-0.000203695,0.000216569,0.000478298,0.006038204,-0.031672943,9.786264420
1784242579.279084,-0.004341556,0.001210699,-0.158727631,-0.000319774,-0.000012811,0.000553930,-0.011125668,-0.040858477,9.785741806
1784242579.281076,-0.004341559,0.001213959,-0.158734307,-0.000274354,0.000002442,-0.000003512,-0.019467173,-0.062298462,9.791423798
1784242579.283075,-0.004343941,0.001211848,-0.158742905,-0.000347443,0.000090569,-0.001041155,0.002282118,-0.045504201,9.784827232
1784242579.285078,-0.004338659,0.001211860,-0.158744857,-0.000042222,-0.000067079,-0.001472802,-0.039558358,-0.051520791,9.824203491
1784242579.287078,-0.004336797,0.001215883,-0.158744887,0.000454412,0.000225558,-0.001206888,0.008820758,-0.024104821,9.788109779
1784242579.289088,-0.004340504,0.001216157,-0.158749744,0.000148138,0.000483160,-0.001212556,0.003235341,-0.039806671,9.801005363
1784242579.291083,-0.004337873,0.001217519,-0.158749282,-0.000022777,0.000490044,-0.001181506,0.002049652,-0.028796706,9.767001152
1784242579.293081,-0.004336820,0.001220252,-0.158745050,0.000233046,0.000685186,-0.000543461,-0.006239601,-0.045366351,9.780784607
1784242579.295091,-0.004336846,0.001222697,-0.158741131,0.000238833,0.000899849,0.000156139,-0.040341098,-0.080899239,9.798459053
1784242579.297099,-0.004339037,0.001221458,-0.158740148,0.000023109,0.000735944,0.000447034,-0.028913451,-0.062768772,9.811587334
1784242579.299089,-0.004334471,0.001220294,-0.158731729,0.000224074,0.000358808,0.000964962,-0.043303620,-0.064456128,9.822771072
1784242579.301090,-0.004329440,0.001222155,-0.158728078,0.000860523,0.000293669,0.001524732,-0.022168299,-0.026770717,9.777752876
1784242579.303095,-0.004331111,0.001221122,-0.158732951,0.000747607,0.000239967,0.001028977,-0.026442172,-0.005983379,9.823610306
1784242579.305094,-0.004328743,0.001222490,-0.158734903,0.000485079,0.000169116,0.000288273,-0.010159020,0.003750646,9.811583519
1784242579.307092,-0.004326097,0.001223156,-0.158734262,0.000873513,0.000306697,0.000165845,0.001070093,0.002482428,9.780652046
1784242579.309095,-0.004326288,0.001226853,-0.158740833,0.000743515,0.000662731,0.000137512,0.024608990,-0.027665200,9.819334984
1784242579.311113,-0.004325268,0.001226376,-0.158742249,0.000358883,0.000800072,-0.000064875,0.005095850,-0.072037749,9.793627739
1784242579.313108,-0.004323757,0.001221172,-0.158739403,0.000504736,0.000227935,0.000049380,-0.032452960,-0.096675001,9.797468185
1784242579.315110,-0.004323013,0.001220945,-0.158730999,0.000591498,-0.000174746,0.000800578,-0.064551227,-0.078406207,9.806521416
1784242579.317107,-0.004326214,0.001224748,-0.158728391,0.000263239,0.000112211,0.001332378,-0.061919421,-0.047001366,9.795965195
1784242579.319104,-0.004335627,0.001226731,-0.158727393,-0.000661498,0.000349748,0.001213407,-0.054558113,-0.031471938,9.804141998
1784242579.321157,-0.004346673,0.001218960,-0.158729658,-0.001867256,-0.000261444,0.000796591,-0.002089239,0.000756262,9.777050018
1784242579.323125,-0.004341020,0.001218292,-0.158730015,-0.001895691,-0.000715302,0.000403988,0.007240979,-0.007389611,9.771627426
1784242579.325124,-0.004334097,0.001221730,-0.158732459,-0.000696664,-0.000285009,0.000106106,0.041421402,-0.037902929,9.779534340
1784242579.327172,-0.004329870,0.001221757,-0.158738628,0.000250087,0.000030099,-0.000507912,0.006654343,-0.054978423,9.786115646
1784242579.329157,-0.004330442,0.001217517,-0.158733979,0.000445792,-0.000169991,-0.000470997,-0.042707101,-0.089537553,9.820368767
1784242579.331167,-0.004335590,0.001213913,-0.158729523,-0.000048881,-0.000565299,0.000275565,-0.043851476,-0.072933026,9.818680763
1784242579.333134,-0.004339840,0.001213779,-0.158726156,-0.000624616,-0.000724407,0.000729544,-0.036780793,-0.006807484,9.832113266
1784242579.335155,-0.004349185,0.001215275,-0.158731028,-0.001328078,-0.000491394,0.000429942,-0.059991673,0.002962251,9.823186874
1784242579.337142,-0.004354774,0.001219380,-0.158734530,-0.001980345,0.000024724,-0.000255954,-0.030532110,-0.011202244,9.808777809
1784242579.339138,-0.004352151,0.001217681,-0.158733815,-0.001754255,0.000120838,-0.000376979,0.009981241,-0.037745319,9.814027786
1784242579.341149,-0.004348251,0.001212403,-0.158737391,-0.000945519,-0.000446061,-0.000467670,0.013127836,-0.076141089,9.789124489
1784242579.343282,-0.004341070,0.001210660,-0.158735886,0.000133208,-0.000720659,-0.000478033,-0.008035152,-0.043322943,9.811732292
1784242579.345181,-0.004336540,0.001214390,-0.158738866,0.000961748,-0.000309409,-0.000446005,-0.013279763,-0.069203287,9.806180954
1784242579.347158,-0.004344027,0.001215333,-0.158742100,0.000500408,0.000093652,-0.000748722,-0.037544198,0.001556660,9.791368484
1784242579.349153,-0.004345820,0.001211233,-0.158738494,-0.000367297,-0.000185730,-0.000521989,-0.067466214,-0.021161094,9.826612473
1784242579.351167,-0.004342438,0.001208069,-0.158734888,-0.000262212,-0.000670072,0.000112137,-0.022009613,-0.051760536,9.763244629
1784242579.353200,-0.004340131,0.001210641,-0.158733353,0.000199618,-0.000540201,0.000432978,-0.001787099,-0.047317442,9.795124054
1784242579.355170,-0.004339378,0.001210166,-0.158735022,0.000358081,-0.000261466,0.000306415,0.015320720,-0.043437488,9.785750389
1784242579.357151,-0.004336716,0.001213913,-0.158736140,0.000493007,0.000032482,0.000034234,-0.022915699,-0.051412370,9.778937340
1784242579.359154,-0.004333543,0.001215566,-0.158734858,0.000791254,0.000387240,0.000035624,-0.011667465,-0.011697709,9.781445503
1784242579.361195,-0.004329340,0.001213990,-0.158734649,0.001112884,0.000284015,0.000125046,0.008698943,-0.033982217,9.791185379
1784242579.363162,-0.004322654,0.001213361,-0.158737659,0.001527312,0.000082651,-0.000099056,-0.002022330,-0.031442273,9.768326759
1784242579.365154,-0.004329932,0.001208739,-0.158744171,0.001050553,-0.000268868,-0.000715986,-0.004373674,-0.039559495,9.779928207
1784242579.367152,-0.004338243,0.001207306,-0.158748239,-0.000291925,-0.000603769,-0.001239640,-0.010823008,-0.052959170,9.785665512
1784242579.369160,-0.004341162,0.001209199,-0.158753350,-0.000958096,-0.000419675,-0.001527978,-0.002894017,-0.030417202,9.751743317
1784242579.371163,-0.004336405,0.001209478,-0.158755824,-0.000556403,-0.000169799,-0.001627663,-0.007028777,-0.071958832,9.804375648
1784242579.373156,-0.004335875,0.001207808,-0.158750340,0.000021418,-0.000211259,-0.000979003,-0.028493576,-0.065433666,9.807536125
1784242579.375184,-0.004338074,0.001205766,-0.158747777,-0.000030287,-0.000400462,-0.000165113,-0.044892039,-0.051051166,9.767710686
1784242579.377165,-0.004336458,0.001211638,-0.158744603,-0.000062105,-0.000033384,0.000268153,-0.014352938,-0.044742145,9.833684921
1784242579.379194,-0.004333802,0.001217550,-0.158744380,0.000264072,0.000735236,0.000424665,-0.001330846,-0.008052667,9.817345619
1784242579.381167,-0.004335416,0.001220276,-0.158741772,0.000282485,0.001081762,0.000501041,-0.013404961,-0.007169664,9.777885437
1784242579.383199,-0.004336611,0.001221143,-0.158739462,-0.000087429,0.001031464,0.000698798,0.018799473,-0.013658294,9.813292503
1784242579.385169,-0.004334453,0.001227547,-0.158740550,-0.000100459,0.001245596,0.000591942,-0.009711943,-0.033857789,9.806859016
1784242579.387167,-0.004332851,0.001231572,-0.158742443,0.000182352,0.001616198,0.000226930,-0.024669481,-0.047418136,9.787480354
1784242579.389171,-0.004332176,0.001231912,-0.158748373,0.000312163,0.001457011,-0.000366423,-0.014486042,-0.057545412,9.807151794
1784242579.391181,-0.004331151,0.001232224,-0.158746839,0.000367276,0.001088043,-0.000565473,-0.010038036,-0.061558243,9.796369553
1784242579.393174,-0.004327108,0.001236418,-0.158748493,0.000662960,0.001102714,-0.000419664,-0.050673433,-0.044489115,9.800474167
1784242579.395181,-0.004328698,0.001241267,-0.158746928,0.000700883,0.001421303,-0.000312011,-0.026217043,-0.065201677,9.770775795
1784242579.397174,-0.004329804,0.001241602,-0.158745408,0.000327319,0.001386400,-0.000019090,-0.028000113,-0.063059703,9.787824631
1784242579.399179,-0.004328352,0.001243742,-0.158748120,0.000324727,0.001143849,-0.000095310,-0.008396047,-0.036950354,9.798323631
1784242579.401181,-0.004325493,0.001241382,-0.158745810,0.000591948,0.000783927,-0.000097274,-0.010943199,-0.025233893,9.793464661
1784242579.403185,-0.004321665,0.001236125,-0.158744082,0.000835048,0.000051345,0.000205633,-0.011123829,-0.041249204,9.777669907
1784242579.405182,-0.004327581,0.001234662,-0.158746272,0.000416849,-0.000420036,0.000118818,0.007908952,-0.063417897,9.773509979
1784242579.407191,-0.004331885,0.001234247,-0.158750340,-0.000389562,-0.000431601,-0.000340515,-0.014471425,-0.056214254,9.808953285
1784242579.409189,-0.004327375,0.001239649,-0.158747211,-0.000231766,-0.000000295,-0.000310463,-0.011329655,-0.057058208,9.795948982
1784242579.411191,-0.004319916,0.001243869,-0.158745363,0.000681231,0.000626853,0.000111580,-0.021137681,-0.015599089,9.780065536
1784242579.413190,-0.004316110,0.001243229,-0.158749700,0.001198242,0.000656438,-0.000089032,0.014187226,-0.061500233,9.807601929
1784242579.415249,-0.004316744,0.001237730,-0.158750862,0.001025765,0.000019159,-0.000438289,0.019727632,-0.088201441,9.772017479
1784242579.417195,-0.004313859,0.001237496,-0.158751205,0.000900244,-0.000374756,-0.000421550,0.008060286,-0.086844809,9.791294098
1784242579.419199,-0.004320086,0.001239010,-0.158749670,0.000596680,-0.000174561,-0.000226460,-0.018448584,-0.052032292,9.795077324
1784242579.421196,-0.004325153,0.001242830,-0.158745185,-0.000164700,0.000245100,0.000241260,-0.023315884,-0.044944756,9.815292358
1784242579.423200,-0.004323488,0.001243910,-0.158739954,-0.000323000,0.000472998,0.000834912,-0.024870811,-0.026412271,9.795235634
1784242579.425195,-0.004321135,0.001243682,-0.158740833,0.000065845,0.000365810,0.000905623,-0.001853041,-0.017542757,9.766621590
1784242579.427200,-0.004317231,0.001239713,-0.158735096,0.000472269,-0.000019812,0.000991721,0.000075781,-0.041129395,9.803684235
1784242579.429207,-0.004313739,0.001240366,-0.158726111,0.000803482,-0.000251209,0.001722691,-0.007992994,-0.078958906,9.782361031
1784242579.431202,-0.004313740,0.001244402,-0.158724308,0.000780077,0.000124710,0.001987031,-0.033151202,-0.042911958,9.799157143
1784242579.433314,-0.004312038,0.001242900,-0.158719078,0.000671289,0.000221110,0.001925741,-0.014000850,-0.017241638,9.809203148
1784242579.435241,-0.004309223,0.001236560,-0.158715457,0.000783004,-0.000413465,0.002003830,-0.023053961,-0.024640238,9.794800758
1784242579.437227,-0.004308187,0.001237674,-0.158716872,0.000831653,-0.000656636,0.001610591,-0.034140427,-0.011709138,9.823566437
1784242579.439217,-0.004306473,0.001242748,-0.158719838,0.000659026,-0.000108805,0.000876534,-0.039996870,-0.015465730,9.795292854
1784242579.441220,-0.004305735,0.001241205,-0.158716738,0.000512502,0.000108634,0.000647617,-0.014723564,-0.040472630,9.800983429
1784242579.443211,-0.004303646,0.001238298,-0.158713639,0.000562603,-0.000187180,0.000893763,0.004977953,-0.045510087,9.780797005
1784242579.445222,-0.004299970,0.001236736,-0.158718228,0.000799232,-0.000401626,0.000549900,0.033279337,-0.079147980,9.797644615
1784242579.447219,-0.004293103,0.001234874,-0.158722028,0.001298561,-0.000522498,-0.000169232,0.003502554,-0.055024024,9.798217773
1784242579.449217,-0.004287535,0.001232235,-0.158722103,0.001824097,-0.000632176,-0.000386094,-0.015019570,-0.066314466,9.781090736
1784242579.451231,-0.004288922,0.001230988,-0.158724040,0.001646572,-0.000670811,-0.000418374,-0.006802057,-0.052337568,9.817054749
1784242579.453225,-0.004292877,0.001232696,-0.158728629,0.000888132,-0.000420302,-0.000748218,-0.021128541,-0.051495779,9.787457466
1784242579.455217,-0.004292321,0.001238587,-0.158729449,0.000467261,0.000246307,-0.000913391,-0.036999296,-0.028795360,9.774137497
1784242579.457229,-0.004291800,0.001241818,-0.158726051,0.000413249,0.000797877,-0.000491396,-0.007988427,-0.040117268,9.801889420
1784242579.459224,-0.004292838,0.001242325,-0.158723742,0.000261201,0.000857592,0.000030560,0.003268307,-0.038735867,9.776353836
1784242579.461241,-0.004294723,0.001244263,-0.158724323,-0.000012602,0.000814516,0.000139281,-0.018307606,-0.039572045,9.806815147
1784242579.463233,-0.004294244,0.001245447,-0.158720672,-0.000140549,0.000727814,0.000308548,-0.001813971,-0.049150616,9.800940514
1784242579.465231,-0.004291653,0.001243348,-0.158714652,0.000069582,0.000388627,0.000882096,-0.013162429,-0.023797667,9.784504890
1784242579.467232,-0.004290130,0.001239951,-0.158717677,0.000329688,-0.000090844,0.000847500,-0.009497142,-0.016762136,9.796656609
1784242579.469247,-0.004286238,0.001240585,-0.158713475,0.000485658,-0.000223007,0.000697091,0.003653601,-0.042484295,9.798747063
1784242579.471243,-0.004283642,0.001239013,-0.158705860,0.000671226,-0.000198495,0.001310379,-0.006722018,-0.047247842,9.794223785
1784242579.473247,-0.004288678,0.001237921,-0.158708587,0.000353996,-0.000316876,0.001286329,-0.007057658,-0.039054785,9.776790619
1784242579.475244,-0.004290330,0.001235896,-0.158718020,-0.000163983,-0.000428937,0.000112892,-0.018614344,-0.026693070,9.823485374
1784242579.477238,-0.004286365,0.001236714,-0.158720464,0.000038534,-0.000390941,-0.000722304,0.009666370,-0.064546667,9.803093910
1784242579.479239,-0.004286543,0.001239234,-0.158719718,0.000351028,-0.000009263,-0.000642533,0.013675566,-0.068880893,9.775274277
1784242579.481239,-0.004288185,0.001238789,-0.158722982,0.000198166,0.000183225,-0.000639657,0.003702848,-0.040879674,9.761993408
1784242579.483244,-0.004293940,0.001239680,-0.158720657,-0.000348721,0.000201488,-0.000530622,-0.010628056,-0.037236020,9.779488564
1784242579.485242,-0.004293949,0.001242659,-0.158720985,-0.000636590,0.000446373,-0.000251156,-0.001638013,-0.035603676,9.785783768
1784242579.487251,-0.004295564,0.001244601,-0.158725023,-0.000573678,0.000660483,-0.000480179,-0.018508703,-0.018969627,9.808291435
1784242579.489246,-0.004299319,0.001243712,-0.158725128,-0.000801809,0.000567315,-0.000630792,-0.051934958,-0.038130462,9.790651321
1784242579.491250,-0.004298083,0.001238461,-0.158727899,-0.000774609,0.000010826,-0.000652667,-0.007288271,-0.054654300,9.828697205
1784242579.493250,-0.004294303,0.001234108,-0.158736259,-0.000195522,-0.000631159,-0.001228639,0.001016849,-0.075143985,9.796741486
1784242579.495246,-0.004296764,0.001232078,-0.158738196,-0.000024566,-0.000880475,-0.001593255,0.011987847,-0.058691513,9.794615746
1784242579.497248,-0.004298947,0.001231364,-0.158736423,-0.000333046,-0.000827647,-0.001172287,0.008934054,-0.051074084,9.800042152
1784242579.499252,-0.004298107,0.001228333,-0.158731192,-0.000287168,-0.000741071,-0.000377520,-0.009656996,-0.030181888,9.793882370
1784242579.501253,-0.004293633,0.001227807,-0.158725932,0.000197867,-0.000666311,0.000436917,-0.022873050,-0.044591576,9.827850342
1784242579.503254,-0.004288895,0.001224872,-0.158724695,0.000803413,-0.000756902,0.000759040,-0.036804169,-0.047418714,9.809436798
1784242579.505260,-0.004292425,0.001223106,-0.158719733,0.000701235,-0.000906923,0.000974321,-0.028345641,-0.054539513,9.787430763
1784242579.507262,-0.004291641,0.001225547,-0.158720583,0.000324087,-0.000616080,0.000988484,0.002816957,-0.038345758,9.785322189
1784242579.509262,-0.004285905,0.001225118,-0.158718541,0.000683567,-0.000319829,0.000801710,0.010855912,-0.041178342,9.791141510
1784242579.511264,-0.004288081,0.001226242,-0.158706903,0.000743557,-0.000197034,0.001513243,0.006125040,-0.022882240,9.810082436
1784242579.513267,-0.004289591,0.001224604,-0.158705652,0.000227125,-0.000083209,0.001976677,0.018988894,0.000400198,9.789173126
1784242579.515268,-0.004289120,0.001222545,-0.158709481,0.000031882,-0.000211811,0.001266389,0.010101327,-0.029097334,9.794803619
1784242579.517272,-0.004285723,0.001219403,-0.158717558,0.000286771,-0.000503896,0.000116663,-0.027380392,-0.047936521,9.802268028
1784242579.519270,-0.004279992,0.001213911,-0.158727497,0.000850195,-0.000988191,-0.001137004,-0.020716323,-0.054221090,9.791924477
1784242579.521275,-0.004281130,0.001210548,-0.158733457,0.000952752,-0.001356561,-0.001906449,-0.022192700,-0.064148009,9.804411888
1784242579.523276,-0.004291168,0.001217207,-0.158730567,0.000057478,-0.000845801,-0.001597695,-0.043484423,-0.080878071,9.801144600
1784242579.525276,-0.004298915,0.001219466,-0.158726931,-0.001044173,-0.000094873,-0.000721509,-0.008717191,-0.063395947,9.800393105
1784242579.527280,-0.004297618,0.001219262,-0.158734471,-0.001198259,0.000071510,-0.000788328,0.025514344,-0.052268583,9.812154770
1784242579.529280,-0.004299639,0.001214483,-0.158738554,-0.000860581,-0.000114910,-0.001361507,0.027270028,-0.054626767,9.825592041
1784242579.531275,-0.004303904,0.001218301,-0.158738106,-0.000992630,0.000020029,-0.001236599,0.011890376,-0.065134667,9.818784714
1784242579.533285,-0.004306384,0.001214997,-0.158738703,-0.001053233,0.000116507,-0.000910885,-0.016449107,-0.071819030,9.801677704
1784242579.535277,-0.004306762,0.001208959,-0.158735901,-0.000833796,-0.000483018,-0.000514453,-0.007775361,-0.024251031,9.775540352
1784242579.537286,-0.004303330,0.001209781,-0.158737287,-0.000400279,-0.000706394,-0.000278188,-0.005018000,-0.016476598,9.811458588
1784242579.539287,-0.004301712,0.001211148,-0.158732563,-0.000024489,-0.000312569,0.000023488,-0.035143029,-0.023064816,9.784039497
1784242579.541290,-0.004299669,0.001208512,-0.158719376,0.000153952,-0.000264720,0.001234621,-0.021210635,-0.018201372,9.831158638
1784242579.543293,-0.004295656,0.001209770,-0.158711195,0.000445119,-0.000323035,0.002351330,0.005176879,-0.028945059,9.782246590
1784242579.545294,-0.004291398,0.001213235,-0.158712298,0.000808694,0.000052808,0.002192614,-0.010128713,-0.032384153,9.789382935
1784242579.547292,-0.004291469,0.001210122,-0.158716381,0.000873756,0.000063864,0.001244826,-0.002945276,-0.032037713,9.790737152
1784242579.549296,-0.004296757,0.001208027,-0.158716500,0.000230066,-0.000281058,0.000623516,-0.022084804,-0.019222148,9.787215233
1784242579.551334,-0.004306098,0.001210571,-0.158714429,-0.000868536,-0.000150102,0.000587218,-0.026953138,-0.011737527,9.814606667
1784242579.553309,-0.004305542,0.001211102,-0.158711836,-0.001288260,0.000066081,0.000742572,-0.003401979,-0.032905631,9.787593842
1784242579.555296,-0.004305091,0.001206925,-0.158716768,-0.000928834,-0.000230706,0.000384924,-0.002657528,-0.081846021,9.800730705
1784242579.557299,-0.004308031,0.001209672,-0.158718392,-0.000845146,-0.000263228,-0.000163708,-0.006096677,-0.069670103,9.795872688
1784242579.559299,-0.004309531,0.001212023,-0.158715263,-0.000762530,0.000159506,-0.000019304,0.013340115,-0.022691241,9.770190239
1784242579.561311,-0.004304257,0.001210968,-0.158715576,-0.000144833,0.000208909,0.000175597,0.005995803,-0.033223506,9.815396309
1784242579.563304,-0.004304099,0.001216840,-0.158717453,0.000254860,0.000535531,-0.000023865,-0.015778394,-0.016271841,9.802034378
1784242579.565382,-0.004303910,0.001213715,-0.158716530,0.000200747,0.000632648,-0.000080244,-0.015520108,-0.033585910,9.779059410
1784242579.567327,-0.004302389,0.001210578,-0.158716321,0.000262243,0.000035452,0.000019537,-0.008126594,-0.052555248,9.787014961
1784242579.569361,-0.004307645,0.001208875,-0.158722252,-0.000033777,-0.000249053,-0.000376824,0.008202930,-0.075181916,9.789126396
1784242579.571316,-0.004309499,0.001212948,-0.158730283,-0.000477847,0.000035561,-0.001222796,0.011195227,-0.050152853,9.792428017
1784242579.573314,-0.004311233,0.001215911,-0.158730581,-0.000599877,0.000562388,-0.001457890,-0.011518039,-0.036760665,9.777249336
1784242579.575312,-0.004313678,0.001216251,-0.158723757,-0.000730094,0.000688433,-0.000619754,0.000777510,0.017499460,9.811682701
1784242579.577382,-0.004317218,0.001213167,-0.158722788,-0.000938717,0.000312951,0.000078294,-0.009724144,-0.035169877,9.802368164
1784242579.579325,-0.004317251,0.001213043,-0.158721283,-0.000981742,0.000004456,0.000225756,-0.006589215,-0.036067884,9.796985626
1784242579.581320,-0.004320224,0.001213395,-0.158717647,-0.000974826,0.000012191,0.000515055,0.003315494,-0.033500247,9.796114922
1784242579.583323,-0.004327171,0.001215350,-0.158719048,-0.001401070,0.000221684,0.000527688,0.001518094,-0.033902951,9.792971611
1784242579.585329,-0.004327227,0.001214087,-0.158719912,-0.001513143,0.000266045,0.000229721,-0.006029405,-0.063465424,9.805328369
1784242579.587325,-0.004323553,0.001212523,-0.158722907,-0.000856393,0.000003076,-0.000096127,-0.004038557,-0.048972428,9.779868126
1784242579.589324,-0.004318350,0.001212931,-0.158723533,-0.000014660,-0.000030530,-0.000313995,-0.019800559,-0.051656108,9.807632446
1784242579.591324,-0.004313875,0.001211622,-0.158725992,0.000652879,-0.000037819,-0.000436423,-0.040074959,-0.022566333,9.785831451
1784242579.593327,-0.004311798,0.001209876,-0.158733025,0.000865713,-0.000343510,-0.000960963,0.001748319,-0.015469773,9.783676147
1784242579.595337,-0.004312111,0.001209673,-0.158731773,0.000695505,-0.000492248,-0.001090464,-0.010011490,-0.020111507,9.827570915
1784242579.597332,-0.004308936,0.001211817,-0.158729449,0.000700639,-0.000227886,-0.000550709,-0.009047125,-0.053131621,9.806736946
1784242579.599334,-0.004306288,0.001211460,-0.158732444,0.000976458,-0.000018464,-0.000445806,-0.009849409,-0.044669267,9.815307617
1784242579.601338,-0.004303638,0.001214406,-0.158730373,0.001141859,0.000188589,-0.000387190,-0.007421482,-0.065837428,9.826383591
1784242579.603339,-0.004312732,0.001222786,-0.158726409,0.000471776,0.000903047,0.000126743,-0.001677538,-0.037942052,9.799667358
1784242579.605336,-0.004319455,0.001221061,-0.158725172,-0.000652528,0.001106728,0.000444206,-0.018050509,-0.019305689,9.791700363
1784242579.607340,-0.004312099,0.001215736,-0.158723146,-0.000432609,0.000326720,0.000545590,-0.006651650,-0.042234410,9.782149315
1784242579.609354,-0.004311068,0.001211790,-0.158734158,0.000216179,-0.000385678,-0.000210963,-0.001901374,-0.020761158,9.778258324
1784242579.611354,-0.004316441,0.001210337,-0.158744603,-0.000174223,-0.000638155,-0.001610425,0.013598079,-0.035144877,9.819875717
1784242579.613354,-0.004319634,0.001206191,-0.158738077,-0.000731902,-0.000754445,-0.001438557,-0.010333329,-0.048183613,9.806318283
1784242579.615349,-0.004320236,0.001204393,-0.158732310,-0.000815582,-0.000867390,-0.000211837,-0.030712232,-0.063587643,9.803959846
1784242579.617360,-0.004323489,0.001202901,-0.158734277,-0.000856098,-0.000856352,0.000104710,-0.034784786,-0.066643007,9.799900055
1784242579.619365,-0.004323316,0.001199961,-0.158744991,-0.000703299,-0.000951409,-0.000784185,-0.024856655,-0.024274215,9.809596062
1784242579.621357,-0.004321508,0.001198156,-0.158750162,-0.000248153,-0.001041036,-0.001647925,-0.042010844,0.004206537,9.804830551
1784242579.623358,-0.004320819,0.001197398,-0.158748105,-0.000171194,-0.001054897,-0.001410782,-0.021094013,-0.012012217,9.779641151
1784242579.625358,-0.004319739,0.001202749,-0.158747360,-0.000165058,-0.000580912,-0.000838268,-0.005684386,-0.035615530,9.794746399
1784242579.627359,-0.004322441,0.001203628,-0.158743173,-0.000230719,-0.000001760,-0.000275592,0.008306102,-0.066667482,9.788733482
1784242579.629367,-0.004323683,0.001198485,-0.158745691,-0.000375446,-0.000225452,-0.000086061,-0.032661069,-0.038943291,9.807254791
1784242579.631371,-0.004325870,0.001196460,-0.158752471,-0.000445084,-0.000582248,-0.000689137,-0.012051381,-0.042286251,9.799181938
1784242579.633374,-0.004331108,0.001192307,-0.158748299,-0.000803859,-0.000805618,-0.000677461,-0.010135973,-0.070031345,9.790935516
1784242579.635368,-0.004326112,0.001190454,-0.158745974,-0.000578362,-0.000959354,-0.000054371,-0.014340688,-0.044240125,9.826066971
1784242579.637367,-0.004324804,0.001192354,-0.158744439,0.000006263,-0.000696792,0.000221780,-0.024246138,-0.010034231,9.822241783
1784242579.639365,-0.004320728,0.001192250,-0.158744261,0.000289039,-0.000395094,0.000278927,-0.039943814,-0.010589032,9.802496910
1784242579.641424,-0.004321841,0.001191794,-0.158745125,0.000330960,-0.000334538,0.000156944,-0.009095401,-0.022406956,9.770618439
1784242579.643384,-0.004329059,0.001192166,-0.158751056,-0.000378169,-0.000225905,-0.000347927,0.008541506,-0.047382899,9.785718918
1784242579.645372,-0.004330175,0.001191446,-0.158752486,-0.000894870,-0.000164543,-0.000751923,0.064790800,-0.070232272,9.810284615
1784242579.647371,-0.004328596,0.001193348,-0.158753589,-0.000620232,-0.000038859,-0.000719812,0.012234351,-0.074477650,9.808861732
1784242579.649378,-0.004331957,0.001192058,-0.158760875,-0.000509214,0.000092094,-0.001093481,-0.028674316,-0.079828836,9.815961838
1784242579.651379,-0.004337880,0.001189541,-0.158766568,-0.000937135,-0.000111126,-0.001675048,-0.045258179,-0.079473034,9.795772552
1784242579.653384,-0.004339789,0.001186663,-0.158773035,-0.001107096,-0.000513020,-0.002045747,-0.044097289,-0.058357228,9.785598755
1784242579.655378,-0.004336913,0.001185895,-0.158771247,-0.000634145,-0.000689334,-0.001808750,-0.052587640,-0.054324452,9.800857544
1784242579.657379,-0.004331568,0.001191727,-0.158768073,0.000095710,-0.000159945,-0.000981957,-0.039018854,-0.044730812,9.813486099
1784242579.659388,-0.004325613,0.001200094,-0.158765450,0.000867761,0.000726763,-0.000322318,-0.005237631,-0.033610404,9.827040672
1784242579.661411,-0.004325378,0.001201474,-0.158763140,0.001083501,0.001070805,0.000101833,0.041281983,-0.049540382,9.778115273
1784242579.663388,-0.004327693,0.001201794,-0.158756807,0.000658400,0.001038177,0.000661045,0.014839271,-0.047742821,9.761960983
1784242579.665392,-0.004336747,0.001206714,-0.158750460,-0.000282175,0.001253539,0.001339532,-0.004195631,-0.023969887,9.792581558
1784242579.667392,-0.004337047,0.001207572,-0.158749446,-0.000841120,0.001303285,0.001472370,-0.044205811,-0.030539732,9.780395508
1784242579.669400,-0.004335998,0.001200921,-0.158753276,-0.000623236,0.000473030,0.000879338,-0.059822798,-0.020731382,9.815413475
1784242579.671399,-0.004333743,0.001192198,-0.158748358,-0.000291385,-0.000783301,0.000714743,-0.014513369,-0.023818580,9.789883614
1784242579.673395,-0.004331636,0.001190565,-0.158751085,0.000045266,-0.001268009,0.000669594,-0.011598017,-0.042660464,9.787970543
1784242579.675395,-0.004333262,0.001191447,-0.158755422,0.000027861,-0.000966438,0.000008120,-0.012029688,-0.041304473,9.787083626
1784242579.677427,-0.004332543,0.001187792,-0.158757657,-0.000040703,-0.000890358,-0.000438542,0.012772698,-0.033754151,9.751737595
1784242579.679410,-0.004328979,0.001186783,-0.158758551,0.000251707,-0.000894064,-0.000529043,-0.016010875,-0.037154313,9.777690887
1784242579.681408,-0.004326349,0.001188133,-0.158753827,0.000593855,-0.000559048,-0.000123538,0.004119043,-0.042763118,9.774087906
1784242579.683428,-0.004323543,0.001186450,-0.158755243,0.000824528,-0.000368570,0.000135437,-0.023955913,-0.060633544,9.817434311
1784242579.685409,-0.004321482,0.001183577,-0.158757970,0.000954510,-0.000514286,-0.000182999,-0.061051585,-0.047651604,9.822862625
1784242579.687410,-0.004319860,0.001190242,-0.158754036,0.000945314,-0.000117554,-0.000051304,-0.038039453,-0.038826603,9.800523758
1784242579.689412,-0.004314945,0.001198814,-0.158755928,0.001126880,0.000871068,0.000102988,-0.027265191,-0.038516626,9.800536156
1784242579.691408,-0.004307252,0.001199850,-0.158754393,0.001671271,0.001209838,0.000051451,-0.011301985,-0.058055509,9.747074127
1784242579.693417,-0.004306729,0.001200294,-0.158753112,0.001809349,0.001008108,0.000227619,0.013984170,-0.041723784,9.799210548
1784242579.695416,-0.004300657,0.001199490,-0.158750817,0.001799966,0.000736008,0.000409239,-0.000410260,-0.043039490,9.821156502
1784242579.697420,-0.004296461,0.001197644,-0.158747703,0.002007829,0.000354705,0.000667231,0.003123593,-0.049604587,9.792872429
1784242579.699419,-0.004294809,0.001195474,-0.158747807,0.001869597,0.000009052,0.000691870,-0.002787559,-0.054603685,9.813458443
1784242579.701421,-0.004293259,0.001193682,-0.158758759,0.001590404,-0.000234962,-0.000247166,-0.022775928,-0.038961664,9.792019844
1784242579.703418,-0.004291497,0.001193314,-0.158757776,0.001369542,-0.000340981,-0.000858665,-0.064655125,-0.050147109,9.802219391
1784242579.705420,-0.004295252,0.001196046,-0.158746138,0.000846683,-0.000117733,0.000231368,-0.047193553,-0.054317124,9.790103912
1784242579.707420,-0.004302223,0.001196440,-0.158741966,-0.000112493,0.000121804,0.001241576,-0.000795557,-0.039291073,9.798763275
1784242579.709424,-0.004307527,0.001192979,-0.158744454,-0.000922292,-0.000146611,0.001018112,-0.002065644,-0.031379044,9.822574615
1784242579.711426,-0.004310515,0.001192004,-0.158740550,-0.001241963,-0.000434948,0.000837182,0.041364957,-0.043211699,9.770085335
1784242579.713455,-0.004305431,0.001196273,-0.158733159,-0.000763360,0.000081200,0.001378469,0.062374678,-0.047755212,9.804149628
1784242579.715436,-0.004304116,0.001198707,-0.158733219,-0.000122248,0.000689705,0.001503775,0.001481735,-0.035405815,9.815378189
1784242579.717433,-0.004307111,0.001196416,-0.158734366,-0.000203019,0.000512471,0.001013072,-0.057607144,-0.060596250,9.809781075
1784242579.719440,-0.004311314,0.001194278,-0.158731803,-0.000592400,-0.000046165,0.000833201,-0.067648269,-0.036782499,9.818442345
1784242579.721442,-0.004313024,0.001188254,-0.158729002,-0.000789044,-0.000707712,0.000971663,-0.083468914,-0.010444337,9.797523499
1784242579.723440,-0.004312487,0.001192403,-0.158738106,-0.000745889,-0.000844797,0.000280470,-0.024600357,-0.038767342,9.831024170
1784242579.725443,-0.004309571,0.001194301,-0.158744812,-0.000399690,-0.000404094,-0.000869411,0.030156845,-0.039751366,9.807755470
1784242579.727462,-0.004306454,0.001191144,-0.158743307,0.000118846,-0.000378333,-0.000986236,0.041772008,-0.043951571,9.810429573
1784242579.729449,-0.004306441,0.001189505,-0.158745512,0.000313892,-0.000467474,-0.000765353,0.040495694,-0.039330706,9.792974472
1784242579.731446,-0.004315250,0.001191520,-0.158747181,-0.000353363,-0.000180373,-0.000820389,0.010019430,-0.074223153,9.777029991
1784242579.733477,-0.004321828,0.001190584,-0.158752844,-0.001182590,0.000015917,-0.001095772,0.018613826,-0.067708351,9.790529251
1784242579.735449,-0.004317382,0.001186363,-0.158757493,-0.000886713,-0.000263557,-0.001495879,-0.034302376,-0.064761519,9.786462784
1784242579.737484,-0.004319828,0.001186179,-0.158754081,-0.000510128,-0.000490649,-0.001173467,-0.038613886,-0.085103318,9.819503784
1784242579.739466,-0.004331899,0.001186930,-0.158750996,-0.001247152,-0.000432396,-0.000415451,-0.048463687,-0.045595031,9.826025963
1784242579.741452,-0.004336242,0.001183848,-0.158746570,-0.001912940,-0.000587004,0.000207661,-0.006983652,-0.031175897,9.802844048
1784242579.743453,-0.004332022,0.001181869,-0.158740535,-0.001422543,-0.000747368,0.000861444,-0.011429524,-0.025930472,9.829325676
1784242579.745469,-0.004330434,0.001185612,-0.158733413,-0.000662914,-0.000401658,0.001521453,0.001083030,-0.032979023,9.789839745
1784242579.747561,-0.004332297,0.001189932,-0.158731326,-0.000502338,0.000252066,0.001733101,0.005626732,-0.028131200,9.793011665
1784242579.749507,-0.004331659,0.001197740,-0.158727124,-0.000471770,0.001054431,0.001690394,0.016961675,-0.018432505,9.794878006
1784242579.751490,-0.004331701,0.001198325,-0.158723503,-0.000325936,0.001384961,0.001766374,0.011577705,-0.019170402,9.782316208
1784242579.753510,-0.004329851,0.001191157,-0.158720151,-0.000230483,0.000618241,0.001761939,0.004099378,-0.006139031,9.790461540
1784242579.755489,-0.004328077,0.001186952,-0.158717841,-0.000037683,-0.000265068,0.001666836,-0.024909811,-0.027530763,9.826611519
1784242579.757484,-0.004331052,0.001186520,-0.158720344,-0.000108937,-0.000507848,0.001202310,-0.018010164,-0.014124115,9.819083214
1784242579.759489,-0.004333086,0.001185577,-0.158728659,-0.000537214,-0.000532232,0.000142087,0.007353707,-0.031931844,9.820338249
1784242579.761499,-0.004331265,0.001185357,-0.158730328,-0.000523717,-0.000535838,-0.000575522,0.017176855,-0.076513603,9.771194458
1784242579.763524,-0.004325383,0.001187946,-0.158733010,0.000248824,-0.000153031,-0.000715846,-0.012049203,-0.079453692,9.796252251
1784242579.765500,-0.004320387,0.001186354,-0.158728302,0.001026546,0.000030870,-0.000385015,0.001855333,-0.044920128,9.766449928
1784242579.767491,-0.004321237,0.001185890,-0.158726245,0.001028750,-0.000119055,0.000178446,0.001792155,-0.049066253,9.782563210
1784242579.769489,-0.004322129,0.001186452,-0.158735901,0.000582861,-0.000019481,-0.000385424,-0.019121587,-0.071628720,9.779708862
1784242579.771497,-0.004321896,0.001186784,-0.158740997,0.000332110,0.000109245,-0.001283165,-0.031461705,-0.052681994,9.783854485
1784242579.773494,-0.004315872,0.001182987,-0.158730492,0.000684426,-0.000189143,-0.000566557,-0.013899701,-0.046333063,9.804533958
1784242579.775492,-0.004316410,0.001186501,-0.158730000,0.000888275,-0.000192280,0.000335682,-0.017383732,-0.037753545,9.801446915
1784242579.777489,-0.004323050,0.001191679,-0.158734038,0.000160100,0.000450948,0.000002307,-0.007011328,-0.033015441,9.809556961
1784242579.779499,-0.004323747,0.001190129,-0.158735976,-0.000373876,0.000560582,-0.000405025,-0.021876099,-0.036117252,9.831492424
1784242579.781523,-0.004319833,0.001185915,-0.158741355,-0.000046304,0.000003305,-0.000794432,0.002624946,-0.052829962,9.806302071
1784242579.783509,-0.004317360,0.001186202,-0.158736125,0.000428137,-0.000228205,-0.000589365,0.000811495,-0.054169919,9.808980942
1784242579.785528,-0.004313409,0.001186737,-0.158728465,0.000775143,-0.000078311,0.000446339,-0.009362792,-0.042349361,9.803219795
1784242579.787569,-0.004313715,0.001186805,-0.158730149,0.000811525,-0.000017900,0.000730876,-0.042103719,-0.039384987,9.823382378
1784242579.789546,-0.004312362,0.001189306,-0.158737630,0.000641827,0.000052533,-0.000090959,-0.015582765,-0.036512151,9.812664986
1784242579.791533,-0.004315278,0.001193395,-0.158748612,0.000341855,0.000379606,-0.001320215,-0.010397443,-0.056389626,9.763225555
1784242579.793520,-0.004318156,0.001191735,-0.158748671,-0.000078516,0.000454959,-0.001711492,-0.029204430,-0.050575860,9.798663139
1784242579.795536,-0.004321700,0.001188383,-0.158746660,-0.000428496,0.000000924,-0.001114900,-0.041738804,-0.048562631,9.790146828
1784242579.797523,-0.004324970,0.001185562,-0.158746228,-0.000774911,-0.000419067,-0.000644828,-0.007527878,-0.039624181,9.794719696
1784242579.799516,-0.004327813,0.001182703,-0.158750862,-0.000971947,-0.000722855,-0.000753580,-0.006161112,-0.038262568,9.789797783
1784242579.801509,-0.004332075,0.001186787,-0.158750355,-0.001182735,-0.000475457,-0.000830301,0.001631444,-0.061682288,9.792793274
1784242579.803536,-0.004334278,0.001187813,-0.158749625,-0.001224786,0.000061337,-0.000522991,-0.011488227,-0.033688530,9.786235809
1784242579.805515,-0.004335374,0.001188685,-0.158751547,-0.001040416,0.000235073,-0.000462455,0.011347764,-0.038817104,9.773222923
1784242579.807521,-0.004337822,0.001187455,-0.158756152,-0.000997973,0.000148852,-0.000780722,-0.005345244,-0.044996664,9.790204048
1784242579.809535,-0.004338168,0.001187011,-0.158758074,-0.000895515,0.000013273,-0.001012868,0.003566657,-0.049654853,9.799150467
1784242579.811543,-0.004338498,0.001185216,-0.158756316,-0.000677674,-0.000125694,-0.000748737,-0.014270434,-0.040443398,9.796051979
1784242579.813527,-0.004340407,0.001185535,-0.158758253,-0.000717851,-0.000224786,-0.000556625,-0.026506353,-0.050969291,9.786109924
1784242579.815523,-0.004348991,0.001183833,-0.158758625,-0.001307230,-0.000290048,-0.000561939,-0.027403638,-0.049741093,9.804051399
1784242579.817523,-0.004358137,0.001179225,-0.158761695,-0.002155552,-0.000638617,-0.000640360,-0.004241724,-0.027575830,9.795697212
1784242579.819522,-0.004354584,0.001180161,-0.158758029,-0.001994446,-0.000686617,-0.000424327,0.015155243,-0.019311793,9.795768738
1784242579.821522,-0.004343631,0.001187520,-0.158753276,-0.000513424,0.000088466,0.000263234,-0.015464570,-0.026663363,9.813625336
1784242579.823532,-0.004338895,0.001193290,-0.158755183,0.000622974,0.000870800,0.000386331,-0.050122596,-0.070336476,9.842902184
1784242579.825526,-0.004342132,0.001192865,-0.158760577,0.000488425,0.000915331,-0.000214420,-0.033277970,-0.054044217,9.789670944
1784242579.827535,-0.004337093,0.001195512,-0.158753693,0.000478008,0.000817179,-0.000056939,-0.024563266,-0.039284885,9.777668953
1784242579.829530,-0.004331023,0.001198305,-0.158747375,0.001120923,0.000877787,0.000853834,-0.007421148,-0.033107892,9.760240555
1784242579.831532,-0.004327351,0.001196739,-0.158749104,0.001497154,0.000638487,0.000937938,-0.012393058,-0.034140892,9.788473129
1784242579.833545,-0.004325731,0.001198739,-0.158742726,0.001428507,0.000539852,0.000999085,-0.011499560,-0.032967489,9.810899734
1784242579.835541,-0.004325233,0.001200111,-0.158737227,0.001162518,0.000665328,0.001531784,-0.019102760,-0.032269165,9.789375305
1784242579.837540,-0.004325078,0.001193806,-0.158737600,0.000890888,0.000148371,0.001465042,-0.034970868,-0.044706240,9.802730560
1784242579.839541,-0.004323763,0.001190274,-0.158731073,0.000797217,-0.000607777,0.001486679,-0.042794395,-0.025178267,9.779983521
1784242579.841539,-0.004316790,0.001199004,-0.158727646,0.001191466,-0.000139205,0.001761582,-0.040262308,-0.037418999,9.795598984
1784242579.843544,-0.004311045,0.001200511,-0.158722401,0.001717429,0.000524110,0.001873759,-0.019146889,-0.035049140,9.802359581
1784242579.845539,-0.004307951,0.001194710,-0.158725426,0.001837797,0.000022863,0.001516333,-0.001423277,-0.055287920,9.781174660
1784242579.847546,-0.004310403,0.001193734,-0.158724174,0.001382586,-0.000442772,0.000983753,-0.014764478,-0.043227166,9.810381889
1784242579.849539,-0.004322410,0.001194395,-0.158717066,0.000041361,-0.000361320,0.001282482,0.002480812,-0.028535735,9.792558670
1784242579.851583,-0.004324841,0.001195016,-0.158718735,-0.000934060,-0.000192788,0.001302144,-0.024593338,-0.038306653,9.829233170
1784242579.853547,-0.004324560,0.001196502,-0.158723056,-0.000829013,-0.000056050,0.000541613,-0.041624460,-0.000749044,9.807936668
1784242579.855548,-0.004329656,0.001197671,-0.158718616,-0.000933888,0.000078971,0.000402676,-0.014865342,-0.015349260,9.796661377
1784242579.857552,-0.004334790,0.001195653,-0.158711791,-0.001375649,-0.000003369,0.001058050,-0.001072905,-0.026179984,9.782707214
1784242579.859561,-0.004332794,0.001190051,-0.158711374,-0.001303748,-0.000497919,0.001262910,-0.005605453,-0.066908598,9.784682274
1784242579.861562,-0.004329131,0.001186904,-0.158718660,-0.000653230,-0.000930773,0.000455949,-0.010447604,-0.021627333,9.789452553
1784242579.863560,-0.004329155,0.001186497,-0.158722192,-0.000301534,-0.000901140,-0.000400964,-0.017118182,-0.052173544,9.812563896
1784242579.865560,-0.004329992,0.001187096,-0.158721194,-0.000351292,-0.000627696,-0.000464692,-0.030004829,-0.043314315,9.787053108
1784242579.867567,-0.004327638,0.001187129,-0.158719659,-0.000153138,-0.000415126,-0.000167686,-0.031667389,0.005068791,9.790948868
1784242579.869561,-0.004322516,0.001184370,-0.158717647,0.000241423,-0.000515401,0.000119863,-0.037316062,-0.019642789,9.747744560
1784242579.871568,-0.004321759,0.001184682,-0.158714503,0.000420315,-0.000569944,0.000437581,-0.019448584,-0.060125425,9.800853729
1784242579.873564,-0.004327954,0.001180446,-0.158713013,0.000043917,-0.000657991,0.000631857,0.014427006,-0.041370597,9.811765671
1784242579.875569,-0.004332532,0.001180022,-0.158710718,-0.000592327,-0.000771894,0.000718377,-0.005390475,-0.049406324,9.780312538
1784242579.877565,-0.004332236,0.001187232,-0.158706218,-0.000722687,-0.000103715,0.000984691,-0.009760399,-0.038292885,9.800554276
1784242579.879565,-0.004336631,0.001189395,-0.158699110,-0.000798210,0.000578836,0.001504752,-0.009761937,-0.001525708,9.796755791
1784242579.881567,-0.004343662,0.001183957,-0.158695504,-0.001350597,0.000217800,0.001823883,0.009177978,-0.029695956,9.817663193
1784242579.883573,-0.004344178,0.001179842,-0.158695906,-0.001520851,-0.000422598,0.001549182,-0.015637657,-0.040998124,9.813533783
1784242579.885572,-0.004347689,0.001179408,-0.158694908,-0.001405710,-0.000548609,0.001170825,-0.015057664,-0.069046751,9.787349701
1784242579.887602,-0.004347430,0.001182127,-0.158699736,-0.001244487,-0.000243376,0.000590650,-0.005595197,-0.028832519,9.785823822
1784242579.889580,-0.004343721,0.001182251,-0.158698767,-0.000620037,0.000045512,0.000169174,-0.012201903,-0.018852983,9.780502319
1784242579.891583,-0.004340879,0.001178038,-0.158698335,0.000009724,-0.000216114,0.000220818,-0.033724297,-0.015619345,9.805608749
1784242579.893583,-0.004344856,0.001180237,-0.158702403,-0.000144398,-0.000307998,-0.000084969,0.006350996,-0.041667383,9.805032730
1784242579.895582,-0.004352328,0.001182247,-0.158708841,-0.000956155,0.000049467,-0.000775825,-0.005188320,-0.029979022,9.820339203
1784242579.897581,-0.004356907,0.001181300,-0.158710793,-0.001513845,0.000110637,-0.001135748,-0.047103267,-0.045904435,9.804057121
1784242579.899584,-0.004359665,0.001186507,-0.158707902,-0.001595038,0.000255816,-0.000765059,-0.046035543,-0.032413509,9.795177460
1784242579.901583,-0.004357803,0.001189999,-0.158709824,-0.001216969,0.000662849,-0.000492642,-0.029201949,-0.048530016,9.826025963
1784242579.903584,-0.004356151,0.001186123,-0.158712566,-0.000621253,0.000400264,-0.000675883,-0.002595601,-0.039309409,9.804589272
1784242579.905586,-0.004352507,0.001181385,-0.158720419,-0.000065813,-0.000347876,-0.001209422,0.005805216,-0.050938446,9.786590576
1784242579.907592,-0.004352013,0.001180924,-0.158727929,0.000234244,-0.000601781,-0.001921576,0.023060756,-0.032924060,9.805552483
1784242579.909592,-0.004356941,0.001178869,-0.158726156,-0.000142619,-0.000532324,-0.001790036,0.011811204,-0.036274988,9.792966843
1784242579.911591,-0.004359682,0.001175516,-0.158728108,-0.000637168,-0.000679669,-0.001316575,-0.004458081,-0.045494281,9.795581818
1784242579.913641,-0.004358189,0.001174890,-0.158724993,-0.000563170,-0.000738246,-0.000880443,-0.020525681,-0.037316214,9.808621407
1784242579.915617,-0.004350257,0.001173797,-0.158720568,0.000214622,-0.000629388,-0.000127487,-0.037119441,-0.036633272,9.805470467
1784242579.917606,-0.004343668,0.001170876,-0.158723831,0.001141914,-0.000731312,-0.000012647,0.000862015,-0.050528999,9.800934792
1784242579.919650,-0.004340842,0.001166187,-0.158727378,0.001491362,-0.000978718,-0.000472025,0.008106614,-0.046052337,9.788415909
1784242579.921613,-0.004341161,0.001165454,-0.158726394,0.001276734,-0.001011668,-0.000517772,0.003177225,-0.044318087,9.805459976
1784242579.923619,-0.004338988,0.001168434,-0.158718199,0.001051415,-0.000553821,0.000245756,-0.012440580,-0.037352927,9.799213409
1784242579.925609,-0.004331272,0.001172113,-0.158711851,0.001432098,0.000077614,0.001165540,0.014281716,-0.017895995,9.787259102
1784242579.927609,-0.004324886,0.001175028,-0.158714831,0.002000125,0.000503123,0.001077686,-0.013797335,-0.037824973,9.805036545
1784242579.929614,-0.004326999,0.001182895,-0.158715397,0.001676728,0.001093917,0.000544732,-0.003701645,-0.020376049,9.790363312
1784242579.931615,-0.004328041,0.001187759,-0.158726081,0.000937539,0.001658939,-0.000367072,-0.008241201,-0.023975376,9.800647736
1784242579.933618,-0.004324492,0.001189613,-0.158736497,0.000831049,0.001746002,-0.001700350,-0.033279926,-0.054870185,9.779801369
1784242579.935613,-0.004321593,0.001189919,-0.158742920,0.001020653,0.001498788,-0.002384107,-0.019860741,-0.020620218,9.790793419
1784242579.937617,-0.004318409,0.001192078,-0.158748850,0.001157456,0.001262830,-0.002575649,0.008174112,-0.040251110,9.791592598
1784242579.939624,-0.004312352,0.001194530,-0.158752069,0.001440311,0.001357621,-0.002496787,0.014748255,-0.051298261,9.821118355
1784242579.941619,-0.004309723,0.001194573,-0.158757478,0.001608563,0.001282868,-0.002404094,-0.007233551,-0.050574955,9.821998596
1784242579.943623,-0.004323658,0.001195557,-0.158765808,0.000500029,0.001009798,-0.002682727,-0.007021580,-0.071091518,9.808416367
1784242579.945663,-0.004330095,0.001194637,-0.158771753,-0.000922917,0.000745731,-0.002923152,-0.040109545,-0.061239820,9.805757523
1784242579.947637,-0.004321888,0.001194339,-0.158768356,-0.000552022,0.000461316,-0.002302296,-0.004275627,-0.067459650,9.796786308
1784242579.949673,-0.004317718,0.001194922,-0.158766314,0.000604120,0.000367245,-0.001306417,0.002580857,-0.059256848,9.765013695
1784242579.951651,-0.004317188,0.001198951,-0.158763975,0.000925349,0.000592762,-0.000652327,0.002979967,-0.061680458,9.790104866
1784242579.953644,-0.004327174,0.001203502,-0.158763230,0.000150059,0.001038474,-0.000266123,-0.006265612,-0.048003249,9.773594856
1784242579.955652,-0.004337383,0.001200735,-0.158751354,-0.001144536,0.000899075,0.000661342,-0.004031808,-0.009708264,9.802984238
1784242579.957642,-0.004339856,0.001198685,-0.158742115,-0.001696348,0.000321784,0.001912620,-0.010672123,-0.003236102,9.786880493
1784242579.959639,-0.004340310,0.001198899,-0.158735827,-0.001570979,0.000095863,0.002446997,-0.006187635,-0.004529372,9.771633148
1784242579.961655,-0.004342243,0.001196593,-0.158735126,-0.001442296,-0.000083578,0.002258603,0.005852462,-0.046512894,9.794240952
1784242579.963639,-0.004339086,0.001195233,-0.158736795,-0.000895657,-0.000251860,0.001580316,-0.013824497,-0.041281480,9.787081718
1784242579.965636,-0.004338829,0.001198731,-0.158732593,-0.000349077,0.000018491,0.001323290,-0.010744100,-0.008262245,9.800745964
1784242579.967644,-0.004341260,0.001199872,-0.158728912,-0.000402581,0.000326091,0.001496985,-0.003307893,-0.024057696,9.803341866
1784242579.969649,-0.004337864,0.001196601,-0.158729285,-0.000282979,0.000100366,0.001314384,-0.006130902,-0.035187252,9.798336029
1784242579.971671,-0.004337441,0.001190557,-0.158728078,-0.000001851,-0.000551146,0.001016490,-0.007311867,-0.057272114,9.818816185
1784242579.973656,-0.004339749,0.001187349,-0.158727378,-0.000068221,-0.001005285,0.000871367,-0.016159385,-0.048458267,9.792413712
1784242579.975652,-0.004340065,0.001186881,-0.158726394,-0.000166671,-0.000957487,0.000749625,-0.018586965,-0.061229989,9.828642845
1784242579.977661,-0.004338542,0.001184008,-0.158725679,-0.000039519,-0.000924812,0.000661241,0.018684667,-0.060664993,9.808059692
1784242579.979652,-0.004340841,0.001182218,-0.158722848,-0.000037201,-0.000864812,0.000723276,-0.031642433,-0.067077167,9.792279243
1784242579.981653,-0.004346180,0.001185251,-0.158721298,-0.000501417,-0.000420428,0.000824114,-0.011182055,-0.044140466,9.806344032
1784242579.983649,-0.004348439,0.001189141,-0.158717647,-0.000909311,0.000155709,0.000953025,-0.025066910,-0.042955026,9.790645599
1784242579.985653,-0.004346860,0.001191568,-0.158715561,-0.000736872,0.000534136,0.001083555,-0.003086434,-0.079657704,9.808814049
1784242579.987663,-0.004342933,0.001188939,-0.158717781,-0.000162992,0.000375437,0.000779797,-0.002445318,-0.065176085,9.787386894
1784242579.989661,-0.004344600,0.001183031,-0.158712566,0.000122538,-0.000244051,0.000772117,-0.020058911,-0.036368810,9.800557137
1784242579.991657,-0.004351927,0.001175206,-0.158706844,-0.000433990,-0.001050402,0.001304883,-0.025286423,-0.024119018,9.788524628
1784242579.993659,-0.004355963,0.001172781,-0.158703223,-0.001145332,-0.001525863,0.001584824,-0.015280610,-0.012242761,9.801612854
1784242579.995661,-0.004355981,0.001176530,-0.158689454,-0.001168121,-0.001088928,0.002335464,0.010130908,-0.025621749,9.810069084
1784242579.997674,-0.004349633,0.001177042,-0.158683121,-0.000422900,-0.000509959,0.003065478,-0.001089936,-0.027530225,9.783595085
1784242579.999673,-0.004345226,0.001174687,-0.158680528,0.000316978,-0.000427647,0.002837531,-0.028565384,-0.035300061,9.791588783
1784242580.001664,-0.004353022,0.001172700,-0.158674523,-0.000104138,-0.000537212,0.002650953,-0.000106272,-0.019160831,9.802031517
1784242580.003675,-0.004353686,0.001168997,-0.158671156,-0.000701096,-0.000686229,0.002568341,0.003582078,-0.048317328,9.800054550
1784242580.005670,-0.004351812,0.001173811,-0.158670679,-0.000479138,-0.000331567,0.002132696,-0.002473439,-0.028618760,9.813177109
1784242580.007668,-0.004351841,0.001175196,-0.158669397,-0.000223970,0.000178668,0.001672470,-0.013017369,-0.012115701,9.779647827
1784242580.009669,-0.004350258,0.001172768,-0.158667654,-0.000134349,0.000028877,0.001424401,-0.016450878,-0.034648392,9.804158211
1784242580.011687,-0.004352478,0.001168869,-0.158664048,-0.000217985,-0.000439619,0.001403913,-0.047837596,-0.032447748,9.803245544
1784242580.013676,-0.004350343,0.001170361,-0.158663303,-0.000204668,-0.000619278,0.001317798,-0.018327750,-0.042567872,9.787068367
1784242580.015709,-0.004352991,0.001175492,-0.158665225,-0.000223585,-0.000135551,0.000879356,-0.021509921,-0.046095420,9.784800529
1784242580.017680,-0.004359665,0.001178274,-0.158663154,-0.000795703,0.000438296,0.000650561,0.006731733,-0.049504317,9.772253036
1784242580.019690,-0.004358317,0.001177191,-0.158663481,-0.000872943,0.000510027,0.000590807,-0.011260314,-0.051647700,9.791052818
1784242580.021690,-0.004354065,0.001179601,-0.158668578,-0.000186981,0.000539269,0.000060929,-0.015943024,-0.030539822,9.792529106
1784242580.023679,-0.004350603,0.001182559,-0.158665702,0.000314553,0.000775213,-0.000107261,-0.009690319,-0.034902785,9.764709473
1784242580.025682,-0.004347940,0.001186826,-0.158661187,0.000571241,0.001070278,0.000420593,-0.037455998,-0.064416409,9.806637764
1784242580.027684,-0.004344237,0.001188699,-0.158658594,0.000847701,0.001194380,0.000786714,-0.033641577,-0.084067143,9.790822029
1784242580.029684,-0.004342514,0.001188674,-0.158659726,0.001064581,0.000962958,0.000672572,-0.014222454,-0.072791383,9.808399200
1784242580.031687,-0.004341710,0.001192709,-0.158662692,0.001026175,0.000942806,0.000210848,-0.002254674,-0.048271202,9.804083824
1784242580.033695,-0.004336629,0.001194127,-0.158661410,0.001108426,0.001123931,0.000038219,0.005986933,-0.036130302,9.783098221
1784242580.035695,-0.004335328,0.001195495,-0.158658817,0.001201642,0.001073204,0.000290584,-0.022112479,-0.021061689,9.793928146
1784242580.037689,-0.004338290,0.001196645,-0.158656776,0.000762224,0.000951391,0.000527306,-0.002391791,-0.023516303,9.788551331
1784242580.039694,-0.004338402,0.001197072,-0.158656597,0.000243241,0.000829794,0.000536790,-0.021853317,-0.036342636,9.800107002
1784242580.041694,-0.004339752,0.001199269,-0.158656627,-0.000025229,0.000812912,0.000399858,0.010529025,-0.031295191,9.788065910
1784242580.043721,-0.004334641,0.001191461,-0.158652768,0.000189146,0.000308665,0.000550741,0.006356405,-0.041219421,9.805034637
1784242580.045732,-0.004335541,0.001185964,-0.158653125,0.000375865,-0.000580870,0.000639744,-0.042629424,-0.047687005,9.794633865
1784242580.047761,-0.004339526,0.001190578,-0.158654764,-0.000057745,-0.000482453,0.000328748,-0.019550778,-0.033473752,9.770537376
1784242580.049713,-0.004333501,0.001194570,-0.158656925,0.000067405,0.000215234,-0.000019984,-0.014547893,-0.025712170,9.804217339
1784242580.051713,-0.004329534,0.001194869,-0.158665523,0.000698965,0.000432556,-0.000744140,0.006288290,-0.009030421,9.815104485
1784242580.053712,-0.004330467,0.001188886,-0.158666432,0.000573862,0.000002655,-0.001185629,-0.004768285,-0.035074137,9.779956818
1784242580.055713,-0.004331906,0.001182342,-0.158671051,0.000115420,-0.000776203,-0.001239650,-0.012968635,-0.043647256,9.803207397
1784242580.057719,-0.004332439,0.001185080,-0.158682033,-0.000048533,-0.000819243,-0.001961780,-0.010032750,-0.062326986,9.778431892
1784242580.059719,-0.004334441,0.001188095,-0.158688441,-0.000160260,-0.000165936,-0.002610381,-0.007290354,-0.056696966,9.800886154
1784242580.061741,-0.004337437,0.001185804,-0.158689618,-0.000409676,-0.000034278,-0.002417148,0.008518087,-0.049594089,9.781669617
1784242580.063723,-0.004340828,0.001177741,-0.158686265,-0.000709253,-0.000661158,-0.001612677,-0.010131938,-0.032409582,9.792969704
1784242580.065740,-0.004339608,0.001171424,-0.158685863,-0.000641407,-0.001391571,-0.000919388,-0.036282964,-0.041178439,9.813064575
1784242580.067730,-0.004338339,0.001169355,-0.158688605,-0.000298011,-0.001582309,-0.000827157,-0.021588061,-0.052385952,9.787450790
1784242580.069734,-0.004338874,0.001170406,-0.158690512,-0.000078746,-0.001269949,-0.000919968,-0.014619308,-0.033165347,9.781304359
1784242580.071736,-0.004342305,0.001177919,-0.158684716,-0.000238812,-0.000394521,-0.000406821,0.005996086,-0.034437023,9.797007561
1784242580.073741,-0.004345105,0.001183037,-0.158674642,-0.000624079,0.000655116,0.000781201,-0.005292644,-0.039313078,9.809967995
1784242580.075735,-0.004343263,0.001185979,-0.158665150,-0.000547077,0.001108373,0.001898221,-0.018751808,-0.037504558,9.831934929
1784242580.077805,-0.004349182,0.001184772,-0.158661783,-0.000676343,0.000921356,0.002257487,-0.033586092,-0.041581407,9.801856041
1784242580.079755,-0.004354866,0.001183779,-0.158654153,-0.001280523,0.000413407,0.002389964,-0.031932078,-0.016068051,9.802469254
1784242580.081754,-0.004349321,0.001183248,-0.158653438,-0.000942232,0.000090082,0.002307452,-0.003654067,-0.017974079,9.767514229
1784242580.083747,-0.004347358,0.001186658,-0.158659324,-0.000254993,0.000287416,0.001329812,-0.008037288,-0.044555537,9.796031952
1784242580.085775,-0.004340490,0.001184794,-0.158662319,0.000335684,0.000341755,0.000364531,0.000219809,-0.029050341,9.806002617
1784242580.087755,-0.004334667,0.001184540,-0.158669069,0.001106699,0.000108010,-0.000393802,-0.003716721,-0.020900322,9.801119804
1784242580.089754,-0.004334785,0.001189968,-0.158668861,0.001113049,0.000464365,-0.000727567,-0.010826285,-0.052174542,9.801361084
1784242580.091755,-0.004328126,0.001194454,-0.158663064,0.001173382,0.001042149,-0.000120415,-0.011811731,-0.060963280,9.778886795
1784242580.093752,-0.004326332,0.001194018,-0.158668742,0.001484994,0.001048626,-0.000077135,-0.016907366,-0.073509723,9.788216591
1784242580.095753,-0.004324834,0.001187715,-0.158677623,0.001362889,0.000325229,-0.001043066,-0.019245874,-0.080715127,9.797582626
1784242580.097758,-0.004315566,0.001186092,-0.158681706,0.001724684,-0.000297278,-0.001638242,0.000009250,-0.084107615,9.798925400
1784242580.099760,-0.004312311,0.001182937,-0.158680186,0.002224314,-0.000505642,-0.001366060,0.010837496,-0.077697881,9.823185921
1784242580.101778,-0.004318532,0.001178290,-0.158678710,0.001536437,-0.000864406,-0.000791515,0.006483859,-0.031297505,9.795683861
1784242580.103770,-0.004320545,0.001170016,-0.158682033,0.000490414,-0.001423880,-0.000700424,0.021334706,-0.027900361,9.795271873
1784242580.105765,-0.004321672,0.001167973,-0.158684522,0.000074506,-0.001653532,-0.000903302,-0.015789106,-0.018787904,9.777808189
1784242580.107758,-0.004321436,0.001169614,-0.158679783,-0.000006397,-0.001232572,-0.000505911,-0.035476372,-0.050822511,9.781619072
1784242580.109762,-0.004323778,0.001179439,-0.158681154,-0.000166380,-0.000223290,-0.000140455,-0.023945794,-0.061364125,9.794116020
1784242580.111760,-0.004318445,0.001183427,-0.158685192,0.000063768,0.000673868,-0.000468480,-0.018780651,-0.043000542,9.785720825
1784242580.113768,-0.004313185,0.001179190,-0.158686087,0.000746285,0.000457703,-0.000675368,0.001944933,-0.035297100,9.799239159
1784242580.115776,-0.004312457,0.001177375,-0.158679247,0.000930074,-0.000096911,-0.000088670,-0.007599856,-0.044650316,9.808586121
1784242580.117768,-0.004311919,0.001182196,-0.158675313,0.000762656,0.000130287,0.000666705,-0.007747683,-0.057164617,9.804470062
1784242580.119773,-0.004312532,0.001179894,-0.158677518,0.000587931,0.000300130,0.000603166,-0.016857238,-0.067035146,9.822780609
1784242580.121765,-0.004308394,0.001171962,-0.158681348,0.000705658,-0.000439535,0.000028955,-0.039404150,-0.040982395,9.791093826
1784242580.123768,-0.004307279,0.001169760,-0.158686772,0.000880585,-0.001139998,-0.000606733,-0.045258969,-0.041889418,9.803188324
1784242580.125771,-0.004306249,0.001170343,-0.158688441,0.000796955,-0.001072913,-0.000922528,-0.032757215,-0.012243926,9.770213127
1784242580.127777,-0.004307559,0.001175992,-0.158690855,0.000561975,-0.000357412,-0.000950575,-0.002130964,-0.039594606,9.780826569
1784242580.129774,-0.004310251,0.001179932,-0.158689052,0.000085415,0.000399666,-0.000735504,0.004254321,-0.067127295,9.797691345
1784242580.131777,-0.004307341,0.001182083,-0.158688858,0.000024547,0.000713006,-0.000399181,-0.008284833,-0.065962285,9.782445908
1784242580.133787,-0.004302977,0.001184498,-0.158686236,0.000557639,0.000844716,-0.000099638,-0.016119160,-0.044493392,9.801853180
1784242580.135778,-0.004301164,0.001183481,-0.158687115,0.000871507,0.000725921,0.000045053,-0.010393350,-0.054331057,9.788793564
1784242580.137783,-0.004303133,0.001177732,-0.158688828,0.000624551,0.000070305,-0.000142296,0.008982679,-0.046232365,9.812178612
1784242580.139785,-0.004303527,0.001170761,-0.158684447,0.000277945,-0.000695709,0.000080387,-0.016456170,-0.033879660,9.822095871
1784242580.141783,-0.004305454,0.001169767,-0.158675998,0.000027305,-0.000933982,0.000930363,-0.009986578,-0.019104300,9.811884880
1784242580.143782,-0.004301878,0.001171962,-0.158668861,0.000012845,-0.000570506,0.001733338,-0.000550369,-0.018713478,9.802930832
1784242580.145788,-0.004301940,0.001170690,-0.158664957,0.000129411,-0.000323206,0.002011521,0.021246552,-0.035080455,9.797018051
1784242580.147786,-0.004306574,0.001164965,-0.158664033,-0.000224817,-0.000711743,0.001795117,0.011000049,-0.065472558,9.804883957
1784242580.149795,-0.004310965,0.001158439,-0.158660963,-0.000667235,-0.001334454,0.001581128,0.027634658,-0.062590890,9.810746193
1784242580.151831,-0.004317979,0.001155116,-0.158653870,-0.001151490,-0.001626899,0.001841071,-0.003312900,-0.024502475,9.802890778
1784242580.153794,-0.004318140,0.001160936,-0.158652589,-0.001423456,-0.001084071,0.001908414,-0.035756301,-0.035300281,9.804583549
1784242580.155796,-0.004313649,0.001161739,-0.158649996,-0.000840311,-0.000407182,0.001653402,-0.033251960,-0.051407322,9.796861649
1784242580.157800,-0.004314245,0.001159688,-0.158651412,-0.000347814,-0.000381678,0.001284612,-0.002453664,-0.066862993,9.772582054
1784242580.159796,-0.004312500,0.001163838,-0.158655435,-0.000076592,-0.000197393,0.000565441,0.020303462,-0.038671724,9.799684525
1784242580.161798,-0.004312786,0.001166021,-0.158653662,0.000141668,0.000223292,0.000259783,0.016531965,-0.016250538,9.803859711
1784242580.163806,-0.004313201,0.001165204,-0.158654258,-0.000063042,0.000388245,0.000270422,0.007585018,-0.049458951,9.827399254
1784242580.165830,-0.004319111,0.001164270,-0.158655405,-0.000593698,0.000297752,0.000077822,-0.012178835,-0.052208167,9.808533669
1784242580.167840,-0.004321275,0.001165672,-0.158650964,-0.000980905,0.000247732,0.000280588,-0.020789042,-0.022473695,9.801093102
1784242580.169872,-0.004314319,0.001166777,-0.158647016,-0.000521188,0.000327186,0.000773109,-0.014000097,-0.016425202,9.820416451
1784242580.171849,-0.004311503,0.001160960,-0.158639669,0.000151476,-0.000105771,0.001328277,0.002337359,-0.040204983,9.795622826
1784242580.173846,-0.004313403,0.001153149,-0.158640847,0.000185084,-0.000900129,0.001386333,-0.005170614,-0.067429088,9.794095039
1784242580.175820,-0.004311578,0.001153193,-0.158642530,0.000143015,-0.001078349,0.000816990,0.000323886,-0.059739653,9.773975372
1784242580.177881,-0.004310813,0.001154565,-0.158638567,0.000279909,-0.000690112,0.000748367,-0.020893488,-0.067777567,9.808424950
1784242580.179866,-0.004314387,0.001155409,-0.158632010,0.000107489,-0.000371784,0.001257747,-0.026521023,-0.051490381,9.796418190
1784242580.181860,-0.004310438,0.001155681,-0.158625677,0.000197664,-0.000215206,0.001791215,-0.017673226,-0.061517745,9.804432869
1784242580.183858,-0.004314475,0.001153368,-0.158628687,0.000208341,-0.000312552,0.001528710,-0.019161209,-0.034756981,9.824328423
1784242580.185851,-0.004321792,0.001145556,-0.158630148,-0.000547997,-0.000929994,0.000809716,-0.034688972,-0.021812532,9.796153069
1784242580.187846,-0.004322093,0.001145630,-0.158635557,-0.000915848,-0.001200780,0.000124759,-0.004439669,-0.043727867,9.799180031
1784242580.189836,-0.004322924,0.001149450,-0.158638224,-0.000723241,-0.000628493,-0.000459465,-0.011838539,-0.026016565,9.779111862
1784242580.191864,-0.004324565,0.001149788,-0.158634573,-0.000674607,-0.000196363,-0.000271365,-0.038564511,-0.044692043,9.807209969
1784242580.193864,-0.004324947,0.001148327,-0.158622950,-0.000610042,-0.000319832,0.000838066,0.020337755,-0.036374684,9.791628838
1784242580.195842,-0.004325806,0.001146804,-0.158621997,-0.000509700,-0.000535239,0.001465143,0.017188260,-0.037617914,9.783100128
1784242580.197831,-0.004324825,0.001142356,-0.158626869,-0.000362761,-0.000794091,0.000802298,0.011972503,-0.020412300,9.830280304
1784242580.199839,-0.004319438,0.001141960,-0.158630922,0.000108058,-0.000858487,-0.000022291,0.007980153,-0.017971305,9.809219360
1784242580.201872,-0.004313883,0.001142228,-0.158631772,0.000761251,-0.000586418,-0.000349949,-0.026594680,-0.058556005,9.782026291
1784242580.203865,-0.004314914,0.001140901,-0.158634260,0.000927732,-0.000547540,-0.000481713,-0.014109199,-0.026607480,9.803315163
1784242580.205856,-0.004316039,0.001139645,-0.158632740,0.000595467,-0.000623318,-0.000416535,0.002351976,-0.038873814,9.797424316
1784242580.207852,-0.004318165,0.001144233,-0.158630669,0.000212917,-0.000228908,-0.000059892,0.002033892,-0.028110642,9.796596527
1784242580.209853,-0.004317112,0.001150066,-0.158627227,0.000047669,0.000542395,0.000329159,0.004261060,-0.030699966,9.778648376
1784242580.211887,-0.004320099,0.001148311,-0.158631846,-0.000130544,0.000675692,0.000158803,-0.005466953,-0.056494206,9.769058228
1784242580.213861,-0.004324786,0.001143199,-0.158635691,-0.000574149,0.000077200,-0.000457073,-0.016796475,-0.062908098,9.809356689
1784242580.215859,-0.004323508,0.001142186,-0.158635512,-0.000608239,-0.000309907,-0.000580067,-0.012347085,-0.031751636,9.767416954
1784242580.217854,-0.004325180,0.001139608,-0.158632711,-0.000470080,-0.000470441,-0.000217436,-0.016559461,-0.043610800,9.804550171
1784242580.219857,-0.004326732,0.001140258,-0.158635437,-0.000530304,-0.000458442,-0.000151371,-0.028110920,-0.034044590,9.803253174
1784242580.221861,-0.004327632,0.001135023,-0.158634484,-0.000521585,-0.000629485,-0.000230523,-0.001456818,-0.056768529,9.800444603
1784242580.223855,-0.004331596,0.001131553,-0.158639073,-0.000644408,-0.001021908,-0.000416245,0.009256467,-0.022592170,9.826677322
1784242580.225857,-0.004329764,0.001131608,-0.158646330,-0.000547846,-0.000946375,-0.001108839,-0.002512669,0.005419318,9.815188408
1784242580.227852,-0.004330041,0.001134065,-0.158650383,-0.000292701,-0.000515582,-0.001574895,0.004902534,-0.012568249,9.811044693
1784242580.229864,-0.004331984,0.001135853,-0.158657372,-0.000502669,-0.000017604,-0.001895963,-0.024153160,-0.040405948,9.808596611
1784242580.231858,-0.004326175,0.001135056,-0.158657685,-0.000242751,0.000123176,-0.001877713,-0.020426599,-0.065613456,9.818302155
1784242580.233863,-0.004323047,0.001134481,-0.158660188,0.000485314,-0.000051946,-0.001558229,-0.026224108,-0.062015451,9.826838493
1784242580.235866,-0.004324984,0.001131908,-0.158658415,0.000489689,-0.000300728,-0.001182584,-0.025929447,-0.040236689,9.787972450
1784242580.237865,-0.004319698,0.001131913,-0.158659011,0.000583943,-0.000393724,-0.000781932,-0.025121687,-0.046224300,9.809454918
1784242580.239870,-0.004312716,0.001135409,-0.158662766,0.001272504,-0.000069847,-0.000865983,-0.009459051,-0.048782982,9.826042175
1784242580.241877,-0.004316994,0.001137903,-0.158662543,0.001124882,0.000334754,-0.000873149,-0.028034613,0.010226635,9.815194130
1784242580.243871,-0.004319289,0.001140959,-0.158666879,0.000257707,0.000601916,-0.000915834,-0.010741631,-0.009053237,9.785945892
1784242580.245874,-0.004317981,0.001141815,-0.158674121,0.000005691,0.000687551,-0.001452384,0.006586226,-0.022789424,9.796187401
1784242580.247874,-0.004314046,0.001139980,-0.158675522,0.000360689,0.000436923,-0.001645573,0.014489093,-0.036017321,9.814938545
1784242580.249884,-0.004310806,0.001138386,-0.158671901,0.000724437,0.000104678,-0.001046852,0.008917597,-0.017261393,9.770668983
1784242580.251875,-0.004313468,0.001142454,-0.158671930,0.000541513,0.000262900,-0.000518913,-0.030229514,-0.025329705,9.778649330
1784242580.253887,-0.004317783,0.001143698,-0.158679724,-0.000113010,0.000496538,-0.000910711,-0.023954006,-0.024244374,9.803769112
1784242580.255877,-0.004316743,0.001144294,-0.158688292,-0.000337856,0.000433577,-0.001774689,-0.008900690,-0.043870322,9.764204025
1784242580.257882,-0.004309298,0.001146404,-0.158692881,0.000330837,0.000503400,-0.002185498,-0.007966860,-0.075105317,9.807494164
1784242580.259886,-0.004300947,0.001147731,-0.158692136,0.001395577,0.000598161,-0.001851793,0.020079911,-0.057457469,9.795528412
1784242580.261880,-0.004303679,0.001144649,-0.158697829,0.001480489,0.000315100,-0.001683959,0.017477756,-0.048606839,9.815756798
1784242580.263883,-0.004311711,0.001148682,-0.158705607,0.000371114,0.000359054,-0.002139818,-0.010862884,-0.056110799,9.787886620
1784242580.265890,-0.004309852,0.001151646,-0.158709139,-0.000125570,0.000800810,-0.002324715,-0.041244645,-0.044562165,9.793760300
1784242580.267887,-0.004304048,0.001151104,-0.158703357,0.000428534,0.000747121,-0.001539405,-0.021980193,-0.045854744,9.814841270
1784242580.269893,-0.004305430,0.001156896,-0.158696741,0.000578992,0.000850526,-0.000280954,-0.006474255,-0.063834503,9.795014381
1784242580.271894,-0.004307867,0.001156723,-0.158699751,0.000129768,0.000953534,0.000039371,-0.038459435,-0.034541562,9.828796387
1784242580.273897,-0.004303630,0.001154654,-0.158700645,0.000195625,0.000487458,-0.000235117,-0.008948150,-0.045055594,9.804993629
1784242580.275900,-0.004302076,0.001154433,-0.158700719,0.000514314,0.000143791,-0.000236101,0.003252818,-0.076853298,9.781041145
1784242580.277898,-0.004306149,0.001151354,-0.158699483,0.000203554,-0.000119598,-0.000093339,0.001975591,-0.070618644,9.788701057
1784242580.279899,-0.004309532,0.001143971,-0.158698291,-0.000281034,-0.000759224,0.000098016,0.008791862,-0.063543864,9.789650917
1784242580.281900,-0.004304773,0.001145036,-0.158694893,-0.000034662,-0.000944545,0.000384346,-0.024697440,-0.048044156,9.812582970
1784242580.283899,-0.004306426,0.001149445,-0.158695996,0.000207050,-0.000377256,0.000434480,0.005621380,-0.029389231,9.780899048
1784242580.285908,-0.004308874,0.001148475,-0.158697397,-0.000105786,-0.000100721,0.000144531,-0.006864427,-0.021724200,9.796628952
1784242580.287904,-0.004305460,0.001148229,-0.158694863,-0.000011593,-0.000156279,0.000185111,-0.007254212,-0.051953819,9.826921463
1784242580.289906,-0.004304245,0.001145913,-0.158695444,0.000345579,-0.000254194,0.000268968,-0.018522415,-0.059504542,9.774854660
1784242580.291904,-0.004306685,0.001145739,-0.158697665,0.000208812,-0.000319252,0.000004528,-0.019392481,-0.055629916,9.798640251
1784242580.293911,-0.004307480,0.001145410,-0.158697769,0.000001395,-0.000293708,-0.000151775,-0.024274817,-0.052713562,9.775341988
1784242580.295913,-0.004307016,0.001143078,-0.158697054,0.000047129,-0.000422433,-0.000067579,-0.013560507,-0.056524266,9.787879944
1784242580.297917,-0.004304147,0.001141253,-0.158697665,0.000260546,-0.000589925,-0.000042470,-0.010604463,-0.034618210,9.789369583
1784242580.299916,-0.004300539,0.001141825,-0.158695608,0.000616429,-0.000552662,0.000067286,-0.010061161,-0.027392983,9.780449867
1784242580.301919,-0.004297406,0.001140777,-0.158687711,0.000892960,-0.000475247,0.000725207,-0.014540000,-0.023218362,9.831582069
1784242580.303914,-0.004293825,0.001143515,-0.158682182,0.001059441,-0.000257920,0.001440011,-0.044742309,-0.036900826,9.793804169
1784242580.305925,-0.004298035,0.001152892,-0.158676371,0.000682451,0.000608627,0.001819477,-0.013307961,-0.072262712,9.795401573
1784242580.307925,-0.004301527,0.001154836,-0.158670336,-0.000026564,0.001208362,0.002131152,0.024103157,-0.058033489,9.806287766
1784242580.309921,-0.004306224,0.001151881,-0.158667758,-0.000550545,0.000908703,0.002137467,0.011983700,-0.059940003,9.781158447
1784242580.311922,-0.004307861,0.001152747,-0.158663318,-0.000806224,0.000617713,0.002033552,-0.004569429,-0.055289011,9.787001610
1784242580.313989,-0.004305426,0.001150184,-0.158656493,-0.000433304,0.000343932,0.002247224,-0.025023354,-0.040584862,9.772279739
1784242580.315965,-0.004306003,0.001149726,-0.158659220,-0.000089122,0.000056695,0.001915109,-0.032825112,-0.015211498,9.809644699
1784242580.317976,-0.004305484,0.001151910,-0.158663288,-0.000068325,0.000160451,0.000934421,-0.016311627,-0.023417573,9.799747467
1784242580.319986,-0.004301744,0.001153334,-0.158658817,0.000199543,0.000302319,0.000708169,0.001269457,-0.054102536,9.798669815
1784242580.321952,-0.004300210,0.001151780,-0.158654377,0.000462881,0.000149403,0.001119686,0.011230445,-0.046632759,9.801417351
1784242580.323953,-0.004299529,0.001149645,-0.158658728,0.000510153,-0.000082778,0.000822860,-0.007293517,-0.057532474,9.792363167
1784242580.325969,-0.004298471,0.001152616,-0.158661440,0.000512919,0.000057396,0.000120899,-0.039085548,-0.050525691,9.809414864
1784242580.327950,-0.004297676,0.001156118,-0.158662573,0.000499842,0.000482332,-0.000172076,0.010160543,-0.022956239,9.813224792
1784242580.329980,-0.004291320,0.001158489,-0.158662871,0.000778805,0.000751788,-0.000222804,0.012775571,-0.069295101,9.772131920
1784242580.331977,-0.004290308,0.001157999,-0.158657625,0.000996139,0.000675287,0.000171987,-0.030566068,-0.050275993,9.821977615
1784242580.333979,-0.004298893,0.001154608,-0.158653229,0.000262533,0.000141204,0.000780439,-0.017958971,-0.049283501,9.785681725
1784242580.335966,-0.004300020,0.001153085,-0.158650666,-0.000416872,-0.000317196,0.001042555,-0.030419044,-0.037768055,9.826989174
1784242580.337988,-0.004294186,0.001153628,-0.158658728,0.000016173,-0.000295956,0.000388522,-0.000503997,-0.051074181,9.817070007
1784242580.340011,-0.004293541,0.001151723,-0.158660933,0.000440900,-0.000279668,-0.000412689,0.019970696,-0.066019602,9.802646637
1784242580.341978,-0.004293633,0.001147536,-0.158657566,0.000347188,-0.000592201,-0.000222583,-0.011573725,-0.038416147,9.821175575
1784242580.344020,-0.004287600,0.001151013,-0.158656806,0.000679891,-0.000483435,0.000116989,-0.011895097,-0.029705185,9.793883324
1784242580.345970,-0.004291605,0.001154556,-0.158652633,0.000656595,0.000120310,0.000421019,0.015072564,-0.024017155,9.827569962
1784242580.347997,-0.004303689,0.001149707,-0.158651158,-0.000614218,-0.000002655,0.000691530,-0.001036827,-0.023463599,9.778689384
1784242580.349980,-0.004311962,0.001147979,-0.158656567,-0.001903523,-0.000408316,0.000236390,-0.012982162,-0.046185575,9.782119751
1784242580.351965,-0.004311422,0.001152022,-0.158661678,-0.001985327,-0.000098340,-0.000541734,-0.012869662,-0.035571229,9.801465034
1784242580.353969,-0.004311645,0.001152538,-0.158660948,-0.001447936,0.000244485,-0.000691797,-0.015918344,-0.029129166,9.783122063
1784242580.355968,-0.004313787,0.001155800,-0.158658609,-0.001239047,0.000439102,-0.000296263,0.007570522,-0.014820291,9.807893753
1784242580.357966,-0.004316501,0.001155094,-0.158658668,-0.001232352,0.000492782,-0.000062998,-0.005887337,-0.052212350,9.797779083
1784242580.359968,-0.004319971,0.001155064,-0.158663020,-0.001282772,0.000337260,-0.000345534,-0.000841594,-0.043707091,9.789769173
1784242580.361967,-0.004317313,0.001158542,-0.158661976,-0.000954970,0.000507578,-0.000476992,-0.034228537,-0.057289273,9.806685448
1784242580.363967,-0.004315260,0.001161737,-0.158661246,-0.000317886,0.000751250,-0.000228475,-0.030132789,-0.016866140,9.785429001
1784242580.366015,-0.004314276,0.001157554,-0.158666432,0.000033093,0.000410551,-0.000465691,-0.018309737,-0.040804643,9.791114807
1784242580.367976,-0.004312254,0.001151232,-0.158668146,0.000228691,-0.000411974,-0.000804262,-0.010290058,-0.044599924,9.806342125
1784242580.369985,-0.004305320,0.001147644,-0.158669040,0.000786703,-0.000981428,-0.000761252,-0.007545148,-0.043407816,9.759725571
1784242580.371987,-0.004306175,0.001146387,-0.158668593,0.000997692,-0.001053062,-0.000583904,-0.017691342,-0.061660830,9.824607849
1784242580.373978,-0.004311964,0.001144744,-0.158667102,0.000302251,-0.001007091,-0.000293044,-0.029607568,-0.048184037,9.778056145
1784242580.375982,-0.004312773,0.001147471,-0.158669800,-0.000200926,-0.000702322,-0.000296260,-0.013097068,-0.053982157,9.807623863
1784242580.377982,-0.004318366,0.001151045,-0.158673048,-0.000580494,-0.000082186,-0.000621339,0.006856086,-0.038391143,9.784429550
1784242580.379992,-0.004328866,0.001150871,-0.158680856,-0.001472827,0.000198328,-0.001203072,0.007644287,-0.009374810,9.798067093
1784242580.381991,-0.004331097,0.001145390,-0.158682302,-0.001894783,-0.000212528,-0.001503561,-0.008059900,-0.046760377,9.791087151
1784242580.383983,-0.004329560,0.001143300,-0.158678144,-0.001428471,-0.000687149,-0.000909880,-0.019236771,-0.043458659,9.787959099
1784242580.385983,-0.004327232,0.001140426,-0.158681974,-0.000779079,-0.000855255,-0.000638374,-0.006793251,-0.051457550,9.819303513
1784242580.387988,-0.004322527,0.001135408,-0.158687651,-0.000089394,-0.001155952,-0.001109150,-0.013612865,-0.059774458,9.803999901
1784242580.389996,-0.004320471,0.001131449,-0.158686429,0.000465861,-0.001431676,-0.001109354,-0.034221292,-0.057232037,9.798615456
1784242580.391994,-0.004321306,0.001132049,-0.158686489,0.000493875,-0.001252820,-0.000728896,-0.050070457,-0.029092865,9.839578629
1784242580.393993,-0.004320714,0.001130715,-0.158687368,0.000316537,-0.001047511,-0.000596048,-0.001587376,-0.030746054,9.795679092
1784242580.395993,-0.004321279,0.001130794,-0.158694342,0.000206167,-0.000931268,-0.000968772,-0.004689099,-0.026343847,9.812293053
1784242580.397995,-0.004318366,0.001132426,-0.158700556,0.000310545,-0.000558379,-0.001599434,-0.006221069,-0.042383250,9.802325249
1784242580.399999,-0.004320364,0.001133883,-0.158700615,0.000260848,-0.000108263,-0.001588724,-0.011380641,-0.062729083,9.774393082
1784242580.402038,-0.004322492,0.001138730,-0.158695325,-0.000118390,0.000434571,-0.000804041,-0.035955276,-0.051055234,9.815242767
1784242580.404007,-0.004319265,0.001140176,-0.158691674,0.000000916,0.000680212,0.000020112,0.004500650,-0.048566930,9.770463943
1784242580.406002,-0.004323864,0.001137634,-0.158691257,-0.000079561,0.000358979,0.000292513,-0.005000402,-0.052306518,9.809435844
1784242580.408003,-0.004333250,0.001135155,-0.158697486,-0.001006729,-0.000077566,-0.000179471,-0.011561996,-0.039134014,9.796063423
1784242580.410006,-0.004338880,0.001131875,-0.158702403,-0.001753999,-0.000428595,-0.000884641,-0.035607785,-0.023996321,9.789860725
1784242580.412004,-0.004334969,0.001128177,-0.158699796,-0.001396624,-0.000769688,-0.000801683,-0.033990078,-0.000795908,9.800771713
1784242580.414013,-0.004327549,0.001127455,-0.158698007,-0.000377059,-0.000939128,-0.000288307,-0.022490647,-0.053225860,9.781168938
1784242580.416009,-0.004323338,0.001127199,-0.158694357,0.000386125,-0.000829236,0.000159222,0.017964026,-0.047100186,9.792005539
1784242580.418008,-0.004319110,0.001127747,-0.158695787,0.000853974,-0.000584910,0.000269396,-0.015776632,-0.091032423,9.793036461
1784242580.420012,-0.004322665,0.001129421,-0.158693418,0.000816907,-0.000258300,0.000259624,-0.039970078,-0.088002414,9.788549423
1784242580.422020,-0.004324820,0.001131882,-0.158687636,0.000356193,0.000107315,0.000739927,-0.035766777,-0.072972916,9.809721947
1784242580.424013,-0.004326222,0.001133128,-0.158687681,0.000128654,0.000301495,0.000927126,-0.022255637,-0.031107614,9.820763588
1784242580.426018,-0.004325220,0.001131321,-0.158686996,0.000177551,0.000154755,0.000719250,-0.029498342,-0.036785066,9.813098907
1784242580.428019,-0.004322357,0.001129489,-0.158683598,0.000391451,-0.000135496,0.000801749,-0.006266123,-0.046386283,9.798264503
1784242580.430024,-0.004320423,0.001131353,-0.158685803,0.000640879,-0.000094745,0.000664833,-0.008385059,-0.035647806,9.804160118
1784242580.432027,-0.004319954,0.001129549,-0.158684283,0.000660174,-0.000062532,0.000438485,-0.006716209,-0.046796694,9.793777466
1784242580.434029,-0.004317719,0.001130568,-0.158685148,0.000691703,-0.000075805,0.000363674,0.024883004,-0.033540908,9.762958527
1784242580.436028,-0.004313412,0.001138280,-0.158689424,0.000975755,0.000562116,-0.000083942,-0.000334842,-0.075981326,9.790906906
1784242580.438024,-0.004312667,0.001137271,-0.158688977,0.001054156,0.000865674,-0.000320868,0.002911380,-0.066274531,9.806215286
1784242580.440026,-0.004314467,0.001129089,-0.158686966,0.000864864,0.000132855,-0.000065929,-0.023482287,-0.022042111,9.808267593
1784242580.442023,-0.004307596,0.001128274,-0.158683851,0.001142552,-0.000388584,0.000301038,-0.025645306,-0.017730525,9.772873878
1784242580.444026,-0.004307034,0.001139317,-0.158680424,0.001230355,0.000366183,0.000664769,-0.037460603,-0.064858004,9.805736542
1784242580.446034,-0.004311305,0.001142342,-0.158681020,0.000538324,0.001177714,0.000677275,-0.006186709,-0.038059440,9.824320793
1784242580.448035,-0.004307381,0.001139709,-0.158680856,0.000368662,0.000884666,0.000465368,-0.002927157,-0.031894632,9.770562172
1784242580.450032,-0.004298453,0.001138421,-0.158682510,0.001146477,0.000409918,0.000238766,0.003635199,-0.006660732,9.801667213
1784242580.452075,-0.004297992,0.001135040,-0.158688203,0.001478446,0.000015037,-0.000324098,0.027209671,-0.023997508,9.802923203
1784242580.454039,-0.004299884,0.001129428,-0.158682182,0.000957546,-0.000465608,-0.000212922,0.018940603,-0.041218240,9.782181740
1784242580.456040,-0.004295072,0.001136309,-0.158669472,0.000871953,-0.000124590,0.001117961,-0.005965596,-0.059719574,9.782487869
1784242580.458041,-0.004299913,0.001135895,-0.158671156,0.000632403,0.000344949,0.001564943,-0.039167482,-0.057251468,9.810268402
1784242580.460039,-0.004304797,0.001131184,-0.158673927,-0.000127289,-0.000146229,0.000837987,-0.053749267,-0.038666718,9.806338310
1784242580.462043,-0.004299791,0.001129608,-0.158678293,-0.000012126,-0.000582147,0.000128517,-0.021517048,-0.010182828,9.775168419
1784242580.464044,-0.004297964,0.001127251,-0.158671483,0.000361814,-0.000690830,0.000263165,-0.012899406,-0.001863475,9.786887169
1784242580.466050,-0.004299928,0.001122553,-0.158667073,0.000160391,-0.000984538,0.000955016,0.000196979,0.006738242,9.813853264
1784242580.468052,-0.004301041,0.001122094,-0.158666342,-0.000092456,-0.001068817,0.001044385,0.009844755,-0.013390692,9.791766167
1784242580.470060,-0.004302125,0.001123891,-0.158660546,-0.000307958,-0.000662450,0.001202305,0.029552491,-0.052726943,9.806327820
1784242580.472051,-0.004300829,0.001124731,-0.158659026,-0.000301392,-0.000278516,0.001372252,0.001701008,-0.056675225,9.781617165
1784242580.474056,-0.004295380,0.001126180,-0.158659086,0.000264612,-0.000020440,0.001099689,-0.024327176,-0.055963762,9.791460037
1784242580.476054,-0.004291981,0.001123825,-0.158662647,0.000820059,-0.000047865,0.000557172,-0.036899291,-0.055869557,9.800864220
1784242580.478054,-0.004295297,0.001117021,-0.158659548,0.000603046,-0.000656442,0.000374309,-0.021713033,-0.025508894,9.788520813
1784242580.480059,-0.004301443,0.001117343,-0.158651665,-0.000206405,-0.000971525,0.001017003,-0.023371065,-0.013464077,9.798907280
1784242580.482061,-0.004302463,0.001125896,-0.158649310,-0.000640009,-0.000158458,0.001437100,-0.012573564,-0.048939507,9.790619850
1784242580.484061,-0.004303975,0.001134241,-0.158646435,-0.000605315,0.001008151,0.001403908,0.015469917,-0.068096995,9.787835121
1784242580.486060,-0.004304518,0.001136964,-0.158649147,-0.000547347,0.001463782,0.001034600,0.003518674,-0.017306875,9.786804199
1784242580.488061,-0.004303187,0.001140462,-0.158651337,-0.000344892,0.001490092,0.000421130,0.004886469,-0.016342346,9.774705887
1784242580.490065,-0.004299466,0.001140529,-0.158646047,0.000052843,0.001359247,0.000515339,-0.000681274,0.006495736,9.786502838
1784242580.492067,-0.004290464,0.001138909,-0.158649862,0.000863446,0.000916990,0.000474554,-0.036306329,-0.044199701,9.796904564
1784242580.494068,-0.004292014,0.001140850,-0.158649102,0.001165625,0.000617801,0.000137631,-0.006172333,-0.039161671,9.790240288
1784242580.496066,-0.004294459,0.001140145,-0.158651337,0.000608673,0.000461558,-0.000000393,-0.048320882,-0.036362361,9.787528992
1784242580.498065,-0.004290256,0.001138310,-0.158654079,0.000563141,0.000165300,-0.000336060,-0.018080145,-0.021971203,9.788546562
1784242580.500072,-0.004285495,0.001136385,-0.158653349,0.000907016,-0.000253794,-0.000382554,-0.001694744,-0.039698917,9.794724464
1784242580.502074,-0.004288458,0.001137275,-0.158654496,0.000671072,-0.000374527,-0.000307857,0.009177844,-0.068502620,9.793205261
1784242580.504072,-0.004287026,0.001131825,-0.158654332,0.000517355,-0.000462454,-0.000289517,0.014239826,-0.021063518,9.791721344
1784242580.506077,-0.004284448,0.001128403,-0.158649936,0.000781008,-0.000820871,0.000101889,-0.014883351,-0.017112490,9.792615891
1784242580.508074,-0.004287146,0.001129288,-0.158649713,0.000560566,-0.000771539,0.000388099,-0.024204953,-0.046083186,9.787936211
1784242580.510080,-0.004287493,0.001129452,-0.158652708,0.000168111,-0.000550010,0.000091814,-0.025424989,-0.071313299,9.809742928
1784242580.512090,-0.004288863,0.001129271,-0.158657283,-0.000027390,-0.000459608,-0.000449211,-0.041517500,-0.029389327,9.802822113
1784242580.514091,-0.004287541,0.001133232,-0.158661902,-0.000132027,-0.000267499,-0.000950889,-0.032699551,-0.004088785,9.820478439
1784242580.516083,-0.004288398,0.001131713,-0.158662498,-0.000173720,-0.000219577,-0.001046037,0.020055009,-0.020874714,9.817730904
1784242580.518083,-0.004292721,0.001130226,-0.158660725,-0.000478274,-0.000364358,-0.000683545,-0.011515501,-0.035524886,9.792500496
1784242580.520093,-0.004295077,0.001125631,-0.158654183,-0.000865584,-0.000615029,0.000066854,-0.031006593,-0.014236824,9.795308113
1784242580.522087,-0.004297314,0.001119620,-0.158655912,-0.001005850,-0.001103717,0.000377358,-0.032597367,-0.033577297,9.808632851
1784242580.524088,-0.004294307,0.001120708,-0.158665031,-0.000669033,-0.001223934,-0.000459488,-0.043886274,-0.038859975,9.815760612
1784242580.526088,-0.004295895,0.001125037,-0.158669606,-0.000379426,-0.000608801,-0.001263706,-0.003769831,-0.024966946,9.806025505
1784242580.528096,-0.004299934,0.001124095,-0.158677146,-0.000657437,-0.000210073,-0.001742312,-0.002829045,-0.023014901,9.781828880
1784242580.530090,-0.004303690,0.001122300,-0.158686280,-0.001062388,-0.000311522,-0.002400358,0.020995328,-0.055705745,9.799575806
1784242580.532097,-0.004306141,0.001121585,-0.158682659,-0.001250544,-0.000373228,-0.002121323,0.008690071,-0.071642138,9.794528961
1784242580.534101,-0.004305497,0.001117486,-0.158683300,-0.000956464,-0.000552365,-0.001340454,0.005497776,-0.074439108,9.815579414
1784242580.536101,-0.004300491,0.001116168,-0.158683911,-0.000235704,-0.000722554,-0.001059844,-0.011988441,-0.075326644,9.782829285
1784242580.538101,-0.004299446,0.001118076,-0.158685014,0.000239110,-0.000485788,-0.000889596,-0.021606529,-0.053342286,9.795964241
1784242580.540112,-0.004304693,0.001118097,-0.158689618,-0.000046340,-0.000232842,-0.001036905,-0.030284468,-0.029005602,9.791627884
