time_sec,roll_rad,pitch_rad,yaw_rad,gyro_x,gyro_y,gyro_z,acc_x,acc_y,acc_z
1784243966.542112,-0.003260228,-0.008149122,0.788852513,-0.000629276,-0.000402939,-0.001117755,0.082318954,-0.069824122,9.784300804
1784243966.543985,-0.003260228,-0.008149122,0.788852513,-0.000263777,-0.000722075,-0.001139960,0.098954439,-0.030156188,9.783673286
1784243966.545860,-0.003260228,-0.008149122,0.788852513,-0.000231725,-0.000809925,-0.000848822,0.102149494,-0.026526893,9.771595001
1784243966.547862,-0.003260416,-0.008149612,0.788852513,-0.000167500,-0.000267261,0.000160994,0.093969636,-0.034127776,9.784092903
1784243966.549845,-0.003260416,-0.008149612,0.788852513,0.000129623,-0.000021728,0.001401648,0.098321542,-0.044167597,9.801964760
1784243966.551851,-0.003261140,-0.008150832,0.788852513,0.000864898,-0.000509997,0.001580486,0.066067524,-0.040096838,9.791648865
1784243966.553865,-0.003261140,-0.008150832,0.788852513,0.001710511,-0.000774837,0.001025798,0.043040026,-0.051069424,9.800971985
1784243966.555890,-0.003261140,-0.008150832,0.788852513,0.001700643,-0.000348385,0.000515859,0.071450740,-0.040175363,9.792998314
1784243966.557889,-0.003262071,-0.008151006,0.788852513,0.001278170,0.000055648,0.000324753,0.083225995,0.006230703,9.798687935
1784243966.559877,-0.003262071,-0.008151006,0.788852513,0.001308687,0.000000476,0.000815937,0.081044853,-0.024353918,9.819111824
1784243966.561877,-0.003262193,-0.008151155,0.788852513,0.001473188,-0.000134789,0.001751114,0.075855210,-0.008968400,9.807101250
1784243966.563874,-0.003262193,-0.008151155,0.788852513,0.001125303,-0.000047297,0.002270208,0.099474959,-0.022705579,9.806139946
1784243966.565841,-0.003262193,-0.008151155,0.788852513,0.001144496,-0.000017849,0.001890428,0.083771363,-0.022091368,9.811059952
1784243966.567890,-0.003261438,-0.008152277,0.788852513,0.001357938,-0.000014555,0.001289046,0.067817047,-0.043719418,9.793869019
1784243966.569891,-0.003261438,-0.008152277,0.788852513,0.001553403,0.000207168,0.000238469,0.076246768,-0.013072570,9.816490173
1784243966.571886,-0.003260261,-0.008151583,0.788852513,0.001930161,0.000136933,-0.001304012,0.080154635,-0.026311951,9.780991554
1784243966.573881,-0.003260261,-0.008151583,0.788852513,0.001166867,-0.000446560,-0.001854650,0.087098293,-0.046095159,9.778181076
1784243966.575891,-0.003260261,-0.008151583,0.788852513,-0.000094848,-0.000690447,-0.001208891,0.074083224,-0.044733986,9.799247742
1784243966.577850,-0.003260154,-0.008150944,0.788852513,-0.000849982,-0.000691552,-0.000466440,0.062529281,-0.071966752,9.806236267
1784243966.579899,-0.003260154,-0.008150944,0.788852513,-0.001219595,-0.000870090,-0.000612245,0.103643484,-0.049593043,9.799244881
1784243966.581873,-0.003261254,-0.008152209,0.788852513,-0.001338133,-0.000478695,-0.000895836,0.081243411,-0.046192113,9.802385330
1784243966.583888,-0.003261254,-0.008152209,0.788852513,-0.001370100,-0.000071259,-0.000596210,0.075090826,-0.035770364,9.797065735
1784243966.585877,-0.003261254,-0.008152209,0.788852513,-0.001089483,-0.000119043,-0.000487684,0.057096068,-0.039556146,9.794781685
1784243966.587922,-0.003262168,-0.008149849,0.788852513,-0.001100190,0.000063129,-0.000191135,0.087145187,-0.042482849,9.774169922
1784243966.589847,-0.003262168,-0.008149849,0.788852513,-0.001940244,0.000098258,-0.000211642,0.122572474,-0.042285945,9.808726311
1784243966.591876,-0.003261684,-0.008152029,0.788852513,-0.002756066,-0.000481721,-0.000916247,0.103050865,-0.025696525,9.779223442
1784243966.593857,-0.003261684,-0.008152029,0.788852513,-0.002467120,-0.001042959,-0.000905412,0.104078270,-0.014550330,9.785122871
1784243966.595850,-0.003261684,-0.008152029,0.788852513,-0.002125133,-0.000915580,-0.000515234,0.064109825,-0.015522433,9.804806709
1784243966.597891,-0.003261174,-0.008151740,0.788852513,-0.002054711,-0.000745542,-0.000772401,0.056771383,0.008339496,9.801814079
1784243966.599876,-0.003261174,-0.008151740,0.788852513,-0.001717910,-0.000914397,-0.000690145,0.049930874,-0.038542792,9.791194916
1784243966.601860,-0.003262346,-0.008149342,0.788852513,-0.001270543,-0.000664035,-0.000230681,0.090795293,-0.037188288,9.779137611
1784243966.603869,-0.003262346,-0.008149342,0.788852513,-0.000671111,-0.000338612,-0.000219668,0.075992830,-0.035340261,9.797966003
1784243966.605883,-0.003262346,-0.008149342,0.788852513,-0.000509195,-0.000405233,-0.000105463,0.106171586,-0.027922519,9.771591187
1784243966.607870,-0.003261724,-0.008151355,0.788852513,-0.000878603,-0.000341512,0.000140052,0.096948966,-0.048817191,9.765171051
1784243966.609869,-0.003261724,-0.008151355,0.788852513,-0.000712552,-0.000226570,0.000121411,0.078696094,-0.034882281,9.791694641
1784243966.611890,-0.003261596,-0.008151403,0.788852513,-0.000011420,-0.000092438,-0.000324211,0.077215061,-0.009687611,9.779749870
1784243966.613913,-0.003261596,-0.008151403,0.788852513,0.000265637,0.000133679,-0.000630445,0.075501882,-0.039315283,9.790767670
1784243966.615898,-0.003261596,-0.008151403,0.788852513,0.000196211,0.000458672,-0.000094896,0.097473584,-0.039308023,9.813203812
1784243966.617935,-0.003262276,-0.008153078,0.788852513,-0.000033797,0.000928361,0.000783658,0.079711564,-0.026261689,9.774713516
1784243966.619912,-0.003262276,-0.008153078,0.788852513,-0.000023245,0.000911719,0.000916508,0.099469379,-0.023560161,9.800304413
1784243966.621920,-0.003261762,-0.008154538,0.788852513,0.000270833,0.000521623,0.000506187,0.118423104,-0.015652487,9.788268089
1784243966.623894,-0.003261762,-0.008154538,0.788852513,0.000395556,0.000398186,0.000569062,0.113516837,-0.013330357,9.785589218
1784243966.625878,-0.003261762,-0.008154538,0.788852513,0.000286264,0.000184648,0.000577755,0.058684759,-0.057011470,9.789292336
1784243966.627889,-0.003262442,-0.008154200,0.788852513,-0.000174360,-0.000180248,0.000167125,0.082333699,-0.067276247,9.804042816
1784243966.629926,-0.003262442,-0.008154200,0.788852513,-0.000219287,-0.000288208,0.000031792,0.094453841,-0.028990103,9.816854477
1784243966.631895,-0.003260749,-0.008154394,0.788852513,0.000567358,0.000199177,0.000118178,0.050983697,-0.025169514,9.798903465
1784243966.633883,-0.003260749,-0.008154394,0.788852513,0.001018438,0.000934747,-0.000015535,0.062484190,-0.037569750,9.820803642
1784243966.635910,-0.003260749,-0.008154394,0.788852513,0.000893477,0.001418951,0.000301240,0.056849383,-0.058929760,9.810350418
1784243966.637911,-0.003261753,-0.008153291,0.788852513,0.000706153,0.001372648,0.001197548,0.080476411,-0.035019744,9.807835579
1784243966.639896,-0.003261753,-0.008153291,0.788852513,0.000327382,0.000587889,0.001466841,0.082369089,-0.025759563,9.825383186
1784243966.641889,-0.003261835,-0.008153221,0.788852513,0.000035045,-0.000031866,0.000724031,0.090709038,-0.042732336,9.802863121
1784243966.643906,-0.003261835,-0.008153221,0.788852513,0.000408742,0.000248623,0.000133756,0.073400162,-0.026819943,9.801604271
1784243966.645894,-0.003261835,-0.008153221,0.788852513,0.000593847,0.000864778,0.000211354,0.059273407,-0.044159893,9.808204651
1784243966.647917,-0.003262749,-0.008152688,0.788852513,0.000077230,0.001319116,0.000519603,0.076882407,-0.035818800,9.800652504
1784243966.649925,-0.003262749,-0.008152688,0.788852513,-0.000479306,0.001688591,0.000653829,0.096064247,-0.007873689,9.805782318
1784243966.651893,-0.003261591,-0.008153745,0.788852513,-0.000613761,0.001849268,0.000354298,0.066605188,-0.032916125,9.789005280
1784243966.653892,-0.003261591,-0.008153745,0.788852513,-0.000336182,0.001619177,0.000315273,0.069839478,-0.060488064,9.817076683
1784243966.655940,-0.003261591,-0.008153745,0.788852513,0.000129728,0.000729523,0.000156877,0.069315813,-0.031184215,9.792605400
1784243966.657895,-0.003262562,-0.008153029,0.788852513,0.000251214,-0.000146236,-0.000609992,0.075794093,-0.013908687,9.808862686
1784243966.659939,-0.003262562,-0.008153029,0.788852513,-0.000143749,-0.000277019,-0.000841658,0.054501157,-0.030648274,9.806941032
1784243966.661899,-0.003262112,-0.008151345,0.788852513,0.000020959,-0.000183496,-0.000304633,0.074749716,-0.027215198,9.791739464
1784243966.663918,-0.003262112,-0.008151345,0.788852513,0.000630975,-0.000028329,-0.000291241,0.073308565,-0.033622026,9.813218117
1784243966.665888,-0.003262112,-0.008151345,0.788852513,0.000530604,-0.000125517,-0.000265469,0.077228293,-0.008772611,9.777066231
1784243966.667891,-0.003261280,-0.008151008,0.788852513,-0.000210760,-0.000047333,0.000114109,0.116074756,-0.023340827,9.802564621
1784243966.669895,-0.003261280,-0.008151008,0.788852513,-0.000397947,0.000782329,-0.000019697,0.116050988,-0.026365267,9.786853790
1784243966.671897,-0.003261611,-0.008152951,0.788852513,-0.000336478,0.001311935,-0.000008966,0.100426279,-0.018644089,9.800336838
1784243966.673887,-0.003261611,-0.008152951,0.788852513,-0.000207086,0.001174525,0.000050227,0.087623246,-0.038609564,9.795714378
1784243966.675893,-0.003261611,-0.008152951,0.788852513,0.000116987,0.000481070,-0.000415043,0.096387029,-0.054568533,9.818933487
1784243966.677902,-0.003264331,-0.008155599,0.788852513,-0.000046623,-0.000269792,-0.001080924,0.067554273,-0.025630252,9.833886147
1784243966.679900,-0.003264331,-0.008155599,0.788852513,-0.000055044,-0.000392089,-0.000570619,0.090496078,-0.022628754,9.811511993
1784243966.681932,-0.003263967,-0.008156129,0.788852513,0.000211372,-0.000218116,0.000452896,0.108690321,-0.039458115,9.814109802
1784243966.683907,-0.003263967,-0.008156129,0.788852513,0.000262794,-0.000067304,0.000458299,0.088513866,-0.001895228,9.797742844
1784243966.685897,-0.003263967,-0.008156129,0.788852513,0.000087029,0.000369399,0.000373459,0.073432744,-0.022915473,9.819562912
1784243966.687937,-0.003262243,-0.008156401,0.788852513,0.000047995,0.000648029,0.000726766,0.087744877,-0.063891925,9.822453499
1784243966.689906,-0.003262243,-0.008156401,0.788852513,-0.000020107,0.000457446,0.000656959,0.093426332,-0.041353002,9.793011665
1784243966.691901,-0.003262840,-0.008157097,0.788852513,0.000060631,0.000554401,0.000084123,0.102019750,-0.035251185,9.801577568
1784243966.693912,-0.003262840,-0.008157097,0.788852513,0.000338325,0.000855112,-0.000078827,0.084296197,-0.015822487,9.810651779
1784243966.695915,-0.003262840,-0.008157097,0.788852513,0.000046761,0.000609863,0.000069872,0.066566311,0.001935205,9.802679062
1784243966.697907,-0.003261792,-0.008156321,0.788852513,-0.000745000,0.000295336,-0.000130362,0.070776246,-0.020977851,9.803881645
1784243966.699917,-0.003261792,-0.008156321,0.788852513,-0.001101005,0.000476148,-0.000002817,0.089275964,-0.052722488,9.761103630
1784243966.701908,-0.003262857,-0.008156863,0.788852513,-0.000475310,0.000543662,0.000199457,0.113153338,-0.079726569,9.798165321
1784243966.703910,-0.003262857,-0.008156863,0.788852513,0.000339061,0.000126203,-0.000503654,0.082990579,-0.050643843,9.795184135
1784243966.705909,-0.003262857,-0.008156863,0.788852513,0.000657362,-0.000464595,-0.000747120,0.092581525,-0.000904781,9.777131081
1784243966.707908,-0.003261796,-0.008156911,0.788852513,0.000723014,-0.001042167,-0.000113235,0.093399748,-0.006809730,9.786957741
1784243966.709912,-0.003261796,-0.008156911,0.788852513,0.001063144,-0.001248313,0.000061375,0.111633368,-0.018870497,9.812004089
1784243966.711925,-0.003261583,-0.008157936,0.788852513,0.001575542,-0.000549402,-0.000781070,0.078644142,-0.038129289,9.807364464
1784243966.713918,-0.003261583,-0.008157936,0.788852513,0.001860674,0.000246470,-0.001032289,0.085005611,-0.030286394,9.827149391
1784243966.715916,-0.003261583,-0.008157936,0.788852513,0.001821245,-0.000129575,-0.000480893,0.061650530,-0.033002332,9.810071945
1784243966.717918,-0.003261834,-0.008157119,0.788852513,0.001586981,-0.001118394,-0.000552864,0.087340422,-0.025136372,9.791766167
1784243966.719936,-0.003261834,-0.008157119,0.788852513,0.001185428,-0.001493157,-0.000784253,0.074247211,-0.070492543,9.766802788
1784243966.721931,-0.003264204,-0.008156860,0.788852513,0.000699204,-0.001278322,-0.000914304,0.079483822,-0.042649020,9.811371803
1784243966.723925,-0.003264204,-0.008156860,0.788852513,0.000184468,-0.000921984,-0.001026238,0.089040875,-0.032793790,9.794408798
1784243966.725923,-0.003264204,-0.008156860,0.788852513,-0.000242543,-0.000341170,-0.000564520,0.084694937,-0.021896195,9.781920433
1784243966.727934,-0.003264193,-0.008156896,0.788852513,-0.000032828,-0.000142647,0.000258812,0.065979786,-0.009683781,9.799465179
1784243966.729938,-0.003264193,-0.008156896,0.788852513,0.000675319,-0.000559554,0.000459215,0.063539714,-0.025390912,9.807432175
1784243966.731939,-0.003264176,-0.008155972,0.788852513,0.000994406,-0.000785826,0.000063771,0.078989342,-0.009872766,9.802616119
1784243966.733961,-0.003264176,-0.008155972,0.788852513,0.000417232,-0.000651843,-0.000566912,0.081944734,-0.025156409,9.804312706
1784243966.735951,-0.003264176,-0.008155972,0.788852513,0.000018070,-0.000143696,-0.000500534,0.089210965,-0.056477878,9.785288811
1784243966.737944,-0.003266051,-0.008156896,0.788852513,0.000324220,0.000518396,0.000795971,0.070258670,-0.027189501,9.796217918
1784243966.739986,-0.003266051,-0.008156896,0.788852513,0.000221042,0.000827237,0.001251578,0.059716299,-0.009863654,9.773007393
1784243966.741962,-0.003264916,-0.008155475,0.788852513,0.000159608,0.000498419,0.000876399,0.068465076,-0.027156960,9.794872284
1784243966.743962,-0.003264916,-0.008155475,0.788852513,0.000470614,-0.000302379,0.000510263,0.088820904,-0.013150879,9.804845810
1784243966.745956,-0.003264916,-0.008155475,0.788852513,0.000514589,-0.001045887,0.000260407,0.087350041,-0.024249986,9.793116570
1784243966.747957,-0.003263998,-0.008155284,0.788852513,0.000168342,-0.001369890,0.000476141,0.110866010,-0.008511377,9.805792809
1784243966.749955,-0.003263998,-0.008155284,0.788852513,-0.000512491,-0.001150215,0.000454641,0.113423631,-0.020145169,9.798995018
1784243966.751953,-0.003263404,-0.008157743,0.788852513,-0.000716644,-0.000811790,0.000187710,0.117634445,-0.043861926,9.787190437
1784243966.753956,-0.003263404,-0.008157743,0.788852513,-0.000651295,-0.000872439,-0.000188635,0.089713804,-0.049977247,9.815369606
1784243966.755956,-0.003263404,-0.008157743,0.788852513,-0.001198919,-0.000836658,-0.000716025,0.096258312,-0.028936790,9.806096077
1784243966.757953,-0.003264108,-0.008158986,0.788852513,-0.001544078,-0.000724829,-0.000503949,0.057311099,-0.057617061,9.813944817
1784243966.759963,-0.003264108,-0.008158986,0.788852513,-0.001402851,-0.000940564,0.000461845,0.054091867,-0.029520852,9.775116920
1784243966.761964,-0.003263610,-0.008156878,0.788852513,-0.001588261,-0.001074624,0.000840154,0.065065980,-0.011422792,9.793624878
1784243966.763963,-0.003263610,-0.008156878,0.788852513,-0.001612339,-0.001027053,0.000719594,0.088320643,0.018364161,9.784424782
1784243966.765975,-0.003263610,-0.008156878,0.788852513,-0.001121687,-0.000800329,0.000705852,0.084894441,-0.004921366,9.788753510
1784243966.767968,-0.003261012,-0.008157082,0.788852513,-0.001158529,-0.000342039,0.000552433,0.057685990,0.010084870,9.806756020
1784243966.769969,-0.003261012,-0.008157082,0.788852513,-0.001202884,-0.000006552,0.000205977,0.085252978,-0.012123111,9.792742729
1784243966.771974,-0.003259976,-0.008157766,0.788852513,-0.000549915,0.000121023,0.000188698,0.091920316,-0.053945430,9.802345276
1784243966.773976,-0.003259976,-0.008157766,0.788852513,-0.000039269,0.000228041,0.000753903,0.083035752,-0.045424115,9.817186356
1784243966.775976,-0.003259976,-0.008157766,0.788852513,0.000081787,0.000454251,0.000913351,0.058078405,-0.032412983,9.796622276
1784243966.777990,-0.003260810,-0.008157110,0.788852513,0.000044658,0.000606048,0.000433526,0.066520661,-0.037230767,9.828879356
1784243966.779992,-0.003260810,-0.008157110,0.788852513,0.000102806,0.000317405,0.000460977,0.089115329,-0.025721796,9.807903290
1784243966.782017,-0.003260048,-0.008157914,0.788852513,0.000434239,0.000156019,0.000806640,0.097749382,-0.015651934,9.825461388
1784243966.783991,-0.003260048,-0.008157914,0.788852513,0.000769679,0.000291640,0.000698975,0.113854498,-0.021507517,9.800780296
1784243966.785985,-0.003260048,-0.008157914,0.788852513,0.000992110,-0.000039203,0.000275129,0.084411144,-0.046425942,9.766518593
1784243966.787978,-0.003260979,-0.008158344,0.788852513,0.001150034,-0.000710716,-0.000270717,0.071945079,-0.035768274,9.802442551
1784243966.789979,-0.003260979,-0.008158344,0.788852513,0.000997702,-0.000837261,-0.000630660,0.050657444,-0.015686633,9.789100647
1784243966.791986,-0.003260426,-0.008156848,0.788852513,0.000327224,-0.000850974,-0.000965534,0.081389517,-0.034907237,9.790352821
1784243966.793990,-0.003260426,-0.008156848,0.788852513,-0.000417894,-0.001269853,-0.001591261,0.083770603,-0.060497772,9.793328285
1784243966.795987,-0.003260426,-0.008156848,0.788852513,-0.000594225,-0.001076415,-0.001809062,0.069858812,-0.060335450,9.795557976
1784243966.797983,-0.003262450,-0.008156389,0.788852513,-0.000933789,-0.000218233,-0.001151736,0.061877012,-0.015814463,9.786869049
1784243966.799989,-0.003262450,-0.008156389,0.788852513,-0.001187205,-0.000010958,-0.000025353,0.081206180,-0.014974982,9.759993553
1784243966.801989,-0.003261761,-0.008156100,0.788852513,-0.000524338,-0.000154872,0.000433872,0.084439300,-0.004966489,9.795926094
1784243966.803988,-0.003261761,-0.008156100,0.788852513,0.000380707,0.000206926,0.000248181,0.054437749,-0.037227795,9.787172318
1784243966.805986,-0.003261761,-0.008156100,0.788852513,0.000425365,0.000582237,0.000581900,0.064857565,-0.027657505,9.808763504
1784243966.808003,-0.003261907,-0.008154801,0.788852513,-0.000578214,0.000467517,0.001362756,0.080624454,-0.060498863,9.799154282
1784243966.810022,-0.003261907,-0.008154801,0.788852513,-0.001383533,0.000134859,0.001587112,0.073034652,-0.058478918,9.780776978
1784243966.812006,-0.003263002,-0.008154369,0.788852513,-0.001495063,0.000145364,0.000777918,0.069626696,-0.042814694,9.789393425
1784243966.813998,-0.003263002,-0.008154369,0.788852513,-0.001375317,0.000366287,0.000280196,0.070066951,-0.042887222,9.798808098
1784243966.816008,-0.003263002,-0.008154369,0.788852513,-0.001163048,0.000522005,0.000549593,0.065762214,-0.027611770,9.800696373
1784243966.818006,-0.003262941,-0.008153317,0.788852513,-0.001156555,0.000278054,0.000581154,0.083275937,-0.025291301,9.820901871
1784243966.820017,-0.003262941,-0.008153317,0.788852513,-0.001678029,-0.000143874,0.000258964,0.090158477,-0.052851629,9.777690887
1784243966.822004,-0.003263707,-0.008153633,0.788852513,-0.002254797,-0.000304020,-0.000155758,0.076091975,-0.026857616,9.802055359
1784243966.824048,-0.003263707,-0.008153633,0.788852513,-0.002315069,-0.000603894,-0.000566639,0.085881375,-0.034926567,9.784976959
1784243966.826019,-0.003263707,-0.008153633,0.788852513,-0.001782258,-0.000973226,-0.000757575,0.079175115,-0.033432856,9.776013374
1784243966.828021,-0.003263655,-0.008153711,0.788852513,-0.001414599,-0.001300705,-0.000138852,0.075375766,-0.013257840,9.781069756
1784243966.830035,-0.003263655,-0.008153711,0.788852513,-0.001563196,-0.001501327,0.000726623,0.111391097,-0.043882817,9.738317490
1784243966.832021,-0.003264507,-0.008154832,0.788852513,-0.001270559,-0.001486267,0.000780990,0.074947543,-0.047032978,9.805960655
1784243966.834081,-0.003264507,-0.008154832,0.788852513,-0.000401342,-0.001066617,0.000535085,0.113673307,-0.000342667,9.786121368
1784243966.836031,-0.003264507,-0.008154832,0.788852513,0.000219969,-0.000237474,0.000142222,0.109931193,-0.012442500,9.793212891
1784243966.838052,-0.003263728,-0.008156012,0.788852513,0.000434762,0.000099456,-0.000199995,0.069523484,-0.012929097,9.808414459
1784243966.840039,-0.003263728,-0.008156012,0.788852513,0.000276956,-0.000229451,-0.000164168,0.081889711,-0.030859074,9.787240028
1784243966.842028,-0.003263866,-0.008156113,0.788852513,-0.000360572,-0.000318985,-0.000210270,0.110901609,-0.042578071,9.807816505
1784243966.844027,-0.003263866,-0.008156113,0.788852513,-0.001057695,-0.000200712,-0.000405668,0.108494222,-0.056000877,9.809520721
1784243966.846034,-0.003263866,-0.008156113,0.788852513,-0.001438487,-0.000167152,-0.000999400,0.084356830,-0.047665268,9.814929962
1784243966.848045,-0.003264284,-0.008156469,0.788852513,-0.001536180,-0.000217414,-0.001305695,0.048765164,-0.022106793,9.813266754
1784243966.850042,-0.003264284,-0.008156469,0.788852513,-0.001245592,-0.000082476,-0.000787173,0.070693448,-0.029736754,9.775580406
1784243966.852034,-0.003264307,-0.008156464,0.788852513,-0.000377674,0.000442501,-0.000694845,0.087870292,-0.015585860,9.833969116
1784243966.854038,-0.003264307,-0.008156464,0.788852513,0.000285861,0.000322066,-0.000865010,0.070980355,-0.003561418,9.811614990
1784243966.856064,-0.003264307,-0.008156464,0.788852513,0.000236144,-0.000552440,-0.000903945,0.055440910,-0.028299147,9.789921761
1784243966.858050,-0.003263657,-0.008155487,0.788852513,-0.000231659,-0.000986420,-0.001004070,0.081399992,-0.034824565,9.778695107
1784243966.860177,-0.003263657,-0.008155487,0.788852513,-0.000456460,-0.000497067,-0.000548836,0.084239148,-0.059131023,9.789302826
1784243966.862161,-0.003264480,-0.008155539,0.788852513,0.000467804,0.000153566,-0.000195783,0.072491132,-0.065300688,9.795976639
1784243966.864141,-0.003264480,-0.008155539,0.788852513,0.001302842,0.000413242,-0.000499131,0.066327140,-0.056184668,9.785267830
1784243966.866148,-0.003264480,-0.008155539,0.788852513,0.001061536,0.000699357,-0.000359890,0.091235526,-0.037260801,9.788553238
1784243966.868100,-0.003264953,-0.008155588,0.788852513,0.000795022,0.000995442,0.000283444,0.103456885,-0.028876156,9.784583092
1784243966.870125,-0.003264953,-0.008155588,0.788852513,0.000795366,0.000847838,0.000948960,0.059064995,-0.025641473,9.787699699
1784243966.872096,-0.003265104,-0.008154470,0.788852513,0.000686272,0.000704274,0.001631978,0.073456906,-0.022724699,9.792664528
1784243966.874081,-0.003265104,-0.008154470,0.788852513,0.000286787,0.001072005,0.001987258,0.085612491,-0.018911870,9.801667213
1784243966.876111,-0.003265104,-0.008154470,0.788852513,0.000341551,0.001429480,0.001705569,0.114508092,-0.041680448,9.801100731
1784243966.878074,-0.003265386,-0.008155990,0.788852513,0.000849603,0.001434963,0.001156701,0.100584410,-0.041206881,9.822608948
1784243966.880076,-0.003265386,-0.008155990,0.788852513,0.001072980,0.001207656,0.000574817,0.083634011,-0.034522992,9.795288086
1784243966.882108,-0.003265416,-0.008156106,0.788852513,0.001000007,0.000885381,-0.000301623,0.072571866,-0.020994484,9.802985191
1784243966.884079,-0.003265416,-0.008156106,0.788852513,0.000497550,0.000907330,-0.000921331,0.071617156,-0.025488038,9.806543350
1784243966.886067,-0.003265416,-0.008156106,0.788852513,-0.000085223,0.001066219,-0.000812725,0.085240781,-0.013435198,9.788251877
1784243966.888070,-0.003264428,-0.008156369,0.788852513,-0.000150585,0.000979440,-0.000625853,0.082387321,-0.027236622,9.780986786
1784243966.890087,-0.003264428,-0.008156369,0.788852513,0.000578042,0.000764855,-0.000651795,0.075679339,-0.061725453,9.791519165
1784243966.892077,-0.003266718,-0.008156087,0.788852513,0.001341225,0.000424263,-0.000382522,0.087637745,-0.073248230,9.815218925
1784243966.894075,-0.003266718,-0.008156087,0.788852513,0.001299709,0.000180374,0.000173751,0.094184533,-0.053405389,9.785314560
1784243966.896072,-0.003266718,-0.008156087,0.788852513,0.000614817,-0.000297440,0.000774848,0.053086054,-0.038065128,9.781338692
1784243966.898076,-0.003267719,-0.008154442,0.788852513,-0.000117699,-0.000551791,0.001014322,0.045731731,-0.014733832,9.789999008
1784243966.900084,-0.003267719,-0.008154442,0.788852513,-0.000482138,-0.000179824,0.001011631,0.095393308,-0.028264297,9.776061058
1784243966.902078,-0.003267292,-0.008154494,0.788852513,-0.000405639,0.000048585,0.001479325,0.091629632,-0.040129200,9.813194275
1784243966.904080,-0.003267292,-0.008154494,0.788852513,0.000079725,-0.000133077,0.002053452,0.099454135,-0.024491068,9.805231094
1784243966.906089,-0.003267292,-0.008154494,0.788852513,0.000521132,-0.000675474,0.001675272,0.079275660,-0.021697206,9.826749802
1784243966.908090,-0.003267140,-0.008153398,0.788852513,0.000791531,-0.000852180,0.001094027,0.127452508,-0.046841521,9.810495377
1784243966.910090,-0.003267140,-0.008153398,0.788852513,0.000829392,-0.000514977,0.001286701,0.103659324,-0.045415498,9.841863632
1784243966.912084,-0.003268209,-0.008154303,0.788852513,0.000515828,-0.000067106,0.001337387,0.063309148,-0.041800499,9.847229004
1784243966.914086,-0.003268209,-0.008154303,0.788852513,-0.000039002,0.000102683,0.001047989,0.061818838,-0.019515803,9.803432465
1784243966.916092,-0.003268209,-0.008154303,0.788852513,-0.000371458,0.000206602,0.000999635,0.110778198,-0.014878222,9.819202423
1784243966.918088,-0.003267694,-0.008154981,0.788852513,0.000168635,0.000758854,0.001130775,0.097508095,-0.037414424,9.798869133
1784243966.920101,-0.003267694,-0.008154981,0.788852513,0.000468288,0.000925971,0.001585885,0.085602082,-0.019804614,9.801213264
1784243966.922095,-0.003267098,-0.008155235,0.788852513,-0.000224378,0.000322116,0.001496746,0.087347515,-0.022648919,9.820026398
1784243966.924091,-0.003267098,-0.008155235,0.788852513,-0.000670011,0.000068653,0.000277626,0.092500098,-0.044000648,9.788960457
1784243966.926100,-0.003267098,-0.008155235,0.788852513,-0.000339528,0.000290372,-0.000516926,0.088278644,-0.020773182,9.806589127
1784243966.928097,-0.003266564,-0.008155439,0.788852513,-0.000010549,0.000480409,-0.000030393,0.077233352,-0.043891024,9.801051140
1784243966.930103,-0.003266564,-0.008155439,0.788852513,-0.000209194,0.000279819,0.000610285,0.080403149,-0.042082191,9.792995453
1784243966.932099,-0.003266511,-0.008155054,0.788852513,-0.000446831,-0.000274307,0.000262260,0.096620820,-0.038133513,9.775551796
1784243966.934144,-0.003266511,-0.008155054,0.788852513,-0.000181687,-0.000409067,-0.000584788,0.082985803,-0.016738946,9.752810478
1784243966.936117,-0.003266511,-0.008155054,0.788852513,0.000521954,0.000005692,-0.000620526,0.086154521,-0.013722956,9.764040947
1784243966.938114,-0.003265909,-0.008155181,0.788852513,0.001108465,0.000591156,-0.000013052,0.092678189,-0.029221114,9.789502144
1784243966.940149,-0.003265909,-0.008155181,0.788852513,0.001352646,0.000698748,-0.000078032,0.083254077,-0.026679702,9.827170372
1784243966.942120,-0.003265534,-0.008155200,0.788852513,0.001560951,0.000149595,-0.000580113,0.050792374,-0.040864054,9.801043510
1784243966.944118,-0.003265534,-0.008155200,0.788852513,0.000861670,-0.000314606,-0.000730961,0.083692811,-0.028385086,9.814157486
1784243966.946117,-0.003265534,-0.008155200,0.788852513,-0.000424273,-0.000519622,-0.000642774,0.087650530,-0.033936363,9.831610680
1784243966.948121,-0.003264961,-0.008155446,0.788852513,-0.000621096,-0.000732722,-0.000288882,0.068910778,-0.027591592,9.792181015
1784243966.950122,-0.003264961,-0.008155446,0.788852513,-0.000056744,-0.000608824,0.000170175,0.080336057,-0.010290284,9.795888901
1784243966.952118,-0.003264375,-0.008155766,0.788852513,-0.000365023,-0.000186159,0.000396991,0.068048768,-0.023653382,9.807001114
1784243966.954126,-0.003264375,-0.008155766,0.788852513,-0.001348476,0.000113591,0.000290196,0.092850745,-0.016106229,9.772102356
1784243966.956118,-0.003264375,-0.008155766,0.788852513,-0.001307397,0.000074124,-0.000166924,0.081886850,-0.030071262,9.802488327
1784243966.958118,-0.003264087,-0.008156336,0.788852513,-0.000828108,-0.000228687,-0.000627107,0.089026436,-0.033718321,9.798436165
1784243966.960129,-0.003264087,-0.008156336,0.788852513,-0.000802971,-0.000319682,-0.000980190,0.091412060,-0.058057185,9.814422607
1784243966.962122,-0.003265161,-0.008156613,0.788852513,-0.000854397,-0.000221123,-0.001579584,0.065276742,-0.031948902,9.781388283
1784243966.964122,-0.003265161,-0.008156613,0.788852513,-0.001255853,-0.000344055,-0.001909589,0.075286850,-0.058844335,9.765086174
1784243966.966134,-0.003265161,-0.008156613,0.788852513,-0.001712867,-0.000454041,-0.001464400,0.071231000,-0.020935902,9.797157288
1784243966.968126,-0.003265049,-0.008156210,0.788852513,-0.001518984,-0.000323411,-0.001210281,0.079427622,-0.010771262,9.802162170
1784243966.970138,-0.003265049,-0.008156210,0.788852513,-0.000982160,-0.000553068,-0.001585945,0.061827876,-0.019039223,9.799402237
1784243966.972133,-0.003264769,-0.008155446,0.788852513,-0.000664968,-0.000793563,-0.001535205,0.064228930,-0.007287433,9.780649185
1784243966.974138,-0.003264769,-0.008155446,0.788852513,-0.000504983,-0.000737325,-0.000955511,0.085659891,-0.016916530,9.772986412
1784243966.976134,-0.003264769,-0.008155446,0.788852513,-0.000266992,-0.001130754,-0.000354919,0.090011761,-0.026146276,9.802969933
1784243966.978140,-0.003265144,-0.008156407,0.788852513,-0.000057958,-0.001506526,-0.000116404,0.064303681,-0.036182091,9.811399460
1784243966.980149,-0.003265144,-0.008156407,0.788852513,-0.000223479,-0.001162327,-0.000354902,0.068090476,-0.058482446,9.790187836
1784243966.982149,-0.003266060,-0.008155583,0.788852513,-0.000574347,-0.000529455,-0.000797659,0.072517373,-0.025477273,9.803405762
1784243966.984142,-0.003266060,-0.008155583,0.788852513,-0.000380891,-0.000343244,-0.001121021,0.058480788,-0.035621233,9.806017876
1784243966.986147,-0.003266060,-0.008155583,0.788852513,0.000047119,-0.000338784,-0.001013877,0.069368288,-0.026717320,9.794427872
1784243966.988147,-0.003266567,-0.008154447,0.788852513,0.000703095,-0.000180019,-0.000483115,0.089572042,0.009899249,9.775403976
1784243966.990145,-0.003266567,-0.008154447,0.788852513,0.000889336,-0.000224759,0.000154908,0.080016360,-0.037129793,9.790335655
1784243966.992144,-0.003266687,-0.008154348,0.788852513,0.000233335,-0.000029061,0.000005953,0.079143651,-0.032870799,9.823091507
1784243966.994147,-0.003266687,-0.008154348,0.788852513,0.000082632,0.000131959,-0.000751801,0.066415928,-0.049404841,9.776795387
1784243966.996152,-0.003266687,-0.008154348,0.788852513,0.000434500,-0.000407231,-0.000729084,0.072676875,-0.050460741,9.788001060
1784243966.998147,-0.003268159,-0.008153705,0.788852513,0.000654627,-0.000659736,-0.000043893,0.083502576,-0.045286782,9.797012329
1784243967.000150,-0.003268159,-0.008153705,0.788852513,0.000368829,-0.000281451,0.000547944,0.085695915,-0.048143197,9.816722870
1784243967.002172,-0.003269254,-0.008153854,0.788852394,0.000036369,0.000211346,0.000998155,0.089617036,-0.020040777,9.827218056
1784243967.004164,-0.003269254,-0.008153854,0.788852394,0.000265277,0.000637924,0.001218944,0.071348444,-0.011903546,9.786902428
1784243967.006160,-0.003269254,-0.008153854,0.788852394,0.000519315,0.000589749,0.001052992,0.075017177,-0.005246026,9.789191246
1784243967.008158,-0.003267393,-0.008153269,0.788852513,0.000610649,0.000162118,0.000532623,0.071248837,-0.019579303,9.795372963
1784243967.010168,-0.003267393,-0.008153269,0.788852513,0.000495135,-0.000220659,0.000351422,0.074931666,-0.047563620,9.817611694
1784243967.012163,-0.003268594,-0.008153360,0.788852513,-0.000057757,-0.000403571,0.000074795,0.106144272,-0.028948808,9.789965630
1784243967.014163,-0.003268594,-0.008153360,0.788852513,-0.000893201,-0.000511501,-0.000560515,0.108217746,-0.043693502,9.780458450
1784243967.016166,-0.003268594,-0.008153360,0.788852513,-0.001488871,-0.000935903,-0.000429527,0.079628192,-0.067346685,9.818836212
1784243967.018181,-0.003270964,-0.008153824,0.788852394,-0.001454526,-0.001359670,-0.000081273,0.071962215,-0.036038175,9.777334213
1784243967.020170,-0.003270964,-0.008153824,0.788852394,-0.001042408,-0.001111037,-0.000401512,0.090897016,-0.028279936,9.786367416
1784243967.022175,-0.003271085,-0.008154537,0.788852394,-0.000811038,-0.000535289,-0.000289728,0.110198759,-0.026846595,9.802086830
1784243967.024170,-0.003271085,-0.008154537,0.788852394,-0.001442552,-0.000381429,0.000474922,0.082917973,-0.020516600,9.780134201
1784243967.026173,-0.003271085,-0.008154537,0.788852394,-0.002067435,-0.000623014,0.000289606,0.085573822,-0.022053957,9.802543640
1784243967.028176,-0.003270505,-0.008155745,0.788852394,-0.001544180,-0.000786466,-0.000674154,0.068777286,-0.037561208,9.808256149
1784243967.030174,-0.003270505,-0.008155745,0.788852394,-0.000527143,-0.000589516,-0.001192954,0.094129831,-0.019894769,9.798529625
1784243967.032179,-0.003269965,-0.008156314,0.788852513,0.000283887,-0.000609897,-0.001391177,0.048037276,-0.008599223,9.805284500
1784243967.034230,-0.003269965,-0.008156314,0.788852513,0.000438555,-0.000765805,-0.001248231,0.064228408,-0.043260444,9.798799515
1784243967.036201,-0.003269965,-0.008156314,0.788852513,0.000138718,-0.000533947,-0.000980361,0.073517889,-0.019001102,9.772961617
1784243967.038232,-0.003269767,-0.008155878,0.788852513,-0.000085559,-0.000869950,-0.000625576,0.071039267,-0.001880492,9.764102936
1784243967.040198,-0.003269767,-0.008155878,0.788852513,-0.000202632,-0.001835525,-0.000316906,0.051692363,-0.040449850,9.804185867
1784243967.042191,-0.003270703,-0.008154592,0.788852394,0.000024175,-0.002197659,-0.000522889,0.092715248,-0.026091741,9.790419579
1784243967.044195,-0.003270703,-0.008154592,0.788852394,0.000343739,-0.001528283,-0.000486983,0.096385017,-0.019831311,9.785531998
1784243967.046208,-0.003270703,-0.008154592,0.788852394,-0.000055698,-0.000944943,-0.000280780,0.113032348,-0.052007638,9.806859970
1784243967.048198,-0.003271479,-0.008157228,0.788852394,-0.000568031,-0.001001366,-0.000494632,0.059736725,-0.042834476,9.810006142
1784243967.050205,-0.003271479,-0.008157228,0.788852394,-0.000452360,-0.000993300,-0.000721578,0.033410318,-0.029987335,9.814995766
1784243967.052204,-0.003271197,-0.008155715,0.788852394,-0.000200550,-0.000574364,-0.001028753,0.067622565,-0.022659497,9.794003487
1784243967.054196,-0.003271197,-0.008155715,0.788852394,-0.000069418,-0.000141175,-0.001486570,0.057619810,-0.032080106,9.813660622
1784243967.056201,-0.003271197,-0.008155715,0.788852394,-0.000070333,-0.000242528,-0.001172695,0.098512240,-0.028072791,9.806551933
1784243967.058203,-0.003270996,-0.008157305,0.788852394,0.000105653,-0.000556353,-0.000277181,0.081614673,-0.016108766,9.792714119
1784243967.060208,-0.003270996,-0.008157305,0.788852394,0.000450918,-0.000804537,0.000249065,0.083415300,-0.015680622,9.792269707
1784243967.062209,-0.003270017,-0.008157494,0.788852513,0.000539467,-0.001019245,0.000577827,0.090773374,-0.037766609,9.797515869
1784243967.064207,-0.003270017,-0.008157494,0.788852513,0.000260966,-0.001153185,0.000690544,0.064871259,-0.027549392,9.793521881
1784243967.066213,-0.003270017,-0.008157494,0.788852513,-0.000231211,-0.001230194,0.000862571,0.081890173,-0.031665970,9.774681091
1784243967.068212,-0.003269853,-0.008157494,0.788852513,-0.000389738,-0.001093005,0.001404477,0.067980923,-0.030267863,9.792162895
1784243967.070212,-0.003269853,-0.008157494,0.788852513,0.000602752,-0.000624372,0.001369821,0.071360342,-0.046967920,9.803266525
1784243967.072209,-0.003271017,-0.008157713,0.788852394,0.001871921,-0.000069223,0.000750924,0.104420409,-0.023502581,9.783273697
1784243967.074218,-0.003271017,-0.008157713,0.788852394,0.001942219,0.000017766,0.000730181,0.114490315,-0.006257154,9.797292709
1784243967.076216,-0.003271017,-0.008157713,0.788852394,0.001159918,-0.000124650,0.000514029,0.077373981,-0.032244038,9.801125526
1784243967.078218,-0.003271605,-0.008158672,0.788852394,0.000631554,0.000134901,-0.000255107,0.059025068,-0.027983028,9.802032471
1784243967.080217,-0.003271605,-0.008158672,0.788852394,0.001112284,0.000274111,-0.000074192,0.068323582,-0.038000241,9.807804108
1784243967.082222,-0.003272485,-0.008158153,0.788852394,0.002018725,0.000026214,0.000273162,0.077409081,-0.029940637,9.792173386
1784243967.084223,-0.003272485,-0.008158153,0.788852394,0.002010255,-0.000251840,-0.000016955,0.084789366,-0.049824972,9.802812576
1784243967.086221,-0.003272485,-0.008158153,0.788852394,0.001374928,-0.000210859,-0.000679240,0.070342921,-0.018824505,9.816896439
1784243967.088304,-0.003271944,-0.008158909,0.788852394,0.001380927,-0.000311723,-0.001215846,0.062714182,-0.018733121,9.817786217
1784243967.090238,-0.003271944,-0.008158909,0.788852394,0.001743393,-0.000555482,-0.000885065,0.082478315,-0.017197430,9.818263054
1784243967.092234,-0.003270312,-0.008158955,0.788852513,0.001559466,-0.000210457,0.000044073,0.103540726,-0.020514341,9.805707932
1784243967.094234,-0.003270312,-0.008158955,0.788852513,0.001045921,0.000027758,0.000593902,0.077791385,-0.034117937,9.811873436
1784243967.096232,-0.003270312,-0.008158955,0.788852513,0.000782432,0.000293087,0.000507735,0.099981032,-0.019016357,9.790472031
1784243967.098238,-0.003270144,-0.008159468,0.788852513,0.000667957,0.000918739,0.000248926,0.124462672,-0.000318481,9.763267517
1784243967.100237,-0.003270144,-0.008159468,0.788852513,0.000453610,0.000997174,0.000184438,0.093558982,0.007010300,9.796460152
1784243967.102237,-0.003268893,-0.008159804,0.788852513,0.000128311,0.000567170,0.000621875,0.099677451,-0.008138712,9.773505211
1784243967.104237,-0.003268893,-0.008159804,0.788852513,0.000109935,0.000325769,0.000580255,0.066222124,-0.064308383,9.793734550
1784243967.106243,-0.003268893,-0.008159804,0.788852513,0.000226724,0.000315260,-0.000225165,0.077404991,-0.066752322,9.802248001
1784243967.108242,-0.003271355,-0.008160296,0.788852513,-0.000356308,0.000351913,-0.000993237,0.063743398,-0.045567628,9.809095383
1784243967.110241,-0.003271355,-0.008160296,0.788852513,-0.000964436,0.000233942,-0.001120624,0.069824301,-0.027475910,9.774249077
1784243967.112271,-0.003271373,-0.008159674,0.788852513,-0.000958614,0.000047632,-0.000310680,0.052018393,-0.014776163,9.784624100
1784243967.114254,-0.003271373,-0.008159674,0.788852513,-0.000752747,0.000109274,0.000028051,0.083235942,-0.029659629,9.805183411
1784243967.116251,-0.003271373,-0.008159674,0.788852513,-0.000435984,0.000337796,-0.000608438,0.094179846,-0.014636883,9.815152168
1784243967.118278,-0.003270619,-0.008160823,0.788852513,-0.000113638,0.000628836,-0.000999066,0.089850076,-0.039175306,9.808265686
1784243967.120263,-0.003270619,-0.008160823,0.788852513,0.000498880,0.000779243,-0.000705721,0.089300789,-0.009668329,9.818317413
1784243967.122257,-0.003269734,-0.008160972,0.788852513,0.000959576,0.000564450,-0.000457702,0.068562090,-0.019906916,9.783262253
1784243967.124311,-0.003269734,-0.008160972,0.788852513,0.000460790,0.000112425,-0.000514669,0.062571652,-0.029179314,9.837893486
1784243967.126264,-0.003269734,-0.008160972,0.788852513,-0.000026265,0.000001782,-0.000771768,0.076889031,-0.035361297,9.799311638
1784243967.128260,-0.003269601,-0.008160350,0.788852513,-0.000068854,0.000262787,-0.001444062,0.107245080,-0.047923513,9.810019493
1784243967.130266,-0.003269601,-0.008160350,0.788852513,-0.000263766,0.000416702,-0.001609351,0.089884304,-0.036068190,9.812320709
1784243967.132259,-0.003269721,-0.008160192,0.788852513,-0.000680698,0.000329706,-0.001063392,0.086815037,0.005774908,9.793309212
1784243967.134261,-0.003269721,-0.008160192,0.788852513,-0.000713368,0.000228074,-0.000773759,0.056706425,0.003774032,9.813889503
1784243967.136266,-0.003269721,-0.008160192,0.788852513,-0.000665781,0.000063381,-0.000581208,0.063887715,-0.034702092,9.793026924
1784243967.138265,-0.003270346,-0.008159658,0.788852513,-0.000814338,-0.000165826,0.000081666,0.066286065,-0.021755863,9.795353889
1784243967.140268,-0.003270346,-0.008159658,0.788852513,-0.000610250,0.000079031,0.000368783,0.083093815,-0.042939477,9.782680511
1784243967.142265,-0.003271246,-0.008160187,0.788852513,-0.000297361,0.000206952,-0.000288562,0.120611019,-0.059383672,9.759297371
1784243967.144266,-0.003271246,-0.008160187,0.788852513,-0.000035583,0.000031337,-0.001021600,0.100110665,-0.046261877,9.778191566
1784243967.146274,-0.003271246,-0.008160187,0.788852513,0.000264178,0.000061231,-0.001067159,0.112473100,-0.027037133,9.761739731
1784243967.148273,-0.003271493,-0.008161701,0.788852513,0.000823761,-0.000101549,-0.000956420,0.081147894,-0.019893013,9.758616447
1784243967.150273,-0.003271493,-0.008161701,0.788852513,0.001358076,-0.000273725,-0.001164674,0.069155969,-0.007014002,9.796347618
1784243967.152273,-0.003270828,-0.008161765,0.788852513,0.001062601,-0.000140888,-0.001135516,0.066085011,-0.039553482,9.778202057
1784243967.154281,-0.003270828,-0.008161765,0.788852513,0.000304556,0.000013187,-0.000699626,0.067678548,-0.054133810,9.809493065
1784243967.156285,-0.003270828,-0.008161765,0.788852513,0.000257639,0.000047652,-0.000327559,0.056172192,-0.041374646,9.800149918
1784243967.158280,-0.003271710,-0.008160276,0.788852513,0.001271912,-0.000026438,-0.000398384,0.096907936,-0.049951587,9.798789024
1784243967.160280,-0.003271710,-0.008160276,0.788852513,0.002028096,-0.000082591,-0.000125032,0.113004491,-0.054253805,9.807743073
1784243967.162284,-0.003271930,-0.008161739,0.788852513,0.001568971,0.000226168,0.000597949,0.107739337,-0.045543186,9.789411545
1784243967.164374,-0.003271930,-0.008161739,0.788852513,0.000605996,0.000766292,0.000728250,0.076919354,-0.031069284,9.825790405
1784243967.166331,-0.003271930,-0.008161739,0.788852513,0.000082847,0.000906630,0.000695684,0.084870398,-0.003895445,9.833593369
1784243967.168306,-0.003270946,-0.008161517,0.788852513,0.000112342,0.000588575,0.000977151,0.062669188,0.014043736,9.808132172
1784243967.170301,-0.003270946,-0.008161517,0.788852513,0.000420131,0.000048687,0.001036520,0.073505983,-0.018689865,9.792241096
1784243967.172302,-0.003271099,-0.008161170,0.788852513,0.000571518,-0.000485168,0.000645628,0.088518113,-0.039856847,9.780464172
1784243967.174302,-0.003271099,-0.008161170,0.788852513,-0.000095046,-0.000864260,0.000125014,0.080823310,-0.043123771,9.812714577
1784243967.176301,-0.003271099,-0.008161170,0.788852513,-0.000882650,-0.000668525,-0.000360410,0.095216423,-0.043034293,9.774173737
1784243967.178299,-0.003271255,-0.008161904,0.788852513,-0.000947526,-0.000262098,-0.000603446,0.061056130,-0.047115125,9.779495239
1784243967.180318,-0.003271255,-0.008161904,0.788852513,-0.000583922,-0.000490656,-0.001071595,0.081047595,-0.063948393,9.779404640
1784243967.182305,-0.003272445,-0.008162466,0.788852513,-0.000052161,-0.001073574,-0.001486739,0.069129027,-0.048463926,9.765594482
1784243967.184300,-0.003272445,-0.008162466,0.788852513,0.000628841,-0.000982734,-0.001244275,0.072022989,-0.029074293,9.806072235
1784243967.186301,-0.003272445,-0.008162466,0.788852513,0.001021600,-0.000394795,-0.000848278,0.068792015,-0.037850186,9.785837173
1784243967.188308,-0.003271443,-0.008161101,0.788852513,0.000923291,-0.000394544,-0.000526690,0.099120095,-0.051038425,9.821648598
1784243967.190309,-0.003271443,-0.008161101,0.788852513,0.000774762,-0.000755287,-0.000005721,0.072655357,-0.051035888,9.805932045
1784243967.192308,-0.003272016,-0.008160831,0.788852513,0.000919863,-0.000897809,0.000862271,0.089151002,-0.023008591,9.804333687
1784243967.194317,-0.003272016,-0.008160831,0.788852513,0.001301653,-0.000572078,0.001407167,0.091948710,-0.012889424,9.825471878
1784243967.196324,-0.003272016,-0.008160831,0.788852513,0.001311303,-0.000167464,0.001407484,0.111895695,-0.033315927,9.826705933
1784243967.198320,-0.003272064,-0.008162178,0.788852513,0.000956293,0.000042529,0.001190045,0.076458462,-0.032375623,9.821297646
1784243967.200316,-0.003272064,-0.008162178,0.788852513,0.000999453,-0.000294501,0.001155756,0.056979030,-0.048585322,9.804587364
1784243967.202316,-0.003273222,-0.008161035,0.788852394,0.001351254,-0.001046459,0.000965997,0.069206417,-0.040152978,9.793893814
1784243967.204323,-0.003273222,-0.008161035,0.788852394,0.001486137,-0.001124743,0.000794080,0.062133074,-0.029904144,9.814576149
1784243967.206326,-0.003273222,-0.008161035,0.788852394,0.001480772,-0.000643224,0.001086867,0.077932529,-0.024087917,9.787280083
1784243967.208329,-0.003272915,-0.008161363,0.788852394,0.001242678,-0.000270258,0.001029134,0.064938739,-0.024584997,9.754534721
1784243967.210329,-0.003272915,-0.008161363,0.788852394,0.000547445,0.000118496,0.000427293,0.071391180,-0.009539736,9.769433022
1784243967.212330,-0.003271711,-0.008161714,0.788852513,-0.000032145,0.000382939,0.000241362,0.106249392,-0.057198361,9.792922974
1784243967.214325,-0.003271711,-0.008161714,0.788852513,0.000175393,0.000403590,0.000629459,0.111834750,-0.040686432,9.792137146
1784243967.216327,-0.003271711,-0.008161714,0.788852513,0.000978891,0.000467811,0.000552458,0.059962571,-0.025246345,9.793531418
1784243967.218337,-0.003271534,-0.008161337,0.788852513,0.001147002,0.000287983,0.000025090,0.083823197,-0.020061051,9.777446747
1784243967.220332,-0.003271534,-0.008161337,0.788852513,0.000505716,-0.000161094,0.000017011,0.088289164,-0.021500586,9.782822609
1784243967.222336,-0.003271278,-0.008161198,0.788852513,0.000368758,0.000062962,0.000538224,0.079938576,-0.042607080,9.804648399
1784243967.224337,-0.003271278,-0.008161198,0.788852513,0.000459028,0.001070320,0.000886823,0.086068608,-0.018453762,9.799428940
1784243967.226335,-0.003271278,-0.008161198,0.788852513,0.000234092,0.001593637,0.000760051,0.106189221,-0.023325631,9.818245888
1784243967.228340,-0.003270289,-0.008161605,0.788852513,-0.000136137,0.001257900,0.000537014,0.107761852,-0.041718218,9.818577766
1784243967.230340,-0.003270289,-0.008161605,0.788852513,-0.000530863,0.001176107,0.000465501,0.103796080,-0.036230519,9.810091972
1784243967.232343,-0.003270882,-0.008162139,0.788852513,-0.000583365,0.001166546,0.000648730,0.098109238,-0.024464279,9.803885460
1784243967.234342,-0.003270882,-0.008162139,0.788852513,-0.000666762,0.000384552,0.001030547,0.084358983,-0.008842713,9.837147713
1784243967.236346,-0.003270882,-0.008162139,0.788852513,-0.000835622,-0.000200517,0.001073765,0.089815609,-0.041878972,9.810490608
1784243967.238346,-0.003271135,-0.008162529,0.788852513,-0.000592890,-0.000235028,0.001162168,0.065122657,-0.041270602,9.832439423
1784243967.240346,-0.003271135,-0.008162529,0.788852513,0.000214483,-0.000465180,0.001262531,0.069724813,-0.033934966,9.800658226
1784243967.242344,-0.003270796,-0.008161974,0.788852513,0.000732175,-0.000644880,0.000487031,0.092067979,-0.004247795,9.807147026
1784243967.244347,-0.003270796,-0.008161974,0.788852513,0.000733888,-0.000410872,-0.000220890,0.080112822,0.010137260,9.822023392
1784243967.246355,-0.003270796,-0.008161974,0.788852513,0.000824618,-0.000138682,0.000130592,0.065317884,-0.026760967,9.807873726
1784243967.248350,-0.003269986,-0.008161076,0.788852513,0.000763402,-0.000028463,0.000295691,0.093428291,-0.040527031,9.802880287
1784243967.250360,-0.003269986,-0.008161076,0.788852513,0.000217248,0.000261648,-0.000630669,0.070155732,-0.036107384,9.790332794
1784243967.252358,-0.003269817,-0.008159651,0.788852513,-0.000592393,0.000855305,-0.001285985,0.065721475,-0.067549646,9.809406281
1784243967.254354,-0.003269817,-0.008159651,0.788852513,-0.001130749,0.001245137,-0.000770682,0.077159867,-0.050550029,9.792489052
1784243967.256358,-0.003269817,-0.008159651,0.788852513,-0.000934333,0.000837260,-0.000145483,0.099009439,-0.062043488,9.794229507
1784243967.258357,-0.003271217,-0.008159710,0.788852513,-0.000069891,0.000247681,-0.000232070,0.103364825,-0.034871351,9.808753967
1784243967.260363,-0.003271217,-0.008159710,0.788852513,0.000583388,0.000181894,-0.000942949,0.112142153,-0.013538868,9.817418098
1784243967.262383,-0.003269200,-0.008162159,0.788852513,0.000662589,0.000280910,-0.001244006,0.090705529,-0.041544259,9.824840546
1784243967.264396,-0.003269200,-0.008162159,0.788852513,0.000809685,0.000349532,-0.001048010,0.097594425,-0.029843600,9.805194855
1784243967.266388,-0.003269200,-0.008162159,0.788852513,0.000697920,0.000204335,-0.000978871,0.055466991,-0.023635481,9.827162743
1784243967.268378,-0.003268766,-0.008160193,0.788852513,-0.000288789,0.000052444,-0.000623318,0.084825963,-0.011135587,9.780644417
1784243967.270378,-0.003268766,-0.008160193,0.788852513,-0.000933285,0.000121094,-0.000381237,0.108653553,-0.009047866,9.759160042
1784243967.272378,-0.003267754,-0.008161374,0.788852513,-0.000370452,0.000304631,-0.000310810,0.066510305,-0.038933586,9.816314697
1784243967.274382,-0.003267754,-0.008161374,0.788852513,0.000163630,0.000238120,-0.000116008,0.079541385,-0.000957453,9.808053017
1784243967.276376,-0.003267754,-0.008161374,0.788852513,0.000046203,0.000036900,-0.000589515,0.095306866,-0.034214977,9.793956757
1784243967.278400,-0.003267539,-0.008161780,0.788852513,-0.000127980,-0.000051745,-0.001421676,0.104740225,-0.033036340,9.800249100
1784243967.280391,-0.003267539,-0.008161780,0.788852513,-0.000239502,-0.000245914,-0.001468988,0.087486178,-0.014664744,9.768071175
1784243967.282388,-0.003266551,-0.008161832,0.788852513,-0.000050725,-0.000428266,-0.001178321,0.071142271,-0.028525807,9.793521881
1784243967.284382,-0.003266551,-0.008161832,0.788852513,-0.000422001,-0.000824723,-0.001113265,0.094679564,-0.012618680,9.782438278
1784243967.286384,-0.003266551,-0.008161832,0.788852513,-0.001633527,-0.001228279,-0.001248525,0.099545091,-0.054878678,9.793828964
1784243967.288383,-0.003267059,-0.008162094,0.788852513,-0.001988886,-0.001292965,-0.001507411,0.074241571,-0.067700222,9.815240860
1784243967.290392,-0.003267059,-0.008162094,0.788852513,-0.001614576,-0.001223356,-0.001297211,0.108952247,-0.056743562,9.787098885
1784243967.292386,-0.003267733,-0.008163943,0.788852513,-0.001413564,-0.001030205,-0.000764314,0.079817563,-0.052478109,9.806826591
1784243967.294405,-0.003267733,-0.008163943,0.788852513,-0.001119960,-0.000692097,-0.000537237,0.077759795,-0.037609421,9.798849106
1784243967.296415,-0.003267733,-0.008163943,0.788852513,-0.000417605,-0.000467726,-0.000587782,0.057014234,-0.082655191,9.807058334
1784243967.298400,-0.003269452,-0.008162464,0.788852513,0.000091756,-0.000485126,-0.000481200,0.067928739,-0.033111434,9.814113617
1784243967.300403,-0.003269452,-0.008162464,0.788852513,0.000170971,-0.000658751,-0.000061933,0.081676647,-0.011972188,9.777945518
1784243967.302403,-0.003268068,-0.008162896,0.788852513,0.000571363,-0.000861037,0.000261674,0.108031429,-0.021353286,9.789568901
1784243967.304405,-0.003268068,-0.008162896,0.788852513,0.001226409,-0.000902774,0.000245858,0.095834464,-0.027113760,9.802520752
1784243967.306408,-0.003268068,-0.008162896,0.788852513,0.001275395,-0.000406475,0.000218538,0.072440326,-0.032974966,9.786768913
1784243967.308409,-0.003268887,-0.008162764,0.788852513,0.000662045,0.000141733,0.000252801,0.075310804,-0.017823301,9.793145180
1784243967.310404,-0.003268887,-0.008162764,0.788852513,0.000358043,0.000289892,-0.000102500,0.077311367,-0.038817186,9.780460358
1784243967.312405,-0.003269588,-0.008162577,0.788852513,0.000607055,0.000376301,-0.000613431,0.080594078,-0.026390832,9.791302681
1784243967.314409,-0.003269588,-0.008162577,0.788852513,0.000548661,0.000044636,-0.000789648,0.078626968,-0.040696237,9.790311813
1784243967.316417,-0.003269588,-0.008162577,0.788852513,0.000109565,-0.000032150,-0.000683059,0.080044851,-0.035283901,9.782726288
1784243967.318423,-0.003269977,-0.008162893,0.788852513,0.000372817,0.000407389,-0.000240687,0.091450505,-0.054511651,9.819826126
1784243967.320415,-0.003269977,-0.008162893,0.788852513,0.001137176,0.000163661,0.000043241,0.075621463,-0.029050339,9.796213150
1784243967.322417,-0.003269842,-0.008162992,0.788852513,0.001041134,-0.000239514,0.000031164,0.112044491,-0.023225492,9.793594360
1784243967.324416,-0.003269842,-0.008162992,0.788852513,0.000467783,-0.000188024,0.000384525,0.124635257,-0.021956734,9.781510353
1784243967.326424,-0.003269842,-0.008162992,0.788852513,0.000501284,-0.000209931,0.000732590,0.101592399,-0.032240070,9.819978714
1784243967.328421,-0.003269620,-0.008165871,0.788852513,0.000470111,-0.000473739,0.000407024,0.090120897,-0.054364033,9.801444054
1784243967.330420,-0.003269620,-0.008165871,0.788852513,0.000266413,-0.000646966,0.000332138,0.097147495,-0.032255348,9.767069817
1784243967.332428,-0.003268960,-0.008167355,0.788852394,0.000335513,-0.000616612,0.000784252,0.081338368,-0.038147893,9.805126190
1784243967.334424,-0.003268960,-0.008167355,0.788852394,0.000150103,-0.000611286,0.001329766,0.056295618,-0.031484529,9.795281410
1784243967.336431,-0.003268960,-0.008167355,0.788852394,-0.000091317,-0.000425823,0.001655803,0.090575092,-0.017141929,9.795853615
1784243967.338424,-0.003266723,-0.008166298,0.788852513,-0.000266253,-0.000340849,0.001261226,0.112276964,-0.039932981,9.811420441
1784243967.340495,-0.003266723,-0.008166298,0.788852513,-0.000800340,-0.001119860,0.000860139,0.096712664,-0.028898025,9.799819946
1784243967.342456,-0.003266270,-0.008167184,0.788852513,-0.001049289,-0.002015404,0.000981537,0.084278002,-0.017992338,9.800774574
1784243967.344481,-0.003266270,-0.008167184,0.788852513,-0.000553652,-0.001954466,0.000966714,0.081463799,-0.028241871,9.798015594
1784243967.346463,-0.003266270,-0.008167184,0.788852513,-0.000075467,-0.001136707,0.000852100,0.088713765,-0.022507189,9.797611237
1784243967.348449,-0.003266586,-0.008167208,0.788852513,-0.000051960,-0.000378471,0.001256392,0.100185409,-0.037566565,9.815460205
1784243967.350449,-0.003266586,-0.008167208,0.788852513,-0.000054667,-0.000092890,0.001061999,0.073453039,-0.059939835,9.796460152
1784243967.352444,-0.003268242,-0.008166552,0.788852513,0.000397015,0.000132024,0.000307438,0.071525954,-0.032286946,9.817708015
1784243967.354444,-0.003268242,-0.008166552,0.788852513,0.000907412,0.000505369,0.000499328,0.096215673,-0.035757590,9.757184982
1784243967.356449,-0.003268242,-0.008166552,0.788852513,0.000572013,0.000639540,0.000871900,0.070158444,-0.034464985,9.811417580
1784243967.358444,-0.003268922,-0.008166360,0.788852513,-0.000089249,0.000546443,0.000708346,0.094056241,-0.024933629,9.814188957
1784243967.360452,-0.003268922,-0.008166360,0.788852513,-0.000121461,0.000397462,0.001293481,0.105568051,-0.040891748,9.769265175
1784243967.362461,-0.003269489,-0.008167603,0.788852394,0.000252600,0.000319094,0.001973270,0.086310796,-0.035895016,9.794384956
1784243967.364455,-0.003269489,-0.008167603,0.788852394,0.000295596,0.000576108,0.001549233,0.078001760,-0.017057266,9.806603432
1784243967.366454,-0.003269489,-0.008167603,0.788852394,-0.000304926,0.000860039,0.001257913,0.082704559,0.000393883,9.801339149
1784243967.368451,-0.003268363,-0.008167758,0.788852394,-0.000799781,0.000866961,0.001459676,0.063015230,0.003906582,9.783857346
1784243967.370458,-0.003268363,-0.008167758,0.788852394,-0.000564461,0.000776026,0.001534863,0.062181402,-0.026685750,9.802939415
1784243967.372459,-0.003267980,-0.008166709,0.788852513,-0.000177789,0.000475574,0.001245689,0.070469975,-0.008905768,9.807992935
1784243967.374460,-0.003267980,-0.008166709,0.788852513,-0.000274768,0.000158320,0.000131288,0.093826488,-0.009420567,9.775284767
1784243967.376459,-0.003267980,-0.008166709,0.788852513,-0.000524630,0.000160690,-0.000282385,0.104690507,-0.036670905,9.807399750
1784243967.378484,-0.003268027,-0.008167562,0.788852394,-0.000438305,0.000134772,0.000517691,0.110872723,-0.044427149,9.815874100
1784243967.380486,-0.003268027,-0.008167562,0.788852394,-0.000554826,0.000226375,0.001010609,0.070398100,-0.015552049,9.797638893
1784243967.382472,-0.003267007,-0.008167175,0.788852513,-0.000564488,0.000509724,0.001136348,0.097592294,-0.028239354,9.831655502
1784243967.384539,-0.003267007,-0.008167175,0.788852513,-0.000066559,0.000497473,0.000776236,0.083285309,-0.026838316,9.786370277
1784243967.386486,-0.003267007,-0.008167175,0.788852513,0.000131666,0.000293217,0.000368134,0.091553152,-0.047217090,9.801939011
1784243967.388564,-0.003268182,-0.008167596,0.788852394,0.000346458,0.000016226,0.000304908,0.074759856,-0.025108937,9.810584068
1784243967.390504,-0.003268182,-0.008167596,0.788852394,0.000537834,-0.000294152,0.000294402,0.040208910,-0.026699373,9.781397820
1784243967.392486,-0.003267995,-0.008166252,0.788852513,0.000209159,-0.000352666,0.000196679,0.099004000,-0.024091410,9.812855721
1784243967.394484,-0.003267995,-0.008166252,0.788852513,0.000133627,-0.000271507,0.000198647,0.093017332,-0.035765409,9.827120781
1784243967.396485,-0.003267995,-0.008166252,0.788852513,0.000022414,-0.000356768,0.000361652,0.066147164,-0.032173432,9.811427116
1784243967.398486,-0.003269420,-0.008166780,0.788852394,-0.000077961,-0.000544444,0.000443567,0.048651464,0.004859295,9.801783562
1784243967.400484,-0.003269420,-0.008166780,0.788852394,0.000606127,-0.000904766,0.000412938,0.071070746,-0.034358837,9.794828415
1784243967.402491,-0.003270558,-0.008166239,0.788852394,0.001016527,-0.000932540,0.000427898,0.104474142,-0.054589350,9.807284355
1784243967.404486,-0.003270558,-0.008166239,0.788852394,0.001030648,-0.000518384,0.000549074,0.114830598,-0.052408647,9.796997070
1784243967.406482,-0.003270558,-0.008166239,0.788852394,0.001185465,-0.000376022,-0.000049277,0.068507478,-0.060359534,9.801384926
1784243967.408482,-0.003271635,-0.008165950,0.788852394,0.000861812,-0.000606602,-0.000975125,0.105868995,-0.013795053,9.801718712
1784243967.410489,-0.003271635,-0.008165950,0.788852394,-0.000137093,-0.000968546,-0.000965920,0.104720756,-0.037242498,9.761666298
1784243967.412497,-0.003272879,-0.008167073,0.788852394,-0.000538861,-0.001076951,-0.000434328,0.070612945,-0.036856439,9.768808365
1784243967.414544,-0.003272879,-0.008167073,0.788852394,-0.000266796,-0.000836034,-0.000369322,0.048236117,-0.031650942,9.770166397
1784243967.416512,-0.003272879,-0.008167073,0.788852394,-0.000393029,-0.000654485,-0.000737640,0.095675655,-0.040930603,9.792569160
1784243967.418499,-0.003273043,-0.008167153,0.788852394,-0.000632199,-0.000824746,-0.001314755,0.082978442,-0.015176035,9.785099030
1784243967.420525,-0.003273043,-0.008167153,0.788852394,-0.000771508,-0.001039816,-0.001627319,0.075689718,-0.022432666,9.810601234
1784243967.422501,-0.003272533,-0.008167480,0.788852394,-0.000531005,-0.001239056,-0.001385365,0.076702259,-0.012214195,9.820979118
1784243967.424571,-0.003272533,-0.008167480,0.788852394,-0.000044729,-0.000958009,-0.000809095,0.089390248,-0.041688800,9.784487724
1784243967.426528,-0.003272533,-0.008167480,0.788852394,-0.000087232,-0.000606437,-0.000154427,0.107199334,-0.050716203,9.824795723
1784243967.428541,-0.003273198,-0.008168790,0.788852394,-0.000410407,-0.000739721,-0.000239749,0.080778316,-0.047936868,9.796545029
1784243967.430573,-0.003273198,-0.008168790,0.788852394,-0.000681711,-0.000923217,-0.000825946,0.075458795,-0.042492349,9.796573639
1784243967.432538,-0.003273863,-0.008168221,0.788852394,-0.000842394,-0.000967736,-0.001180221,0.056231476,0.001546338,9.812977791
1784243967.434515,-0.003273863,-0.008168221,0.788852394,-0.000633809,-0.000863117,-0.000877420,0.084527217,0.002617047,9.800458908
1784243967.436521,-0.003273863,-0.008168221,0.788852394,-0.000120446,-0.000686236,-0.000096091,0.117502511,-0.018255625,9.777940750
1784243967.438519,-0.003273220,-0.008169343,0.788852394,0.000435040,-0.000435004,0.000744846,0.109938607,-0.049568608,9.784457207
1784243967.440522,-0.003273220,-0.008169343,0.788852394,0.000662424,-0.000031094,0.000871010,0.078541823,-0.047447450,9.794753075
1784243967.442521,-0.003273359,-0.008168845,0.788852394,0.000395257,0.000095574,-0.000302329,0.088431858,-0.010647767,9.768545151
1784243967.444520,-0.003273359,-0.008168845,0.788852394,0.000212145,-0.000406580,-0.001106232,0.082426630,-0.024494808,9.773383141
1784243967.446535,-0.003273359,-0.008168845,0.788852394,0.000258544,-0.000741876,-0.001113753,0.070374623,-0.016953170,9.805700302
1784243967.448529,-0.003272968,-0.008169219,0.788852394,0.000382027,-0.001076435,-0.001227904,0.051888697,-0.024310533,9.802496910
1784243967.450538,-0.003272968,-0.008169219,0.788852394,0.000380546,-0.001391832,-0.001203296,0.089390323,-0.039662033,9.814539909
1784243967.452538,-0.003273162,-0.008170275,0.788852394,0.000100464,-0.000612293,-0.000909411,0.118035622,-0.047079712,9.797929764
1784243967.454533,-0.003273162,-0.008170275,0.788852394,-0.000175825,-0.000060963,-0.000803838,0.094738908,-0.042850852,9.812281609
1784243967.456535,-0.003273162,-0.008170275,0.788852394,-0.000080361,-0.000739710,-0.001183771,0.090305395,-0.038723558,9.806925774
1784243967.458555,-0.003273661,-0.008171513,0.788852394,0.000243856,-0.001197930,-0.001947341,0.056896795,-0.056934420,9.781668663
1784243967.460539,-0.003273661,-0.008171513,0.788852394,0.000505814,-0.000864828,-0.002698408,0.068056248,-0.058752716,9.828294754
1784243967.462532,-0.003275018,-0.008171507,0.788852394,0.000769459,-0.000429167,-0.002558392,0.102158651,-0.059586745,9.821148872
1784243967.464543,-0.003275018,-0.008171507,0.788852394,0.000614501,-0.000257025,-0.001645420,0.077793166,-0.033698596,9.815911293
1784243967.466539,-0.003275018,-0.008171507,0.788852394,0.000518741,-0.000204245,-0.000908501,0.055887945,-0.027507544,9.803825378
1784243967.468536,-0.003274113,-0.008170444,0.788852394,0.000772959,-0.000330507,-0.000498428,0.075581878,-0.033415485,9.780044556
1784243967.470541,-0.003274113,-0.008170444,0.788852394,0.000723035,-0.000385170,-0.000001290,0.095870778,-0.024800824,9.792222977
1784243967.472549,-0.003274324,-0.008170508,0.788852394,0.000253801,-0.000277660,0.000577624,0.069571808,-0.047300667,9.790261269
1784243967.474543,-0.003274324,-0.008170508,0.788852394,0.000038222,-0.000271480,0.000800586,0.063515544,-0.028418530,9.792170525
1784243967.476547,-0.003274324,-0.008170508,0.788852394,0.000353793,-0.000020528,0.001037343,0.077858984,-0.029936850,9.790829659
1784243967.478544,-0.003273954,-0.008169759,0.788852394,0.000423676,0.000433448,0.001301333,0.091005884,-0.055284176,9.803232193
1784243967.480555,-0.003273954,-0.008169759,0.788852394,0.000457938,0.000803000,0.001060594,0.097899899,-0.041922044,9.801978111
1784243967.482548,-0.003273953,-0.008170815,0.788852394,0.000661630,0.000977523,0.001336270,0.098914348,0.004685603,9.798692703
1784243967.484547,-0.003273953,-0.008170815,0.788852394,0.000391376,0.000926969,0.001896477,0.069052741,-0.014718369,9.808851242
1784243967.486547,-0.003273953,-0.008170815,0.788852394,-0.000186765,0.000575137,0.001507942,0.082063600,-0.016517961,9.786435127
1784243967.488555,-0.003273953,-0.008170815,0.788852394,-0.000664249,0.000034107,0.000789980,0.082063600,-0.016517961,9.786435127
1784243967.490561,-0.003272063,-0.008170865,0.788852394,-0.000630045,-0.000078041,0.000576010,0.069482155,-0.053276781,9.811743736
1784243967.492557,-0.003272063,-0.008170865,0.788852394,-0.000223080,0.000122246,0.000729194,0.069482155,-0.053276781,9.811743736
1784243967.494557,-0.003273542,-0.008170648,0.788852394,0.000124617,-0.000037610,0.000712803,0.061019469,-0.050241306,9.778128624
1784243967.496557,-0.003273542,-0.008170648,0.788852394,0.000429138,-0.000459828,0.000572876,0.061019469,-0.050241306,9.778128624
1784243967.498559,-0.003274162,-0.008170274,0.788852394,0.000075712,-0.000560337,0.000001834,0.077907607,-0.062685095,9.796446800
1784243967.500562,-0.003275384,-0.008171326,0.788852394,-0.000957283,-0.000392866,-0.000143278,0.099612653,-0.012297550,9.791411400
1784243967.502561,-0.003275384,-0.008171326,0.788852394,-0.001422707,-0.000454507,-0.000159298,0.094087377,-0.023472097,9.797611237
1784243967.504563,-0.003275384,-0.008171326,0.788852394,-0.000747566,-0.000383356,-0.000331177,0.071186118,-0.024532311,9.798926353
1784243967.506565,-0.003275822,-0.008170997,0.788852394,0.000038667,0.000220953,-0.000073756,0.101030625,-0.043258477,9.795248985
1784243967.508567,-0.003275822,-0.008170997,0.788852394,0.000086350,0.000594851,0.000112570,0.099963024,-0.020779580,9.786424637
1784243967.510568,-0.003275029,-0.008172342,0.788852394,0.000043807,0.000487867,0.000607105,0.077434681,-0.027306927,9.799812317
1784243967.512568,-0.003275029,-0.008172342,0.788852394,0.000429830,0.000565987,0.001203575,0.064720787,-0.039679319,9.798375130
1784243967.514568,-0.003275029,-0.008172342,0.788852394,0.000586831,0.000700218,0.000988465,0.092137262,-0.035617184,9.807842255
1784243967.516580,-0.003275132,-0.008173003,0.788852394,0.000029671,0.000518585,0.000612514,0.099371269,-0.032439899,9.789040565
1784243967.518573,-0.003275132,-0.008173003,0.788852394,-0.000127958,0.000056174,0.000896800,0.099047363,-0.022127861,9.788657188
1784243967.520579,-0.003274628,-0.008173534,0.788852394,0.000425192,-0.000360331,0.001176723,0.074633092,-0.036241196,9.801096916
1784243967.522575,-0.003274628,-0.008173534,0.788852394,0.000811877,-0.000536473,0.001200810,0.072905205,-0.030826766,9.798889160
1784243967.524580,-0.003274628,-0.008173534,0.788852394,0.001093184,-0.000770789,0.000892833,0.065516010,-0.010202308,9.810222626
1784243967.526577,-0.003273566,-0.008171983,0.788852394,0.000847715,-0.000880085,0.000252910,0.065895312,-0.017645335,9.785068512
1784243967.528584,-0.003273566,-0.008171983,0.788852394,-0.000178736,-0.000717684,-0.000032748,0.095287837,-0.035581116,9.797085762
1784243967.530586,-0.003274061,-0.008173427,0.788852394,-0.000999656,-0.000688252,-0.000295613,0.092435479,-0.050589703,9.770535469
1784243967.532587,-0.003274061,-0.008173427,0.788852394,-0.001124611,-0.000541712,-0.001171628,0.077375352,-0.069417834,9.799094200
1784243967.534586,-0.003274061,-0.008173427,0.788852394,-0.000797758,-0.000241696,-0.001771951,0.073239669,-0.077429399,9.799037933
1784243967.536623,-0.003277424,-0.008172853,0.788852513,-0.000036934,-0.000085316,-0.001793604,0.052555520,-0.081158437,9.793615341
1784243967.538612,-0.003277424,-0.008172853,0.788852513,0.000337475,0.000207991,-0.001393473,0.074515775,-0.009303719,9.793647766
1784243967.540599,-0.003274649,-0.008172078,0.788852394,0.000208237,0.000135131,-0.000634870,0.078321643,0.010188868,9.817986488
1784243967.542624,-0.003274649,-0.008172078,0.788852394,0.000399694,-0.000122890,0.000548890,0.077976845,-0.018064475,9.822288513
1784243967.544600,-0.003274649,-0.008172078,0.788852394,0.000435157,0.000051687,0.001178427,0.108386688,-0.027770393,9.809253693
1784243967.546599,-0.003272839,-0.008173734,0.788852394,0.000102790,0.000296367,0.000716482,0.084485196,-0.039357137,9.780462265
1784243967.548603,-0.003272839,-0.008173734,0.788852394,0.000167125,0.000346532,0.000181163,0.060953148,-0.014796127,9.834398270
1784243967.550612,-0.003271803,-0.008172878,0.788852394,0.000340462,0.000381492,-0.000172515,0.076509371,-0.031568356,9.770642281
1784243967.552604,-0.003271803,-0.008172878,0.788852394,0.000578004,0.000745421,-0.000049016,0.080398679,-0.006553974,9.774393082
1784243967.554601,-0.003271803,-0.008172878,0.788852394,0.000857535,0.000829289,0.000058164,0.070896119,-0.011926415,9.790936470
1784243967.556602,-0.003270656,-0.008172923,0.788852394,0.000749125,0.000339207,-0.000426930,0.066714630,-0.024757437,9.775609016
1784243967.558618,-0.003270656,-0.008172923,0.788852394,0.000525968,0.000072409,-0.000563421,0.081711762,-0.006831950,9.811155319
1784243967.560646,-0.003269928,-0.008172941,0.788852394,0.000273263,-0.000050310,-0.000445975,0.119335182,-0.015142889,9.777962685
1784243967.562618,-0.003269928,-0.008172941,0.788852394,0.000049850,-0.000427383,-0.000344030,0.108179189,-0.045618888,9.799275398
1784243967.564613,-0.003269928,-0.008172941,0.788852394,-0.000286074,-0.000015687,-0.000356475,0.091101684,-0.048043668,9.792966843
1784243967.566618,-0.003271086,-0.008173305,0.788852394,-0.000741091,0.000811019,-0.000778131,0.084392972,-0.045758963,9.798804283
1784243967.568616,-0.003271086,-0.008173305,0.788852394,-0.000863889,0.000689831,-0.000890433,0.100527652,-0.048138961,9.789388657
1784243967.570616,-0.003271620,-0.008173654,0.788852394,-0.000341748,0.000359523,-0.000737946,0.116137050,-0.058817808,9.750779152
1784243967.572620,-0.003271620,-0.008173654,0.788852394,0.000040360,0.000228312,-0.000860923,0.092930615,-0.046176251,9.779083252
1784243967.574617,-0.003271620,-0.008173654,0.788852394,0.000049612,0.000280950,-0.001166733,0.080193415,-0.021953171,9.798056602
1784243967.576621,-0.003270629,-0.008173560,0.788852394,0.000021212,0.000444784,-0.001244455,0.079700522,-0.061507292,9.816631317
1784243967.578631,-0.003270629,-0.008173560,0.788852394,0.000211277,0.000091006,-0.000834029,0.107871354,-0.034369595,9.793070793
1784243967.580631,-0.003270757,-0.008174529,0.788852394,0.000397953,-0.000707656,-0.000465767,0.081085354,-0.059192527,9.803645134
1784243967.582631,-0.003270757,-0.008174529,0.788852394,0.000160693,-0.000779037,-0.000592382,0.056127716,-0.044967875,9.801470757
1784243967.584629,-0.003270757,-0.008174529,0.788852394,0.000192267,-0.000259037,-0.000392279,0.076454252,-0.032814045,9.819950104
1784243967.586627,-0.003270610,-0.008174215,0.788852394,0.000482385,-0.000208528,-0.000013237,0.063938931,-0.029434666,9.808303833
1784243967.588712,-0.003270610,-0.008174215,0.788852394,0.000403599,-0.000310826,-0.000027173,0.038869660,-0.023791233,9.815937996
1784243967.590642,-0.003270615,-0.008172399,0.788852394,0.000131397,-0.000220044,-0.000199213,0.063672327,-0.052207556,9.797846794
1784243967.592645,-0.003270615,-0.008172399,0.788852394,-0.000157642,-0.000188818,-0.000342932,0.082922451,-0.056044817,9.798735619
1784243967.594645,-0.003270615,-0.008172399,0.788852394,-0.000420816,-0.000038845,-0.000555316,0.094100825,-0.022960545,9.788647652
1784243967.596636,-0.003270332,-0.008173272,0.788852394,-0.000566954,0.000881541,-0.000976221,0.075196698,-0.028450362,9.775592804
1784243967.598639,-0.003270332,-0.008173272,0.788852394,-0.000531163,0.001369399,-0.001103119,0.098164052,-0.056758203,9.808609009
1784243967.600640,-0.003271442,-0.008173923,0.788852394,0.000368166,0.000685555,-0.000568152,0.069896154,-0.058419593,9.778084755
1784243967.602640,-0.003271442,-0.008173923,0.788852394,0.001271661,-0.000177494,0.000180963,0.074434459,-0.054019731,9.781256676
1784243967.604641,-0.003271442,-0.008173923,0.788852394,0.000808193,-0.000901010,0.000543858,0.090379387,-0.033681519,9.790817261
1784243967.606641,-0.003271331,-0.008174328,0.788852394,0.000168803,-0.000955524,0.000593754,0.093234204,-0.057053898,9.796049118
1784243967.608676,-0.003271331,-0.008174328,0.788852394,0.000414802,-0.000443275,0.000363532,0.114877850,-0.047983084,9.804646492
1784243967.610657,-0.003272340,-0.008175406,0.788852394,0.001186728,-0.000401481,0.000357380,0.096303664,-0.026147276,9.791767120
1784243967.612657,-0.003272340,-0.008175406,0.788852394,0.001454879,-0.000747949,0.000693315,0.100903705,-0.017207388,9.786448479
1784243967.614655,-0.003272340,-0.008175406,0.788852394,0.000622757,-0.000683946,0.001046481,0.094019808,-0.031300105,9.764384270
1784243967.616652,-0.003271517,-0.008175860,0.788852394,-0.000501609,0.000031469,0.001757957,0.101877958,-0.047717791,9.790739059
1784243967.618656,-0.003271517,-0.008175860,0.788852394,-0.001647035,0.000483832,0.002329513,0.056996409,-0.046421826,9.815360069
1784243967.620661,-0.003272238,-0.008174022,0.788852394,-0.002143804,0.000129748,0.002092749,0.071307704,-0.014251463,9.802130699
1784243967.622662,-0.003272238,-0.008174022,0.788852394,-0.001310466,0.000004016,0.001742386,0.086594425,-0.011771888,9.803956032
1784243967.624655,-0.003272238,-0.008174022,0.788852394,-0.000376770,0.000104455,0.001885879,0.080979720,-0.029326001,9.825357437
1784243967.626655,-0.003272267,-0.008173648,0.788852394,-0.000026624,-0.000268132,0.001879093,0.074459426,-0.050985757,9.795622826
1784243967.628659,-0.003272267,-0.008173648,0.788852394,0.000263553,-0.000700159,0.001584482,0.059119780,-0.019535359,9.811052322
1784243967.630668,-0.003272013,-0.008172601,0.788852394,0.000386756,-0.000798276,0.001425083,0.066210851,-0.029644288,9.770644188
1784243967.632684,-0.003272013,-0.008172601,0.788852394,-0.000098738,-0.000575121,0.001237483,0.080330119,-0.049548086,9.771875381
1784243967.634699,-0.003272013,-0.008172601,0.788852394,-0.000790983,0.000023741,0.000994400,0.101478688,-0.042863958,9.801977158
1784243967.636677,-0.003272804,-0.008173464,0.788852394,-0.001188642,0.000296641,0.000852679,0.085840173,-0.036467597,9.812763214
1784243967.638675,-0.003272804,-0.008173464,0.788852394,-0.001413770,-0.000190105,0.000890135,0.098605737,-0.022471508,9.774756432
1784243967.640712,-0.003271976,-0.008173765,0.788852394,-0.001364547,-0.000906535,0.000843537,0.091644026,-0.003641467,9.785631180
1784243967.642682,-0.003271976,-0.008173765,0.788852394,-0.000498771,-0.001616834,0.000719600,0.087637633,-0.036874957,9.803795815
1784243967.644694,-0.003271976,-0.008173765,0.788852394,0.000676334,-0.002047498,0.000197419,0.092857309,-0.052428633,9.776352882
1784243967.646684,-0.003272945,-0.008174686,0.788852394,0.000923254,-0.001797906,0.000017756,0.068384469,-0.032656506,9.812323570
1784243967.648677,-0.003272945,-0.008174686,0.788852394,0.000689598,-0.001185729,0.000881464,0.073598459,-0.009854651,9.809782982
1784243967.650676,-0.003271760,-0.008174470,0.788852394,0.000590704,-0.000848086,0.001437968,0.110681228,-0.025775183,9.776539803
1784243967.652678,-0.003271760,-0.008174470,0.788852394,0.000141490,-0.000504180,0.001211509,0.108253941,-0.039760418,9.794382095
1784243967.654680,-0.003271760,-0.008174470,0.788852394,-0.000236788,-0.000034894,0.000686637,0.108462468,-0.022309011,9.797183990
1784243967.656680,-0.003271767,-0.008176234,0.788852394,-0.000184940,0.000518549,0.000450387,0.069450460,-0.020394996,9.787295341
1784243967.658684,-0.003271767,-0.008176234,0.788852394,0.000107000,0.001114210,0.000731053,0.044415712,-0.012857962,9.780594826
1784243967.660764,-0.003271897,-0.008174490,0.788852394,0.000311837,0.000758146,0.000624220,0.099553265,-0.053598389,9.802802086
1784243967.663089,-0.003271897,-0.008174490,0.788852394,0.000200238,-0.000288182,0.000180559,0.066192038,-0.066166997,9.803137779
1784243967.664745,-0.003271897,-0.008174490,0.788852394,0.000156460,-0.000819824,0.000346099,0.070525944,-0.043216921,9.781321526
1784243967.666725,-0.003273061,-0.008174078,0.788852394,-0.000212141,-0.000486067,0.000885368,0.091724694,-0.033705123,9.791713715
1784243967.668756,-0.003273061,-0.008174078,0.788852394,-0.000819079,0.000176252,0.001027292,0.113964051,-0.012132132,9.805324554
1784243967.670734,-0.003271604,-0.008175677,0.788852394,-0.001024522,0.000642952,0.000354742,0.088285126,-0.021532385,9.787306786
1784243967.672732,-0.003271604,-0.008175677,0.788852394,-0.001028445,0.001036691,-0.000351294,0.107022926,-0.028703123,9.816867828
1784243967.674731,-0.003271604,-0.008175677,0.788852394,-0.001035162,0.001103704,-0.000235051,0.056674812,-0.037307408,9.794347763
1784243967.676730,-0.003272208,-0.008174470,0.788852394,-0.001189110,0.000827820,0.000226672,0.080661170,-0.020592779,9.794926643
1784243967.678757,-0.003272208,-0.008174470,0.788852394,-0.001266919,0.000376807,0.000182607,0.101121947,-0.035242874,9.802024841
1784243967.680748,-0.003272669,-0.008175507,0.788852394,-0.001033441,-0.000005115,-0.000463093,0.071995303,-0.033750672,9.770623207
1784243967.682753,-0.003272669,-0.008175507,0.788852394,-0.000336585,-0.000072699,-0.000985623,0.090615645,-0.049953766,9.810440063
1784243967.684777,-0.003272669,-0.008175507,0.788852394,0.000167487,-0.000288537,-0.000609038,0.112437263,-0.064910084,9.795121193
1784243967.686739,-0.003275585,-0.008176577,0.788852394,0.000062078,-0.000622218,-0.000083709,0.097099043,-0.033853605,9.802927017
1784243967.688733,-0.003275585,-0.008176577,0.788852394,-0.000027524,-0.000519194,-0.000348969,0.061949398,-0.045538269,9.808198929
1784243967.690737,-0.003277311,-0.008175075,0.788852394,0.000145243,-0.000141497,-0.000413782,0.046263739,-0.045187600,9.787114143
1784243967.692748,-0.003277311,-0.008175075,0.788852394,0.000322153,-0.000067545,-0.000028793,0.072374158,-0.037549969,9.800189972
1784243967.694741,-0.003277311,-0.008175075,0.788852394,0.000230809,-0.000422180,-0.000256410,0.069927745,-0.054928117,9.791109085
1784243967.696741,-0.003278959,-0.008174223,0.788852513,0.000074281,-0.000661005,-0.000512519,0.061957397,-0.044664599,9.811342239
1784243967.698748,-0.003278959,-0.008174223,0.788852513,0.000125195,-0.000568547,-0.000408517,0.082246423,-0.037670095,9.799301147
1784243967.700761,-0.003279008,-0.008174901,0.788852513,0.000196169,-0.000699882,-0.000279650,0.095697574,-0.040352274,9.774190903
1784243967.702754,-0.003279008,-0.008174901,0.788852513,0.000352970,-0.001120345,-0.000241569,0.097406365,-0.081075899,9.827283859
1784243967.704748,-0.003279008,-0.008174901,0.788852513,0.000669171,-0.001263402,-0.000772204,0.084358893,-0.051296286,9.758417130
1784243967.706747,-0.003281021,-0.008175051,0.788852513,0.000852472,-0.000718696,-0.001227432,0.098434553,-0.035170220,9.796644211
1784243967.708751,-0.003281021,-0.008175051,0.788852513,0.000386283,-0.000305830,-0.000187987,0.098592862,-0.022573253,9.789102554
1784243967.710752,-0.003280636,-0.008175871,0.788852513,-0.000013811,-0.000440374,0.001216582,0.091051184,-0.014094623,9.807530403
1784243967.712745,-0.003280636,-0.008175871,0.788852513,0.000256859,-0.000662697,0.000976369,0.083786786,-0.020753849,9.811964035
1784243967.714746,-0.003280636,-0.008175871,0.788852513,0.000509949,-0.000803497,0.000187822,0.086046807,-0.020652229,9.793586731
1784243967.716748,-0.003280422,-0.008175894,0.788852513,0.000733251,-0.000584384,-0.000077892,0.091251127,-0.035516657,9.795289040
1784243967.718765,-0.003280422,-0.008175894,0.788852513,0.000718187,-0.000187529,-0.000487044,0.096818998,-0.019548073,9.807950020
1784243967.720760,-0.003279330,-0.008176893,0.788852513,0.000487203,-0.000026363,-0.000082148,0.081408329,-0.033137649,9.793502808
1784243967.722757,-0.003279330,-0.008176893,0.788852513,0.000528842,-0.000366733,0.001113187,0.053038586,-0.042087238,9.779966354
1784243967.724799,-0.003279330,-0.008176893,0.788852513,0.000669669,-0.000593232,0.001226096,0.060077712,-0.052606344,9.797390938
1784243967.726759,-0.003280631,-0.008175405,0.788852513,0.000505773,-0.000445832,0.000732007,0.105080344,-0.042004492,9.800640106
1784243967.728762,-0.003280631,-0.008175405,0.788852513,0.000516789,-0.000049990,0.000067003,0.067709617,-0.051862210,9.805025101
1784243967.730759,-0.003281121,-0.008174344,0.788852513,0.000834461,0.000380914,-0.000723040,0.071297638,-0.014330953,9.813339233
1784243967.732769,-0.003281121,-0.008174344,0.788852513,0.000953329,0.000440617,-0.000740568,0.064884454,-0.022987483,9.845108986
1784243967.734766,-0.003281121,-0.008174344,0.788852513,0.000461708,0.000613682,-0.000320290,0.079729691,-0.060871731,9.790183067
1784243967.736761,-0.003282038,-0.008174026,0.788852513,0.000126195,0.001101159,-0.000282849,0.068095423,-0.057227593,9.802749634
1784243967.738763,-0.003282038,-0.008174026,0.788852513,0.000750386,0.001571471,-0.000018879,0.064402185,-0.027299184,9.822216034
1784243967.740773,-0.003281646,-0.008173720,0.788852513,0.001344581,0.001479386,0.000369791,0.080045834,0.002719054,9.794178963
1784243967.742768,-0.003281646,-0.008173720,0.788852513,0.001372988,0.000734465,0.000359684,0.090738893,-0.040470272,9.799739838
1784243967.744768,-0.003281646,-0.008173720,0.788852513,0.001247790,0.000120157,0.000550261,0.095108129,-0.050373372,9.798336029
1784243967.746773,-0.003282149,-0.008174445,0.788852513,0.001376351,-0.000042518,0.000817392,0.063460246,-0.032907676,9.793485641
1784243967.748777,-0.003282149,-0.008174445,0.788852513,0.001886636,-0.000215973,0.000434693,0.060587004,-0.011301710,9.784655571
1784243967.750780,-0.003280092,-0.008173282,0.788852513,0.001970513,-0.000248125,-0.000024550,0.081176683,0.021166179,9.781296730
1784243967.752795,-0.003280092,-0.008173282,0.788852513,0.001416657,-0.000125572,0.000398908,0.072405808,-0.034868561,9.801104546
1784243967.754783,-0.003280092,-0.008173282,0.788852513,0.001118254,-0.000378636,0.000579290,0.080058604,-0.033149019,9.797535896
1784243967.756790,-0.003280343,-0.008173026,0.788852513,0.000775098,-0.000594645,0.000222921,0.075776264,-0.015265292,9.810647964
1784243967.758784,-0.003280343,-0.008173026,0.788852513,0.000386780,-0.000156871,0.000020562,0.094224766,-0.049440511,9.794754028
1784243967.760790,-0.003281357,-0.008173542,0.788852513,0.000341396,0.000375803,-0.000179442,0.105902806,-0.085871063,9.793187141
1784243967.762786,-0.003281357,-0.008173542,0.788852513,0.000577225,0.000615076,-0.000018663,0.101676680,-0.065111957,9.779866219
1784243967.764787,-0.003281357,-0.008173542,0.788852513,0.001367990,0.001126135,-0.000133352,0.049138427,-0.029597513,9.794838905
1784243967.766790,-0.003281859,-0.008171982,0.788852513,0.001967011,0.001773157,-0.001027666,0.056466989,-0.015542347,9.821387291
1784243967.768795,-0.003281859,-0.008171982,0.788852513,0.001743826,0.001529326,-0.001305108,0.079108022,-0.036394075,9.814550400
1784243967.770799,-0.003282790,-0.008172122,0.788852513,0.001098996,0.000450739,-0.000502107,0.107871979,-0.069522984,9.821987152
1784243967.772801,-0.003282790,-0.008172122,0.788852513,0.000915718,-0.000537741,0.000352974,0.072428316,-0.031043593,9.830267906
1784243967.774791,-0.003282790,-0.008172122,0.788852513,0.001183719,-0.001042524,0.000382019,0.068079948,-0.023001919,9.778309822
1784243967.776805,-0.003283582,-0.008170468,0.788852513,0.001077715,-0.000901367,0.000134758,0.092156306,0.003338925,9.811230659
1784243967.778801,-0.003283582,-0.008170468,0.788852513,0.000693511,-0.000706778,0.000207379,0.076861858,-0.038817801,9.781355858
1784243967.780807,-0.003283560,-0.008170547,0.788852513,0.000505796,-0.000421470,0.000170970,0.090293765,-0.039625838,9.807815552
1784243967.782807,-0.003283560,-0.008170547,0.788852513,0.000334187,-0.000069920,0.000253503,0.061242849,-0.031862188,9.776453972
1784243967.784802,-0.003283560,-0.008170547,0.788852513,0.000042645,-0.000136784,0.000437926,0.049858592,-0.045192260,9.781289101
1784243967.786803,-0.003284314,-0.008169066,0.788852513,0.000321372,-0.000025697,0.000068496,0.054704960,-0.052445136,9.784384727
1784243967.788807,-0.003284314,-0.008169066,0.788852513,0.000995395,0.000052476,-0.000578985,0.059718821,-0.046217844,9.781739235
1784243967.790806,-0.003284980,-0.008168169,0.788852513,0.001049130,-0.000139511,-0.000781972,0.094709948,-0.046726700,9.790287971
1784243967.792814,-0.003284980,-0.008168169,0.788852513,0.000799890,-0.000081479,-0.000405700,0.117218778,-0.040758606,9.792591095
1784243967.794807,-0.003284980,-0.008168169,0.788852513,0.001069894,-0.000062626,-0.000040743,0.093610704,-0.026929211,9.780550957
1784243967.796812,-0.003284428,-0.008169020,0.788852513,0.001338473,-0.000120778,0.000080423,0.086212806,-0.043558050,9.801061630
1784243967.798815,-0.003284428,-0.008169020,0.788852513,0.001248305,0.000181261,0.000278467,0.065795481,-0.024917638,9.799816132
1784243967.800812,-0.003284003,-0.008168257,0.788852513,0.001132692,0.000745366,0.000171852,0.091462880,-0.018039810,9.794505119
1784243967.802819,-0.003284003,-0.008168257,0.788852513,0.000798089,0.001375998,-0.000067456,0.061778214,-0.023483856,9.794441223
1784243967.804822,-0.003284003,-0.008168257,0.788852513,-0.000044712,0.001695658,0.000117517,0.065021485,-0.052605983,9.788429260
1784243967.806817,-0.003285721,-0.008167460,0.788852513,-0.000756857,0.001192173,0.000157750,0.067186989,-0.020118603,9.815539360
1784243967.808823,-0.003285721,-0.008167460,0.788852513,-0.001115596,0.000519337,-0.000085169,0.102388807,-0.043180335,9.781800270
1784243967.810837,-0.003286202,-0.008168940,0.788852513,-0.001262348,0.000568587,-0.000367256,0.066468693,-0.043314621,9.802389145
1784243967.812836,-0.003286202,-0.008168940,0.788852513,-0.000700212,0.000545024,-0.000860851,0.061738674,-0.028659074,9.766162872
1784243967.814827,-0.003286202,-0.008168940,0.788852513,-0.000260716,-0.000030771,-0.001169339,0.067773655,-0.048519805,9.775904655
1784243967.816830,-0.003287393,-0.008168405,0.788852513,-0.000357631,-0.000518950,-0.001196545,0.058496557,-0.033470459,9.818583488
1784243967.818836,-0.003287393,-0.008168405,0.788852513,-0.000318503,-0.000627540,-0.000601051,0.078999907,-0.046163369,9.802382469
1784243967.820830,-0.003288387,-0.008167828,0.788852513,-0.000849335,-0.000487724,0.000338541,0.071979366,-0.033471238,9.794387817
1784243967.822828,-0.003288387,-0.008167828,0.788852513,-0.001574475,-0.000089252,0.000211807,0.079203941,-0.030773710,9.780065536
1784243967.824833,-0.003288387,-0.008167828,0.788852513,-0.001449771,0.000251862,-0.000511010,0.058245685,-0.018529369,9.797159195
1784243967.826841,-0.003287502,-0.008165974,0.788852513,-0.000891485,0.000296112,-0.000839399,0.078859687,-0.020217208,9.808376312
1784243967.828842,-0.003287502,-0.008165974,0.788852513,-0.000179796,0.000266523,-0.000338364,0.082166821,-0.046403557,9.767414093
1784243967.830842,-0.003287871,-0.008166644,0.788852513,0.000285745,0.000371422,0.000045308,0.084382035,-0.045034740,9.823018074
1784243967.832836,-0.003287871,-0.008166644,0.788852513,0.000750709,0.000234588,-0.000344096,0.068835288,-0.034266502,9.785861015
1784243967.834835,-0.003287871,-0.008166644,0.788852513,0.000814842,-0.000238345,-0.000919118,0.068182617,-0.012870510,9.802585602
1784243967.836848,-0.003286991,-0.008166228,0.788852513,-0.000149840,-0.000464304,-0.001284806,0.086666629,-0.041902322,9.819454193
1784243967.838846,-0.003286991,-0.008166228,0.788852513,-0.000489568,-0.000331599,-0.000772745,0.078732744,-0.031756092,9.793059349
1784243967.840845,-0.003286660,-0.008166620,0.788852513,0.000185335,-0.000138979,-0.000054730,0.078049965,-0.049808688,9.812669754
1784243967.842843,-0.003286660,-0.008166620,0.788852513,0.000549573,-0.000069502,0.000503843,0.082940578,-0.018311772,9.785079002
1784243967.844842,-0.003286660,-0.008166620,0.788852513,0.000328401,0.000078013,0.000639748,0.088872463,-0.009907039,9.789622307
1784243967.846849,-0.003285582,-0.008166783,0.788852513,0.000258652,0.000239485,0.000576733,0.078514777,-0.012097284,9.801255226
1784243967.848850,-0.003285582,-0.008166783,0.788852513,0.000730622,0.000312603,0.001000756,0.105707414,-0.028444216,9.782794952
1784243967.850862,-0.003285268,-0.008168097,0.788852513,0.001399596,0.000239134,0.000858169,0.097243018,-0.020964481,9.817356110
1784243967.852853,-0.003285268,-0.008168097,0.788852513,0.001836125,0.000369916,0.000141479,0.065493904,-0.014024098,9.780608177
1784243967.854850,-0.003285268,-0.008168097,0.788852513,0.001952312,0.000249826,-0.000129416,0.059819631,-0.038532559,9.771926880
1784243967.856855,-0.003285366,-0.008166789,0.788852513,0.001736981,-0.000736819,0.000064892,0.062435262,-0.044034794,9.784894943
1784243967.858860,-0.003285366,-0.008166789,0.788852513,0.001257048,-0.001218549,0.000279459,0.109728478,-0.029442765,9.789966583
1784243967.860866,-0.003284896,-0.008168419,0.788852513,0.000992802,-0.000434463,0.000117295,0.088097505,-0.035171539,9.815463066
1784243967.862862,-0.003284896,-0.008168419,0.788852513,0.000766353,0.000282754,-0.000270857,0.082171552,-0.044745259,9.786255836
1784243967.864859,-0.003284896,-0.008168419,0.788852513,0.000615655,0.000445323,-0.000591708,0.081995815,-0.058695652,9.795132637
1784243967.866868,-0.003286509,-0.008169136,0.788852513,0.000450961,0.000545127,-0.000627066,0.070865549,-0.050568104,9.806382179
1784243967.868873,-0.003286509,-0.008169136,0.788852513,0.000293026,0.000526144,-0.000310410,0.093286276,-0.052590173,9.798319817
1784243967.870868,-0.003287845,-0.008170011,0.788852513,0.000013719,0.000352646,-0.000171140,0.075330190,-0.053233873,9.795160294
1784243967.872864,-0.003287845,-0.008170011,0.788852513,-0.000728558,0.000538715,-0.000177108,0.072288468,-0.045521058,9.787137032
1784243967.874864,-0.003287845,-0.008170011,0.788852513,-0.000758379,0.001118292,-0.000105964,0.077748977,-0.038505342,9.798843384
1784243967.876871,-0.003287197,-0.008169046,0.788852513,-0.000436378,0.001537356,-0.000143866,0.079376973,-0.015628878,9.792266846
1784243967.878869,-0.003287197,-0.008169046,0.788852513,-0.000495577,0.001379267,-0.000409200,0.085945718,0.007629123,9.786145210
1784243967.880872,-0.003284332,-0.008169656,0.788852513,-0.000578584,0.000869987,-0.000839425,0.076680228,0.020743910,9.785772324
1784243967.882879,-0.003284332,-0.008169656,0.788852513,-0.000470103,0.001143139,-0.000824050,0.055718824,-0.043837275,9.769198418
1784243967.884885,-0.003284332,-0.008169656,0.788852513,-0.000373107,0.001429163,-0.000361040,0.070261151,-0.027980497,9.781418800
1784243967.886882,-0.003285352,-0.008168671,0.788852513,-0.000385335,0.000666355,-0.000011233,0.081181675,-0.015979011,9.775230408
1784243967.888890,-0.003285352,-0.008168671,0.788852513,0.000130729,0.000159216,0.000208598,0.082362115,-0.029867155,9.772900581
1784243967.890886,-0.003285739,-0.008169170,0.788852513,0.000824899,0.000759181,0.000230235,0.100664616,-0.035710517,9.805608749
1784243967.892884,-0.003285739,-0.008169170,0.788852513,0.000860359,0.001200876,0.000317484,0.082896903,-0.021898631,9.785505295
1784243967.894882,-0.003285739,-0.008169170,0.788852513,0.000387412,0.000573293,0.000501324,0.102251574,-0.054395266,9.783970833
1784243967.896888,-0.003286785,-0.008170295,0.788852513,0.000333425,0.000133737,0.000184515,0.079419956,-0.048421644,9.804162025
1784243967.898885,-0.003286785,-0.008170295,0.788852513,0.000810566,0.000621684,-0.000654716,0.098848909,-0.074252903,9.810290337
1784243967.900893,-0.003289251,-0.008171082,0.788852513,0.000926351,0.001355417,-0.000903312,0.092895068,-0.047672760,9.800593376
1784243967.902897,-0.003289251,-0.008171082,0.788852513,0.000754269,0.001761723,-0.000273201,0.103622302,-0.052191783,9.786676407
1784243967.904894,-0.003289251,-0.008171082,0.788852513,0.000712352,0.001426508,0.000236599,0.113097988,-0.048652519,9.775948524
1784243967.906895,-0.003289606,-0.008172604,0.788852513,0.000836038,0.000458906,0.000893027,0.086717665,-0.039878361,9.786738396
1784243967.908902,-0.003289606,-0.008172604,0.788852513,0.001273094,0.000021592,0.001156648,0.064237967,-0.041563988,9.812260628
1784243967.910903,-0.003290533,-0.008172210,0.788852513,0.001403967,0.000539087,0.000360204,0.082930110,-0.055984400,9.790218353
1784243967.912922,-0.003290533,-0.008172210,0.788852513,0.000575831,0.000817375,-0.000113704,0.072762787,-0.042893093,9.794775009
1784243967.914929,-0.003290533,-0.008172210,0.788852513,-0.000415423,0.000390553,0.000150697,0.061289635,-0.026629737,9.796663284
1784243967.916909,-0.003289973,-0.008170445,0.788852513,-0.000795876,-0.000051277,0.000541694,0.071977988,-0.033887397,9.789900780
1784243967.918915,-0.003289973,-0.008170445,0.788852513,-0.000530021,-0.000394897,0.000484288,0.088519722,-0.039844122,9.778670311
1784243967.920915,-0.003291244,-0.008171234,0.788852513,0.000081274,-0.000557625,0.000100636,0.101699367,-0.060880367,9.814862251
1784243967.922910,-0.003291244,-0.008171234,0.788852513,0.000312548,-0.000456434,-0.000412640,0.120178267,-0.019230554,9.784213066
1784243967.924919,-0.003291244,-0.008171234,0.788852513,-0.000548474,-0.000281509,-0.000805680,0.083450623,-0.013780672,9.777039528
1784243967.926914,-0.003289625,-0.008171282,0.788852513,-0.001792216,-0.000274533,-0.000913138,0.082968436,-0.016065599,9.784197807
1784243967.928910,-0.003289625,-0.008171282,0.788852513,-0.001939391,-0.000296296,-0.000882053,0.079643741,-0.030039333,9.802037239
1784243967.930910,-0.003289704,-0.008171734,0.788852513,-0.001248669,-0.000121989,-0.000983443,0.096703351,0.006592043,9.786598206
1784243967.932911,-0.003289704,-0.008171734,0.788852513,-0.000783157,-0.000243491,-0.001564200,0.078878775,-0.057251111,9.786619186
1784243967.934911,-0.003289704,-0.008171734,0.788852513,-0.000517656,-0.000404536,-0.001771174,0.090344787,-0.072354995,9.810742378
1784243967.936919,-0.003292669,-0.008172547,0.788852394,-0.000158067,-0.000024762,-0.001088536,0.087519266,-0.047130369,9.797004700
1784243967.938922,-0.003292669,-0.008172547,0.788852394,0.000157433,0.000249552,-0.000302341,0.080872729,-0.041112531,9.781792641
1784243967.940922,-0.003293163,-0.008172152,0.788852394,-0.000071078,-0.000226985,-0.000167346,0.073613077,-0.008523487,9.811584473
1784243967.942921,-0.003293163,-0.008172152,0.788852394,-0.000529761,-0.000858530,-0.000143259,0.065986574,-0.008819658,9.803954124
1784243967.944929,-0.003293163,-0.008172152,0.788852394,-0.000552982,-0.001050308,-0.000394500,0.083948053,-0.045317970,9.800598145
1784243967.946925,-0.003293864,-0.008172746,0.788852394,-0.000329949,-0.000812518,-0.000918027,0.071892999,-0.040231984,9.800170898
1784243967.948926,-0.003293864,-0.008172746,0.788852394,0.000230333,-0.000450902,-0.000431242,0.074084274,-0.007541102,9.798589706
1784243967.950927,-0.003292244,-0.008171722,0.788852394,0.000726764,-0.000228845,0.000645357,0.092450738,-0.012068833,9.772127151
1784243967.952927,-0.003292244,-0.008171722,0.788852394,0.000489388,-0.000329279,0.001210615,0.100811906,-0.062006071,9.785713196
1784243967.954932,-0.003292244,-0.008171722,0.788852394,0.000048504,-0.000268802,0.000846490,0.075546950,-0.035312258,9.794826508
1784243967.956931,-0.003292460,-0.008171042,0.788852513,-0.000431055,0.000068050,0.000077157,0.073154189,-0.009813928,9.804852486
1784243967.958933,-0.003292460,-0.008171042,0.788852513,-0.001037138,0.000079455,-0.000033709,0.083757147,-0.023419358,9.808809280
1784243967.960935,-0.003291720,-0.008171607,0.788852513,-0.000922301,-0.000191213,0.000372254,0.087141857,-0.040888142,9.801975250
1784243967.962934,-0.003291720,-0.008171607,0.788852513,-0.000279397,-0.000502527,0.000686298,0.087248258,-0.032348264,9.797994614
1784243967.964943,-0.003291720,-0.008171607,0.788852513,0.000083509,-0.000475416,0.000789961,0.079582565,-0.034169555,9.815910339
1784243967.966940,-0.003292761,-0.008171406,0.788852394,-0.000188952,-0.000015683,0.000506040,0.089228526,-0.016317789,9.808412552
1784243967.968941,-0.003292761,-0.008171406,0.788852394,-0.000659817,0.000196613,0.000225883,0.110683180,-0.024949213,9.786408424
1784243967.970941,-0.003292339,-0.008172970,0.788852394,-0.000517599,0.000128606,0.000255996,0.068332724,-0.039143808,9.779552460
1784243967.972942,-0.003292339,-0.008172970,0.788852394,-0.000232965,0.000165226,0.000585582,0.096193686,-0.035525847,9.787672043
1784243967.974962,-0.003292339,-0.008172970,0.788852394,-0.000043410,0.000245318,0.000952313,0.084500797,-0.037612990,9.787199974
1784243967.976954,-0.003291761,-0.008172680,0.788852513,-0.000032048,0.000234583,0.000966162,0.092888549,-0.049750406,9.777713776
1784243967.978986,-0.003291761,-0.008172680,0.788852513,-0.000240416,0.000124867,0.000361577,0.073058821,-0.055451296,9.796040535
1784243967.980962,-0.003293822,-0.008172629,0.788852394,-0.000210895,-0.000025691,-0.000620517,0.087936483,-0.049410902,9.801920891
1784243967.982964,-0.003293822,-0.008172629,0.788852394,0.000047784,0.000095065,-0.001171835,0.052601624,-0.039962515,9.797017097
1784243967.984960,-0.003293822,-0.008172629,0.788852394,0.000271626,0.000268222,-0.000850861,0.076259121,-0.048943825,9.820294380
1784243967.986955,-0.003294904,-0.008171131,0.788852394,0.000137922,-0.000076611,0.000390771,0.086305790,-0.036339797,9.793934822
1784243967.988956,-0.003294904,-0.008171131,0.788852394,-0.000210663,-0.000127673,0.001386262,0.109170690,-0.036782447,9.815023422
1784243967.990956,-0.003294847,-0.008172398,0.788852394,-0.000129968,0.000607589,0.001773318,0.091655180,-0.039522257,9.790781021
1784243967.992967,-0.003294847,-0.008172398,0.788852394,0.000053142,0.000943666,0.002090473,0.093125388,-0.030859726,9.767076492
1784243967.994958,-0.003294847,-0.008172398,0.788852394,-0.000362469,0.000477435,0.001829285,0.069451213,-0.019578561,9.798508644
1784243967.996962,-0.003293566,-0.008172247,0.788852394,-0.000557993,-0.000094035,0.001096336,0.082717784,-0.036281090,9.792137146
1784243967.998960,-0.003293566,-0.008172247,0.788852394,-0.000177731,-0.000695088,0.000417778,0.077010728,-0.023863748,9.820456505
1784243968.000970,-0.003293253,-0.008172066,0.788852394,-0.000078868,-0.000774253,0.000448673,0.078148477,-0.040925778,9.823486328
1784243968.002971,-0.003293253,-0.008172066,0.788852394,-0.000015485,0.000102357,0.000765200,0.084430784,-0.041813157,9.810933113
1784243968.004970,-0.003293253,-0.008172066,0.788852394,-0.000181969,0.000964222,0.000184361,0.070800878,-0.056347083,9.800067902
1784243968.006964,-0.003294634,-0.008171514,0.788852394,-0.001245455,0.001351913,-0.000512386,0.075742245,-0.056365814,9.793796539
1784243968.008968,-0.003294634,-0.008171514,0.788852394,-0.002330839,0.001489270,-0.000299188,0.118309751,-0.022626275,9.824090004
1784243968.010977,-0.003294559,-0.008173646,0.788852394,-0.002474250,0.001345707,0.000289039,0.102176718,-0.023880463,9.777441025
1784243968.012982,-0.003294559,-0.008173646,0.788852394,-0.001527563,0.001341325,0.000142126,0.086926252,-0.023237024,9.777431488
1784243968.014980,-0.003294559,-0.008173646,0.788852394,-0.000602101,0.001407588,0.000035864,0.057987943,-0.041232303,9.776839256
1784243968.016977,-0.003295262,-0.008172612,0.788852394,-0.000603414,0.001043849,0.000821571,0.068401083,-0.034146283,9.769720078
1784243968.018976,-0.003295262,-0.008172612,0.788852394,-0.000729518,0.000871321,0.001213748,0.088217936,-0.025710298,9.807902336
1784243968.020989,-0.003294984,-0.008173642,0.788852394,-0.000816700,0.001002555,0.000688553,0.109519362,-0.047303975,9.781781197
1784243968.022990,-0.003294984,-0.008173642,0.788852394,-0.000992499,0.000774608,0.000430335,0.066825733,-0.052149225,9.783950806
1784243968.025015,-0.003294984,-0.008173642,0.788852394,-0.000620177,0.000220744,0.000962933,0.100793846,-0.025369257,9.800294876
1784243968.026988,-0.003294354,-0.008174144,0.788852394,0.000066187,-0.000223989,0.001477717,0.125522345,-0.021644279,9.798997879
1784243968.028991,-0.003294354,-0.008174144,0.788852394,0.000098522,-0.000536843,0.000859201,0.096170165,-0.036116891,9.807843208
1784243968.030989,-0.003294572,-0.008174938,0.788852394,-0.000314294,-0.001046375,0.000135580,0.076412030,-0.036794819,9.812750816
1784243968.032990,-0.003294572,-0.008174938,0.788852394,-0.000560794,-0.001208136,0.000584480,0.043621480,-0.039085157,9.815843582
1784243968.034989,-0.003294572,-0.008174938,0.788852394,-0.000534584,-0.000733004,0.000716559,0.067560889,0.009580373,9.796900749
1784243968.036992,-0.003298518,-0.008165589,0.788829505,-0.000237133,-0.000431982,-0.000047837,0.078472510,-0.029013617,9.785903931
1784243968.038997,-0.003298518,-0.008165589,0.788829505,-0.000187401,-0.000517588,-0.000390371,0.050328005,-0.079382345,9.799901009
1784243968.040995,-0.003300578,-0.008164174,0.788829505,-0.000247690,-0.000584983,-0.000628051,0.086688302,-0.081347354,9.758676529
1784243968.042988,-0.003300578,-0.008164174,0.788829505,-0.000073187,-0.000492663,-0.000763959,0.099635482,-0.048086133,9.783559799
1784243968.044990,-0.003300578,-0.008164174,0.788829505,0.000341622,-0.000450051,-0.000284989,0.106345885,-0.048331354,9.805981636
1784243968.046993,-0.003301398,-0.008164939,0.788829505,0.000823625,-0.000545947,-0.000098952,0.123478517,-0.041824043,9.805143356
1784243968.048997,-0.003301398,-0.008164939,0.788829505,0.000563790,-0.000354683,-0.000378134,0.077087723,-0.018392829,9.807043076
1784243968.050994,-0.003300855,-0.008164168,0.788829505,-0.000151575,-0.000319222,-0.000330204,0.053465649,-0.043884836,9.779955864
1784243968.052995,-0.003300855,-0.008164168,0.788829505,0.000008477,-0.000823153,-0.000224950,0.074292749,-0.026869589,9.806985855
1784243968.055001,-0.003300855,-0.008164168,0.788829505,0.000560710,-0.001085525,-0.000381671,0.096984938,-0.044480663,9.785373688
1784243968.057006,-0.003301306,-0.008165386,0.788829505,0.001093179,-0.000936301,-0.000457634,0.077914633,-0.062224410,9.794656754
1784243968.059005,-0.003301306,-0.008165386,0.788829505,0.001665834,-0.000451934,-0.000456430,0.078360751,-0.025065904,9.798033714
1784243968.061006,-0.003300932,-0.008165367,0.788829505,0.001543465,0.000141505,-0.000581433,0.084904782,-0.040808514,9.794799805
1784243968.063004,-0.003300932,-0.008165367,0.788829505,0.001141232,0.000054996,-0.000639780,0.107106403,-0.023991400,9.784170151
1784243968.065011,-0.003300932,-0.008165367,0.788829505,0.000895582,-0.000638618,-0.000667672,0.084808990,-0.010459063,9.811584473
1784243968.067010,-0.003299918,-0.008165505,0.788829505,0.000646867,-0.000891610,-0.000614489,0.069453113,-0.017942525,9.820488930
1784243968.069007,-0.003299918,-0.008165505,0.788829505,0.000617656,-0.000306242,-0.000137973,0.066759065,-0.017517297,9.828557968
1784243968.071016,-0.003298801,-0.008164884,0.788829505,0.001086685,0.000260449,-0.000042000,0.075971320,-0.035915401,9.815895081
1784243968.073010,-0.003298801,-0.008164884,0.788829505,0.001425122,0.000279987,-0.000407525,0.086854845,-0.027853366,9.796677589
1784243968.075037,-0.003298801,-0.008164884,0.788829505,0.000891290,0.000067538,-0.000495791,0.103628531,-0.014147495,9.792300224
1784243968.077032,-0.003298070,-0.008166746,0.788829505,0.000104176,-0.000049152,-0.000199476,0.092387147,-0.016218133,9.788688660
1784243968.079022,-0.003298070,-0.008166746,0.788829505,0.000146141,-0.000086575,-0.000018475,0.086986326,-0.052652784,9.818489075
1784243968.081029,-0.003300158,-0.008166520,0.788829505,0.000355707,-0.000312873,-0.000031856,0.068287611,-0.042336766,9.787601471
1784243968.083029,-0.003300158,-0.008166520,0.788829505,-0.000011572,-0.000163480,-0.000473923,0.084243752,-0.058689412,9.790202141
1784243968.085025,-0.003300158,-0.008166520,0.788829505,-0.000185766,0.000179441,-0.000975029,0.083746485,-0.061498627,9.808116913
1784243968.087028,-0.003302301,-0.008167292,0.788829505,-0.000211167,-0.000114693,-0.000873603,0.063563645,-0.024796685,9.786812782
1784243968.089111,-0.003302301,-0.008167292,0.788829505,-0.000343260,-0.000760830,-0.000621783,0.087337039,-0.025568431,9.789521217
1784243968.091041,-0.003303306,-0.008168384,0.788829505,-0.000074977,-0.001000478,-0.000598934,0.086631350,-0.047449186,9.780413628
1784243968.093042,-0.003303306,-0.008168384,0.788829505,-0.000055153,-0.000687410,-0.000543748,0.094565988,-0.056778982,9.818020821
1784243968.095044,-0.003303306,-0.008168384,0.788829505,-0.000599026,-0.000255331,-0.000503296,0.079262801,-0.025445871,9.786824226
1784243968.097036,-0.003303977,-0.008167274,0.788829505,-0.000885131,0.000184906,-0.000581264,0.088460520,-0.043148372,9.802411079
1784243968.099039,-0.003303977,-0.008167274,0.788829505,-0.001094380,0.000468517,-0.000457752,0.063891105,-0.034270033,9.795271873
1784243968.101042,-0.003304502,-0.008165443,0.788829505,-0.000958046,0.000688241,-0.000078415,0.054362591,-0.043089442,9.792515755
1784243968.103039,-0.003304502,-0.008165443,0.788829505,-0.000550275,0.000935310,0.000144748,0.043188889,-0.038952220,9.797911644
1784243968.105040,-0.003304502,-0.008165443,0.788829505,-0.000523019,0.001156750,-0.000108069,0.089700289,-0.014925602,9.800800323
1784243968.107043,-0.003303250,-0.008165281,0.788829505,-0.000105939,0.001312456,-0.000075023,0.118168779,-0.035086516,9.812354088
1784243968.109049,-0.003303250,-0.008165281,0.788829505,0.000786762,0.000769684,0.000253212,0.071241640,-0.055199735,9.826975822
1784243968.111044,-0.003304332,-0.008165433,0.788829505,0.000962823,-0.000156376,-0.000197352,0.069596782,-0.044266686,9.804627419
1784243968.113048,-0.003304332,-0.008165433,0.788829505,0.000482666,-0.000248356,-0.000541355,0.068456165,-0.026416846,9.816844940
1784243968.115048,-0.003304332,-0.008165433,0.788829505,0.000262265,0.000128020,0.000059154,0.081484810,-0.026049763,9.804755211
1784243968.117046,-0.003304625,-0.008165354,0.788829505,0.000661600,0.000394730,0.000732139,0.075622439,-0.028637351,9.801146507
1784243968.119052,-0.003304625,-0.008165354,0.788829505,0.000917673,0.000715285,0.001241102,0.098051339,-0.029379137,9.802060127
1784243968.121050,-0.003304654,-0.008165820,0.788829505,0.000416666,0.000832328,0.001267150,0.056795824,-0.027436368,9.792168617
1784243968.123050,-0.003304654,-0.008165820,0.788829505,-0.000150346,0.000561669,0.000976941,0.072246768,-0.010691990,9.803948402
1784243968.125053,-0.003304654,-0.008165820,0.788829505,-0.000655540,0.000326060,0.001324773,0.073484689,-0.019668456,9.803892136
1784243968.127052,-0.003302907,-0.008165820,0.788829505,-0.001347046,0.000337901,0.001578673,0.066224098,-0.025892442,9.810122490
1784243968.129057,-0.003302907,-0.008165820,0.788829505,-0.001246228,0.000832850,0.000648094,0.080274098,-0.014426859,9.810657501
1784243968.131058,-0.003301432,-0.008167265,0.788829505,-0.000300686,0.001579992,-0.000026284,0.108521029,-0.056194458,9.773653030
1784243968.133059,-0.003301432,-0.008167265,0.788829505,0.000270337,0.001471711,0.000435363,0.125290126,-0.040093355,9.810535431
1784243968.135060,-0.003301432,-0.008167265,0.788829505,0.000265040,0.000823388,0.000442892,0.106321707,-0.051358975,9.790718079
1784243968.137065,-0.003302879,-0.008168469,0.788829505,0.000049106,0.000628347,-0.000362746,0.078964412,-0.010879979,9.818302155
1784243968.139061,-0.003302879,-0.008168469,0.788829505,-0.000248440,0.001006541,-0.000423467,0.081136003,-0.016744938,9.820057869
1784243968.141066,-0.003302042,-0.008168617,0.788829505,-0.000722017,0.001082844,0.000180646,0.116877899,-0.032606889,9.780986786
1784243968.143081,-0.003302042,-0.008168617,0.788829505,-0.000945890,0.000510694,0.000039773,0.079643853,-0.028822642,9.819979668
1784243968.145076,-0.003302042,-0.008168617,0.788829505,-0.000623091,-0.000127118,-0.000099414,0.070740461,-0.024907751,9.789509773
1784243968.147083,-0.003302357,-0.008167555,0.788829505,0.000208443,-0.000546294,0.000143374,0.077996172,-0.017911850,9.800770760
1784243968.149086,-0.003302357,-0.008167555,0.788829505,0.001286199,-0.000764317,-0.000075660,0.100082122,-0.047297712,9.797913551
1784243968.151113,-0.003303730,-0.008169116,0.788829505,0.001550716,-0.000663108,-0.000631742,0.074513465,-0.045696072,9.807762146
1784243968.153095,-0.003303730,-0.008169116,0.788829505,0.001278724,-0.000115614,-0.001161304,0.092980862,-0.003731846,9.795943260
1784243968.155089,-0.003303730,-0.008169116,0.788829505,0.001421335,0.000115016,-0.001132288,0.110047609,-0.003013059,9.790135384
1784243968.157108,-0.003302399,-0.008170096,0.788829505,0.001991689,0.000093800,-0.000425495,0.101868376,-0.011014204,9.795905113
1784243968.159118,-0.003302399,-0.008170096,0.788829505,0.002429620,0.000456750,-0.000016770,0.062780350,-0.014158122,9.804366112
1784243968.161100,-0.003301546,-0.008169150,0.788829505,0.002133390,0.000586341,-0.000135939,0.090472370,-0.026463265,9.783690453
1784243968.163096,-0.003301546,-0.008169150,0.788829505,0.001441613,0.000198241,0.000044581,0.065280549,-0.028676819,9.825346947
1784243968.165115,-0.003301546,-0.008169150,0.788829505,0.000756520,-0.000083418,0.000320220,0.098584987,-0.022230221,9.803899765
1784243968.167091,-0.003300507,-0.008169445,0.788829505,0.000386226,-0.000161785,0.000160895,0.092924587,-0.043387104,9.827968597
1784243968.169088,-0.003300507,-0.008169445,0.788829505,0.000009493,-0.000231403,-0.000659432,0.093803108,-0.047194954,9.794767380
1784243968.171099,-0.003301503,-0.008170051,0.788829505,-0.000754027,-0.000331729,-0.001113670,0.087267347,-0.031792197,9.782755852
1784243968.173092,-0.003301503,-0.008170051,0.788829505,-0.001200993,-0.000158985,-0.000630704,0.081879139,0.005431521,9.787472725
1784243968.175094,-0.003301503,-0.008170051,0.788829505,-0.000960510,0.000430170,-0.000510060,0.086932294,-0.020352488,9.812867165
1784243968.177096,-0.003299757,-0.008170729,0.788829505,-0.000261060,0.000748593,-0.000891304,0.054468308,-0.033339225,9.807372093
1784243968.179103,-0.003299757,-0.008170729,0.788829505,0.000336345,0.000710622,-0.001332867,0.085477896,-0.030511161,9.794867516
1784243968.181106,-0.003299968,-0.008171016,0.788829505,0.000209856,0.000528352,-0.001872916,0.076304354,-0.047371008,9.788024902
1784243968.183104,-0.003299968,-0.008171016,0.788829505,-0.000244030,0.000451587,-0.001959718,0.079878844,-0.047131199,9.810895920
1784243968.185125,-0.003299968,-0.008171016,0.788829505,-0.000230744,0.000498069,-0.001714955,0.084194906,-0.063127697,9.784344673
1784243968.187105,-0.003301432,-0.008170305,0.788829505,-0.000026805,0.000080521,-0.001647165,0.088544928,-0.037213590,9.786756516
1784243968.189111,-0.003301432,-0.008170305,0.788829505,0.000065181,-0.000299030,-0.000948425,0.102411136,-0.039761987,9.805135727
1784243968.191111,-0.003301708,-0.008171191,0.788829505,-0.000222984,0.000039720,-0.000346278,0.082248293,-0.038870893,9.779119492
1784243968.193114,-0.003301708,-0.008171191,0.788829505,-0.000919770,0.000277509,-0.000522205,0.081069186,-0.023756515,9.798044205
1784243968.195116,-0.003301708,-0.008171191,0.788829505,-0.000941957,0.000158511,-0.000813689,0.083216086,-0.031032128,9.809208870
1784243968.197111,-0.003301870,-0.008171587,0.788829505,-0.000559858,0.000208865,-0.000591393,0.088985249,-0.035259344,9.826224327
1784243968.199117,-0.003301870,-0.008171587,0.788829505,-0.000535353,0.000316407,0.000202353,0.087255165,-0.030267442,9.820425987
1784243968.201114,-0.003301407,-0.008171720,0.788829505,-0.000555521,0.000145385,0.000418102,0.081395909,-0.034046289,9.795289040
1784243968.203118,-0.003301407,-0.008171720,0.788829505,-0.000333834,-0.000048325,-0.000309275,0.081287846,-0.041788813,9.813173294
1784243968.205114,-0.003301407,-0.008171720,0.788829505,0.000245370,0.000038385,-0.000566452,0.073577039,-0.049639914,9.796975136
1784243968.207113,-0.003302580,-0.008171431,0.788829505,0.000575918,0.000099992,-0.000338764,0.064880319,0.013353993,9.838168144
1784243968.209127,-0.003302580,-0.008171431,0.788829505,0.000781037,0.000181477,-0.000208853,0.087490223,-0.011796105,9.805748940
1784243968.211128,-0.003302567,-0.008172151,0.788829505,0.001241797,0.000632688,0.000014827,0.069594771,-0.044282589,9.806869507
1784243968.213124,-0.003302567,-0.008172151,0.788829505,0.001234448,0.000983863,0.000050993,0.091226093,-0.037740566,9.793033600
1784243968.215125,-0.003302567,-0.008172151,0.788829505,0.000716094,0.000580358,-0.000107667,0.081116714,-0.020544469,9.787304878
1784243968.217127,-0.003302713,-0.008171487,0.788829505,0.000300179,-0.000016175,-0.000712395,0.049380954,-0.046225518,9.801457405
1784243968.219139,-0.003302713,-0.008171487,0.788829505,0.000414551,-0.000328807,-0.001223798,0.085749492,-0.044883467,9.799259186
1784243968.221136,-0.003303433,-0.008172283,0.788829505,0.000389240,-0.000468267,-0.001126683,0.079773873,-0.056064989,9.807251930
1784243968.223132,-0.003303433,-0.008172283,0.788829505,0.000047626,-0.000385610,-0.001181785,0.102747813,-0.048352126,9.815392494
1784243968.225155,-0.003303433,-0.008172283,0.788829505,-0.000113657,-0.000543549,-0.001024433,0.086659253,-0.046013098,9.767420769
1784243968.227139,-0.003304561,-0.008173027,0.788829505,-0.000544309,-0.000985080,0.000044626,0.055467043,-0.024445560,9.815052986
1784243968.229143,-0.003304561,-0.008173027,0.788829505,-0.000673341,-0.000983741,0.000663050,0.076424569,0.000083643,9.793262482
1784243968.231141,-0.003303047,-0.008173145,0.788829505,-0.000072956,-0.000481406,0.000323183,0.089944556,0.004428935,9.787920952
1784243968.233138,-0.003303047,-0.008173145,0.788829505,0.000128713,-0.000062130,0.000599019,0.074322954,-0.023794275,9.815523148
1784243968.235138,-0.003303047,-0.008173145,0.788829505,-0.000106727,0.000100559,0.001267906,0.070334621,-0.021321490,9.789980888
1784243968.237140,-0.003302941,-0.008172777,0.788829505,-0.000043360,0.000058647,0.001086746,0.078275762,-0.031410486,9.808303833
1784243968.239159,-0.003302941,-0.008172777,0.788829505,0.000473668,0.000042585,0.000702876,0.065235429,-0.034706619,9.791234970
1784243968.241151,-0.003302824,-0.008171950,0.788829505,0.000925384,0.000369626,0.000822378,0.088099964,-0.035962526,9.800662994
1784243968.243149,-0.003302824,-0.008171950,0.788829505,0.001126620,0.000518479,0.001035095,0.068542063,-0.056439169,9.817101479
1784243968.245154,-0.003302824,-0.008171950,0.788829505,0.000836434,0.000326747,0.001007172,0.079465643,-0.044818874,9.801494598
1784243968.247151,-0.003303207,-0.008171505,0.788829505,0.000375197,0.000495643,0.001006205,0.101851039,-0.048740901,9.808664322
1784243968.249157,-0.003303207,-0.008171505,0.788829505,0.000514235,0.001081317,0.001044936,0.086814627,-0.031818237,9.787238121
1784243968.251156,-0.003302953,-0.008171403,0.788829505,0.000958687,0.001328377,0.000404780,0.044521183,-0.040294267,9.795214653
1784243968.253156,-0.003302953,-0.008171403,0.788829505,0.001351860,0.001167618,-0.000388289,0.104061306,-0.013873802,9.816062927
1784243968.255159,-0.003302953,-0.008171403,0.788829505,0.001203162,0.001122103,-0.000135940,0.084558912,-0.033101577,9.782745361
1784243968.257159,-0.003302693,-0.008171110,0.788829505,0.000589890,0.001360173,0.000734571,0.073307589,-0.034035012,9.808282852
1784243968.259167,-0.003302693,-0.008171110,0.788829505,0.000014298,0.001301668,0.001258922,0.098270699,-0.011031807,9.804868698
1784243968.261166,-0.003301699,-0.008172669,0.788829505,-0.000391219,0.000722907,0.000988075,0.067201257,-0.019600697,9.805680275
1784243968.263165,-0.003301699,-0.008172669,0.788829505,-0.000430640,0.000463395,0.000322729,0.078155786,-0.006925486,9.767663002
1784243968.265164,-0.003301699,-0.008172669,0.788829505,-0.000620643,0.000454747,0.000055402,0.096473403,-0.013054659,9.777503967
1784243968.267169,-0.003300330,-0.008172450,0.788829505,-0.001212254,0.000345227,-0.000122586,0.091697931,-0.034321606,9.815472603
1784243968.269169,-0.003300330,-0.008172450,0.788829505,-0.000990473,0.000403284,-0.000394858,0.085193589,-0.053423949,9.804135323
1784243968.271168,-0.003301346,-0.008172560,0.788829505,-0.000123774,0.000508090,-0.000284856,0.060282841,-0.035587002,9.797949791
1784243968.273168,-0.003301346,-0.008172560,0.788829505,0.000001515,0.000660233,0.000065675,0.074826479,-0.056093954,9.820248604
1784243968.275172,-0.003301346,-0.008172560,0.788829505,-0.000503441,0.000778493,0.000157660,0.070867233,-0.013775494,9.798995018
1784243968.277180,-0.003301601,-0.008172760,0.788829505,-0.000748163,0.000539552,0.000186952,0.076956309,0.008433355,9.815283775
1784243968.279183,-0.003301601,-0.008172760,0.788829505,-0.000531815,0.000108246,0.000369950,0.097148925,-0.029812416,9.801608086
1784243968.281178,-0.003302225,-0.008174558,0.788829505,-0.000304554,-0.000476032,0.000393558,0.102388300,-0.076316506,9.842114449
1784243968.283221,-0.003302225,-0.008174558,0.788829505,-0.000229177,-0.000900147,0.000320362,0.107172176,-0.016582739,9.813360214
1784243968.285187,-0.003302225,-0.008174558,0.788829505,-0.000317991,-0.001100229,0.000375729,0.069768660,-0.029941471,9.806064606
1784243968.287188,-0.003302383,-0.008174602,0.788829505,-0.001035302,-0.001365941,0.000576824,0.064962588,-0.019533785,9.800299644
1784243968.289186,-0.003302383,-0.008174602,0.788829505,-0.001574874,-0.001469108,0.000687693,0.068509899,-0.022750484,9.805212975
1784243968.291186,-0.003301717,-0.008174246,0.788829505,-0.001080041,-0.001496188,0.000174428,0.116002880,-0.029987112,9.792209625
1784243968.293189,-0.003301717,-0.008174246,0.788829505,-0.000682296,-0.001460991,-0.000415736,0.111004673,-0.035280328,9.789482117
1784243968.295198,-0.003301717,-0.008174246,0.788829505,-0.000933711,-0.001251406,-0.000538619,0.078645162,-0.038526386,9.800189972
1784243968.297193,-0.003301949,-0.008174464,0.788829505,-0.000590808,-0.001012409,-0.000951754,0.057832543,-0.014190277,9.817811012
1784243968.299197,-0.003301949,-0.008174464,0.788829505,0.000545401,-0.000811529,-0.001305316,0.080431908,-0.041449811,9.766994476
1784243968.301195,-0.003302181,-0.008174566,0.788829505,0.001137847,-0.000680763,-0.001545291,0.098877914,-0.036434002,9.784530640
1784243968.303194,-0.003302181,-0.008174566,0.788829505,0.000649473,-0.000430261,-0.001937328,0.068708919,-0.045395579,9.775925636
1784243968.305195,-0.003302181,-0.008174566,0.788829505,0.000127751,-0.000341734,-0.001285017,0.074411720,-0.054604415,9.800530434
1784243968.307196,-0.003302642,-0.008174204,0.788829505,0.000030188,-0.000717583,0.000054668,0.076392159,-0.075757287,9.810259819
1784243968.309198,-0.003302642,-0.008174204,0.788829505,0.000017060,-0.000825036,0.000219301,0.082078628,-0.049936742,9.823431969
1784243968.311201,-0.003302941,-0.008174646,0.788829505,0.000321000,-0.000435949,-0.000108958,0.071266219,-0.017415810,9.806145668
1784243968.313201,-0.003302941,-0.008174646,0.788829505,0.000668687,-0.000067079,0.000176087,0.107137822,-0.020906549,9.791362762
1784243968.315206,-0.003302941,-0.008174646,0.788829505,0.000503418,0.000024167,0.000707019,0.088839479,-0.048567813,9.807755470
1784243968.317208,-0.003303246,-0.008176564,0.788829505,0.000184043,-0.000030001,0.000569306,0.039260760,-0.029925352,9.795723915
1784243968.319207,-0.003303246,-0.008176564,0.788829505,0.000260856,0.000002630,-0.000089729,0.083616912,-0.037900008,9.766124725
1784243968.321207,-0.003303080,-0.008176843,0.788829505,0.000748986,-0.000157698,-0.000660427,0.098187149,-0.017770300,9.807515144
1784243968.323210,-0.003303080,-0.008176843,0.788829505,0.001354923,-0.000634301,-0.001547129,0.099677160,-0.006925194,9.791893959
1784243968.325240,-0.003303080,-0.008176843,0.788829505,0.001159167,-0.001283384,-0.001744481,0.065860838,-0.020349002,9.787291527
1784243968.327214,-0.003302163,-0.008176192,0.788829505,0.000417100,-0.001774520,-0.000788144,0.071924999,-0.036737330,9.812747955
1784243968.329212,-0.003302163,-0.008176192,0.788829505,0.000083356,-0.001449131,-0.000322000,0.098841079,-0.039966818,9.777334213
1784243968.331213,-0.003302240,-0.008177638,0.788829505,-0.000116137,-0.000685933,-0.000737595,0.071093313,-0.031343933,9.811884880
1784243968.333216,-0.003302240,-0.008177638,0.788829505,0.000313369,-0.000478135,-0.001041378,0.048351198,-0.058200866,9.786136627
1784243968.335217,-0.003302240,-0.008177638,0.788829505,0.000914509,-0.000349967,-0.000919368,0.085142195,-0.021508036,9.789544106
1784243968.337219,-0.003302082,-0.008178065,0.788829505,0.000541547,0.000074028,-0.000486947,0.095610343,-0.046309318,9.792982101
1784243968.339222,-0.003302082,-0.008178065,0.788829505,0.000030443,-0.000045721,-0.000301064,0.067703798,-0.089903310,9.798952103
1784243968.341228,-0.003305250,-0.008176876,0.788829505,0.000053190,-0.000441542,-0.000437518,0.042692538,-0.043375205,9.790708542
1784243968.343224,-0.003305250,-0.008176876,0.788829505,-0.000178478,-0.000277237,-0.000534797,0.071768820,-0.050938539,9.793827057
1784243968.345225,-0.003305250,-0.008176876,0.788829505,-0.000705280,0.000170415,-0.000622456,0.080706961,-0.053363282,9.803683281
1784243968.347241,-0.003307209,-0.008176441,0.788829505,-0.000858418,0.000150282,-0.000399049,0.072133288,-0.056472450,9.815311432
1784243968.349239,-0.003307209,-0.008176441,0.788829505,-0.001318292,-0.000327943,-0.000347746,0.067586191,-0.061752331,9.809892654
1784243968.351239,-0.003308830,-0.008175327,0.788829446,-0.001508909,-0.000765997,-0.000617524,0.098198585,-0.054864608,9.794275284
1784243968.353233,-0.003308830,-0.008175327,0.788829446,-0.000396729,-0.000581939,0.000057224,0.116987340,-0.059201311,9.803232193
1784243968.355235,-0.003308830,-0.008175327,0.788829446,0.000669535,0.000011940,0.001436278,0.077181868,-0.010354968,9.810679436
1784243968.357236,-0.003306989,-0.008175598,0.788829505,0.000885863,0.000328164,0.001861708,0.072606906,-0.017881017,9.806144714
1784243968.359237,-0.003306989,-0.008175598,0.788829505,0.000898437,0.000314082,0.001195239,0.083207749,0.002034082,9.758759499
1784243968.361240,-0.003304795,-0.008175142,0.788829505,0.001090168,0.000446403,0.000620548,0.060155284,-0.009135645,9.795876503
1784243968.363241,-0.003304795,-0.008175142,0.788829505,0.001173198,0.000414757,0.000634333,0.048234284,-0.031260211,9.778238297
1784243968.365254,-0.003304795,-0.008175142,0.788829505,0.000652742,0.000164310,0.000588029,0.085476570,-0.031737398,9.778271675
