time_sec,roll_rad,pitch_rad,yaw_rad,gyro_x,gyro_y,gyro_z,acc_x,acc_y,acc_z
1784242070.686255,-0.006287394,-0.004169037,-0.017305076,0.000010713,0.000288378,0.001151664,0.063086063,-0.061393142,9.830514908
1784242070.688180,-0.006287921,-0.004176093,-0.017309273,0.000089024,-0.000268107,0.000615645,0.055379111,-0.069619067,9.804003716
1784242070.690157,-0.006291962,-0.004176924,-0.017308665,-0.000251044,-0.000615110,0.000206803,0.043441940,-0.056307625,9.780763626
1784242070.692135,-0.006290453,-0.004180816,-0.017312033,-0.000371186,-0.000761611,-0.000036083,0.033241820,-0.081470460,9.809286118
1784242070.694170,-0.006292632,-0.004181666,-0.017311152,-0.000332195,-0.000869811,-0.000194779,0.023055444,-0.072582141,9.774810791
1784242070.696165,-0.006295824,-0.004178793,-0.017312381,-0.000606614,-0.000496273,-0.000163934,0.051418293,-0.062876530,9.808075905
1784242070.698127,-0.006298733,-0.004176124,-0.017322384,-0.000784132,0.000014132,-0.000880224,0.039190270,-0.036155473,9.789855003
1784242070.700132,-0.006296141,-0.004179148,-0.017321751,-0.000520299,-0.000015041,-0.001277281,0.051328756,-0.070472777,9.805337906
1784242070.702119,-0.006296009,-0.004184180,-0.017319808,-0.000136445,-0.000529318,-0.000756644,0.056586526,-0.083294176,9.771636963
1784242070.704110,-0.006294196,-0.004186135,-0.017320240,0.000089904,-0.000830950,-0.000449250,0.044139098,-0.108863503,9.798359871
1784242070.706121,-0.006296590,-0.004180884,-0.017316928,0.000026761,-0.000382809,-0.000131699,0.029692831,-0.077456415,9.818274498
1784242070.708159,-0.006300177,-0.004178611,-0.017316563,-0.000341872,0.000216791,0.000154798,0.009709236,-0.060966164,9.803566933
1784242070.710145,-0.006299689,-0.004183467,-0.017322864,-0.000417390,-0.000028473,-0.000289851,0.027020762,-0.039672967,9.802373886
1784242070.712126,-0.006295404,-0.004180994,-0.017323796,-0.000020398,-0.000229464,-0.000703438,0.029227497,-0.044044595,9.783069611
1784242070.714136,-0.006292466,-0.004174210,-0.017318849,0.000438275,0.000409605,-0.000241910,0.050834607,-0.036883280,9.808241844
1784242070.716125,-0.006294057,-0.004168702,-0.017316071,0.000412947,0.001129474,0.000347879,0.066125065,-0.070748352,9.817455292
1784242070.718142,-0.006299571,-0.004164479,-0.017318105,-0.000201772,0.001591201,0.000306891,0.062791891,-0.087625705,9.802549362
1784242070.720114,-0.006300127,-0.004164286,-0.017319333,-0.000580518,0.001568496,0.000004363,0.048659790,-0.068633728,9.803554535
1784242070.722123,-0.006298170,-0.004166091,-0.017317632,-0.000283764,0.001058253,0.000034860,0.015094416,-0.060218725,9.814784050
1784242070.724111,-0.006294233,-0.004168864,-0.017318586,0.000237578,0.000485154,0.000074491,0.038079727,-0.054036986,9.786151886
1784242070.726142,-0.006294804,-0.004167345,-0.017315285,0.000402303,0.000267303,0.000212443,0.035902508,-0.048216537,9.790669441
1784242070.728115,-0.006296081,-0.004167050,-0.017309608,0.000143891,0.000325904,0.000764845,0.034639549,-0.041463975,9.788471222
1784242070.730112,-0.006294784,-0.004166877,-0.017308967,0.000081656,0.000278347,0.000986442,0.056663647,-0.039016582,9.782680511
1784242070.732110,-0.006288482,-0.004171944,-0.017310461,0.000504629,-0.000028348,0.000659704,0.074434280,-0.054426357,9.775424957
1784242070.734122,-0.006281572,-0.004170772,-0.017311374,0.001193467,-0.000183216,0.000314354,0.053749878,-0.095341906,9.769762993
1784242070.736116,-0.006285611,-0.004171072,-0.017310500,0.001064450,-0.000074240,0.000225470,0.030660484,-0.073671184,9.788261414
1784242070.738116,-0.006294411,-0.004172990,-0.017314974,-0.000026260,-0.000252653,-0.000076975,0.037659857,-0.051372081,9.790204048
1784242070.740129,-0.006298715,-0.004177266,-0.017320503,-0.000840793,-0.000649742,-0.000732066,0.021954471,-0.051177215,9.791086197
1784242070.742151,-0.006284082,-0.004179623,-0.017319266,0.000082801,-0.001029694,-0.000828300,0.018016679,-0.042226668,9.799659729
1784242070.744292,-0.006273712,-0.004177161,-0.017317232,0.001753845,-0.000852368,-0.000388838,0.022014894,-0.045026585,9.808162689
1784242070.746160,-0.006273141,-0.004168229,-0.017313618,0.002021945,0.000150012,0.000097128,0.061516915,-0.081778601,9.801688194
1784242070.748138,-0.006272295,-0.004164450,-0.017316418,0.001587207,0.001069013,0.000126267,0.059464604,-0.067272015,9.781605721
1784242070.750156,-0.006274671,-0.004162117,-0.017320834,0.001068062,0.001294018,-0.000396857,0.047999106,-0.085701376,9.810616493
1784242070.752134,-0.006275917,-0.004163035,-0.017326852,0.000668217,0.001081511,-0.000996702,0.064579278,-0.088112563,9.804790497
1784242070.754147,-0.006274314,-0.004162071,-0.017330991,0.000647106,0.000833682,-0.001415719,0.050945658,-0.063464999,9.828696251
1784242070.756143,-0.006272009,-0.004162704,-0.017323164,0.000737749,0.000628243,-0.000782245,0.028016388,-0.067177996,9.825063705
1784242070.758162,-0.006269472,-0.004160433,-0.017321704,0.000875772,0.000529480,0.000058721,0.033780113,-0.074690014,9.799914360
1784242070.760153,-0.006266786,-0.004159745,-0.017329030,0.000997850,0.000553605,-0.000357029,0.055362545,-0.034186229,9.798850060
1784242070.762168,-0.006258721,-0.004163539,-0.017327316,0.001318066,0.000226590,-0.000643398,0.059801508,-0.038675644,9.792100906
1784242070.764147,-0.006259030,-0.004164674,-0.017327756,0.001349976,-0.000138337,-0.000383694,0.047478143,-0.054755121,9.807229996
1784242070.766138,-0.006267310,-0.004163072,-0.017326893,0.000400576,-0.000069379,-0.000248338,0.039503504,-0.084546760,9.789544106
1784242070.768136,-0.006269570,-0.004159687,-0.017322257,-0.000305863,0.000356897,0.000195323,0.040403098,-0.084135741,9.793135643
1784242070.770139,-0.006263759,-0.004162215,-0.017323995,0.000135219,0.000388248,0.000337971,0.057500061,-0.042751670,9.802383423
1784242070.772136,-0.006256822,-0.004166317,-0.017326273,0.000885921,-0.000112643,-0.000029695,0.058218751,-0.019552480,9.815087318
1784242070.774138,-0.006256217,-0.004161364,-0.017334385,0.001077715,0.000032926,-0.000728499,0.018217670,-0.026455818,9.786759377
1784242070.776137,-0.006253267,-0.004160679,-0.017341444,0.001022268,0.000413057,-0.001561286,0.040923335,-0.040718488,9.798345566
1784242070.778192,-0.006248455,-0.004160916,-0.017337592,0.001229328,0.000340344,-0.001357186,0.042112414,-0.054133240,9.792431831
1784242070.780151,-0.006248980,-0.004155156,-0.017334536,0.001147192,0.000627664,-0.000521006,0.039272666,-0.064989708,9.812087059
1784242070.782148,-0.006245939,-0.004149396,-0.017339699,0.001038494,0.001201248,-0.000523668,0.035521813,-0.078779638,9.804821968
1784242070.784181,-0.006247034,-0.004150525,-0.017342273,0.000918993,0.001153878,-0.000907351,0.055194981,-0.046856329,9.816701889
1784242070.786156,-0.006251629,-0.004156654,-0.017347280,0.000281132,0.000351233,-0.001173964,0.045444705,-0.074042149,9.813827515
1784242070.788153,-0.006257222,-0.004157852,-0.017351732,-0.000454235,-0.000211794,-0.001494860,0.029398963,-0.067312524,9.778437614
1784242070.790167,-0.006259407,-0.004158437,-0.017349517,-0.000824306,-0.000248744,-0.001238888,0.007898376,-0.061880425,9.809385300
1784242070.792160,-0.006259574,-0.004157497,-0.017343558,-0.000769970,-0.000265471,-0.000347823,0.039804682,-0.060690366,9.773558617
1784242070.794168,-0.006260687,-0.004156767,-0.017340269,-0.000657268,-0.000188892,0.000374127,0.049336016,-0.049011860,9.815337181
1784242070.796161,-0.006261283,-0.004159226,-0.017339652,-0.000593741,-0.000256685,0.000538305,0.062425371,-0.043707661,9.801933289
1784242070.798162,-0.006252653,-0.004163601,-0.017343251,0.000084104,-0.000525995,0.000188338,0.042061545,-0.058587413,9.788818359
1784242070.800160,-0.006248699,-0.004167700,-0.017348735,0.000885084,-0.000830947,-0.000481918,0.040527672,-0.111015975,9.792514801
1784242070.802163,-0.006256336,-0.004169321,-0.017345754,0.000546433,-0.000955928,-0.000519822,0.064492553,-0.098523408,9.756751060
1784242070.804210,-0.006257226,-0.004171512,-0.017340615,-0.000026072,-0.000921896,0.000174818,0.023992160,-0.067014970,9.809370041
1784242070.806180,-0.006253296,-0.004173224,-0.017338635,0.000189425,-0.000939480,0.000609417,-0.000422407,-0.045161650,9.804554939
1784242070.808166,-0.006251330,-0.004168582,-0.017336110,0.000459026,-0.000610412,0.000747584,0.017363241,-0.059237082,9.798653603
1784242070.810210,-0.006258738,-0.004161421,-0.017337073,-0.000115072,0.000232810,0.000651805,0.059139449,-0.056159448,9.794677734
1784242070.812178,-0.006258422,-0.004158147,-0.017340943,-0.000585518,0.000940303,0.000149224,0.081889935,-0.068852484,9.774442673
1784242070.814173,-0.006260922,-0.004165358,-0.017342223,-0.000595209,0.000480268,-0.000239859,0.066122070,-0.071177244,9.814763069
1784242070.816169,-0.006255980,-0.004170793,-0.017338131,-0.000267082,-0.000509769,0.000015137,0.035092380,-0.077811196,9.795413017
1784242070.818169,-0.006247881,-0.004169909,-0.017333986,0.000753956,-0.000737668,0.000565926,0.043261729,-0.069482923,9.806681633
1784242070.820173,-0.006251377,-0.004167829,-0.017330702,0.000924821,-0.000393203,0.000914949,0.048678156,-0.066057242,9.819262505
1784242070.822177,-0.006252697,-0.004172706,-0.017331162,0.000359899,-0.000420936,0.000859679,0.020066557,-0.059589166,9.780271530
1784242070.824178,-0.006257268,-0.004173796,-0.017331360,-0.000125733,-0.000654892,0.000583434,0.045676433,-0.053976107,9.826958656
1784242070.826180,-0.006265034,-0.004172731,-0.017328639,-0.000928311,-0.000479831,0.000600025,0.025538396,-0.050457653,9.809477806
1784242070.828178,-0.006262775,-0.004171500,-0.017327188,-0.001113740,-0.000195276,0.000721932,0.045998942,-0.064704306,9.822854996
1784242070.830179,-0.006253514,-0.004174065,-0.017327048,-0.000093847,-0.000233318,0.000630690,0.030983986,-0.081149548,9.831254005
1784242070.832182,-0.006250920,-0.004177377,-0.017327743,0.000790412,-0.000603653,0.000418122,0.047630381,-0.079795815,9.799895287
1784242070.834183,-0.006254140,-0.004174769,-0.017324988,0.000588126,-0.000523434,0.000444392,0.041001253,-0.034024511,9.801975250
1784242070.836189,-0.006256068,-0.004170849,-0.017313970,0.000082920,0.000055970,0.001260143,0.049166098,-0.027757974,9.788125992
1784242070.838187,-0.006255596,-0.004174185,-0.017316286,-0.000107592,0.000100266,0.001509602,0.020791113,-0.036748905,9.780419350
1784242070.840190,-0.006257463,-0.004175569,-0.017323382,-0.000247325,-0.000219913,0.000461842,0.029577577,-0.051313113,9.796472549
1784242070.842190,-0.006256762,-0.004170852,-0.017322185,-0.000271907,0.000048547,-0.000063849,0.056005310,-0.058091916,9.757002831
1784242070.844192,-0.006258121,-0.004169059,-0.017320216,-0.000252794,0.000455945,0.000168191,0.055515360,-0.058817118,9.796898842
1784242070.846195,-0.006262170,-0.004170156,-0.017319078,-0.000550312,0.000378105,0.000334648,0.035037085,-0.047547225,9.761084557
1784242070.848198,-0.006266888,-0.004170949,-0.017321402,-0.000967178,0.000145336,0.000165782,0.065287322,-0.068239503,9.781155586
1784242070.850195,-0.006266395,-0.004172093,-0.017322367,-0.000963165,-0.000026666,-0.000101174,0.061320186,-0.060331140,9.810343742
1784242070.852221,-0.006269852,-0.004174842,-0.017325759,-0.000906610,-0.000224100,-0.000368172,0.053240899,-0.025090160,9.783662796
1784242070.854222,-0.006270382,-0.004172527,-0.017327508,-0.000935063,-0.000132856,-0.000615634,0.015202018,-0.051669307,9.809459686
1784242070.856253,-0.006270699,-0.004171807,-0.017323686,-0.000738061,0.000108270,-0.000307190,0.017026864,-0.049023617,9.812169075
1784242070.858277,-0.006275344,-0.004170372,-0.017317746,-0.000850867,0.000103491,0.000439598,0.054192096,-0.056998495,9.795563698
1784242070.860258,-0.006277269,-0.004170430,-0.017313935,-0.001042106,0.000047188,0.000983158,0.079521000,-0.041139793,9.788068771
1784242070.862238,-0.006272009,-0.004176044,-0.017315701,-0.000586468,-0.000267022,0.000855057,0.054903597,-0.034666598,9.804225922
1784242070.864227,-0.006268534,-0.004174039,-0.017319288,0.000109821,-0.000352757,0.000257662,0.050997265,-0.061031234,9.801363945
1784242070.866220,-0.006272583,-0.004176725,-0.017320557,0.000039605,-0.000301214,-0.000141713,0.027299589,-0.091577992,9.792178154
1784242070.868264,-0.006277092,-0.004179200,-0.017322086,-0.000467777,-0.000619615,-0.000290946,0.042626534,-0.085133553,9.803442955
1784242070.870230,-0.006274530,-0.004182753,-0.017317466,-0.000386956,-0.000912856,-0.000002148,0.053072300,-0.074953139,9.802173615
1784242070.872231,-0.006267669,-0.004190731,-0.017315509,0.000355252,-0.001423274,0.000442345,0.030022522,-0.090154141,9.776049614
1784242070.874226,-0.006270365,-0.004194760,-0.017322097,0.000535790,-0.001822574,0.000007252,0.041505694,-0.067937970,9.781583786
1784242070.876226,-0.006272215,-0.004191902,-0.017324645,0.000079033,-0.001403267,-0.000613567,0.046817925,-0.035039693,9.808251381
1784242070.878267,-0.006267237,-0.004184011,-0.017324477,0.000224235,-0.000277764,-0.000609204,0.049666580,-0.059676461,9.802267075
1784242070.880238,-0.006262159,-0.004180697,-0.017326720,0.000800422,0.000572969,-0.000587055,0.048756573,-0.060980227,9.798223495
1784242070.882247,-0.006260801,-0.004183089,-0.017327692,0.000977513,0.000475811,-0.000647507,0.053161196,-0.066956602,9.811637878
1784242070.884258,-0.006261168,-0.004185816,-0.017322022,0.000739150,-0.000008309,-0.000152877,0.039037485,-0.084677748,9.808823586
1784242070.886238,-0.006259140,-0.004188302,-0.017315539,0.000654685,-0.000365046,0.000713025,0.058744945,-0.088047363,9.806129456
1784242070.888239,-0.006263381,-0.004187750,-0.017316246,0.000488837,-0.000333158,0.000912042,0.050310183,-0.043148987,9.808202744
1784242070.890244,-0.006261740,-0.004183868,-0.017321432,0.000338449,0.000127242,0.000265133,0.038394023,-0.027645431,9.791702271
1784242070.892252,-0.006259899,-0.004177855,-0.017323423,0.000358980,0.000767776,-0.000294486,0.046763707,-0.078325957,9.783763885
1784242070.894240,-0.006263637,-0.004179220,-0.017329466,0.000008583,0.000878686,-0.000758880,0.044799741,-0.053395819,9.809924126
1784242070.896259,-0.006264742,-0.004181409,-0.017332040,-0.000324952,0.000402572,-0.001136517,0.057618294,-0.071302928,9.784716606
1784242070.898251,-0.006263520,-0.004182661,-0.017331136,-0.000188223,0.000156751,-0.000941109,0.040272079,-0.094896354,9.794411659
1784242070.900249,-0.006263284,-0.004185925,-0.017337166,0.000001565,-0.000093857,-0.001033684,0.027767735,-0.090214431,9.788600922
1784242070.902250,-0.006265153,-0.004188606,-0.017342132,0.000030352,-0.000452800,-0.001499421,0.052709155,-0.068192989,9.797284126
1784242070.904258,-0.006265421,-0.004188947,-0.017347617,0.000017221,-0.000516148,-0.001801552,0.010657216,-0.058146812,9.783411026
1784242070.906259,-0.006264659,-0.004189034,-0.017347245,0.000044701,-0.000402916,-0.001659669,0.019601235,-0.023340521,9.787228584
1784242070.908257,-0.006263473,-0.004184560,-0.017349508,0.000048070,-0.000141584,-0.001338716,0.040588852,-0.031705830,9.791677475
1784242070.910253,-0.006258211,-0.004186287,-0.017347524,0.000356442,-0.000063164,-0.000996733,0.034803826,-0.028009243,9.786317825
1784242070.912256,-0.006245384,-0.004187544,-0.017344702,0.001427262,-0.000269251,-0.000404739,0.050160386,-0.094079219,9.787700653
1784242070.914258,-0.006244369,-0.004190021,-0.017346203,0.001918054,-0.000468823,-0.000208886,0.065391243,-0.058908626,9.791975975
1784242070.916255,-0.006252831,-0.004183115,-0.017349567,0.000890525,-0.000038754,-0.000480395,0.042460073,-0.061420839,9.808526039
1784242070.918262,-0.006249965,-0.004179725,-0.017353682,0.000255764,0.000724407,-0.000856018,0.048819643,-0.055213973,9.806330681
1784242070.920262,-0.006244153,-0.004183049,-0.017357025,0.000762224,0.000585945,-0.001131985,0.043139227,-0.043396857,9.792950630
1784242070.922257,-0.006244239,-0.004171708,-0.017353404,0.000863989,0.000970726,-0.000807240,0.073750526,-0.035301976,9.796618462
1784242070.924259,-0.006248956,-0.004160599,-0.017352208,0.000224740,0.002228802,-0.000259472,0.070576236,-0.073925681,9.815197945
1784242070.926257,-0.006245499,-0.004160980,-0.017356874,0.000077250,0.002353333,-0.000423942,0.056729708,-0.032821439,9.793479919
1784242070.928261,-0.006240282,-0.004160870,-0.017357808,0.000577248,0.001736419,-0.000691148,0.045710899,-0.051272437,9.824734688
1784242070.930264,-0.006240285,-0.004159623,-0.017360358,0.000707282,0.001396639,-0.000741152,0.054822911,-0.079782881,9.785107613
1784242070.932267,-0.006242437,-0.004161046,-0.017363459,0.000439796,0.001063907,-0.000923044,0.010790427,-0.046963681,9.785724640
1784242070.934268,-0.006239797,-0.004161684,-0.017366011,0.000424364,0.000693587,-0.001055978,0.052080132,-0.044989266,9.811779976
1784242070.936270,-0.006236584,-0.004159145,-0.017369336,0.000704773,0.000636767,-0.001169221,0.060316496,-0.070479661,9.790102959
1784242070.938287,-0.006233938,-0.004159525,-0.017376129,0.001001504,0.000722143,-0.001539693,0.022135904,-0.035155550,9.805984497
1784242070.940277,-0.006228692,-0.004161781,-0.017372286,0.001357622,0.000455855,-0.001323787,0.042355172,-0.071164690,9.792771339
1784242070.942274,-0.006227263,-0.004164667,-0.017370056,0.001486095,-0.000010472,-0.000554465,0.018361792,-0.088340007,9.793983459
1784242070.944280,-0.006228108,-0.004164472,-0.017367831,0.001165876,-0.000183067,-0.000102060,0.056106027,-0.045949645,9.813570023
1784242070.946277,-0.006232867,-0.004161051,-0.017372787,0.000468193,0.000113176,-0.000258273,0.046759158,-0.079577640,9.770753860
1784242070.948277,-0.006238402,-0.004161281,-0.017376702,-0.000291978,0.000352247,-0.000787535,0.068250321,-0.045062691,9.792963982
1784242070.950280,-0.006239542,-0.004163203,-0.017373694,-0.000597847,0.000160430,-0.000633188,0.061290372,-0.063403279,9.801358223
1784242070.952282,-0.006243318,-0.004164090,-0.017376008,-0.000749196,-0.000034739,-0.000412632,0.016052527,-0.055293109,9.813472748
1784242070.954286,-0.006248729,-0.004169943,-0.017377831,-0.001150865,-0.000441771,-0.000578830,0.030669123,-0.070360944,9.826839447
1784242070.956289,-0.006250372,-0.004168149,-0.017373208,-0.001316491,-0.000598543,-0.000229577,0.033944625,-0.061638728,9.791480064
1784242070.958292,-0.006251602,-0.004166789,-0.017365921,-0.001108518,-0.000288076,0.000641501,0.024459168,-0.028881041,9.801544189
1784242070.960296,-0.006251981,-0.004168984,-0.017357592,-0.000870147,-0.000334377,0.001527417,0.060806587,-0.028110949,9.816827774
1784242070.962360,-0.006250720,-0.004176175,-0.017358055,-0.000627403,-0.000779625,0.001647112,0.042897783,-0.062729128,9.802690506
1784242070.964314,-0.006252275,-0.004174116,-0.017366461,-0.000535108,-0.000808112,0.000598558,0.033352643,-0.072895609,9.800374985
1784242070.966297,-0.006254378,-0.004170194,-0.017369274,-0.000641258,-0.000178028,-0.000324417,0.045905411,-0.113569245,9.763810158
1784242070.968299,-0.006264309,-0.004172591,-0.017367365,-0.001030750,-0.000007956,-0.000294881,0.031884320,-0.082758941,9.803896904
1784242070.970297,-0.006264647,-0.004176114,-0.017367287,-0.001193871,-0.000390556,-0.000077424,0.014825744,-0.085034274,9.776516914
1784242070.972301,-0.006269217,-0.004175177,-0.017364277,-0.001130915,-0.000563684,0.000154075,0.039345570,-0.058740519,9.815264702
1784242070.974300,-0.006276513,-0.004177034,-0.017356517,-0.001555204,-0.000579950,0.000846088,0.052972533,-0.045445547,9.811328888
1784242070.976305,-0.006279534,-0.004181588,-0.017355394,-0.001830755,-0.000861375,0.001222400,0.070169196,-0.035595834,9.781370163
1784242070.978326,-0.006277984,-0.004177850,-0.017361388,-0.001535827,-0.000580001,0.000561343,0.023566071,-0.064804390,9.814313889
1784242070.980314,-0.006283252,-0.004167530,-0.017358599,-0.001473033,0.000633907,0.000193461,0.043990530,-0.084604263,9.789548874
1784242070.982339,-0.006290738,-0.004169020,-0.017358810,-0.001866827,0.001088550,0.000319510,0.040890642,-0.080592781,9.798089981
1784242070.984313,-0.006293985,-0.004168799,-0.017355802,-0.002016518,0.000734193,0.000425785,0.026615558,-0.036486972,9.796117783
1784242070.986311,-0.006290063,-0.004169450,-0.017350629,-0.001420952,0.000502235,0.000865507,0.013381601,-0.054280024,9.801817894
1784242070.988316,-0.006283693,-0.004175362,-0.017352385,-0.000323024,-0.000193887,0.000859026,0.017394042,-0.018161990,9.819090843
1784242070.990314,-0.006281092,-0.004179976,-0.017355483,0.000384830,-0.000966571,0.000293072,0.037242800,-0.048684925,9.791117668
1784242070.992312,-0.006276076,-0.004177926,-0.017354283,0.000762789,-0.000845226,0.000082945,0.065095142,-0.045540359,9.802821159
1784242070.994382,-0.006276401,-0.004176144,-0.017347528,0.000842329,-0.000326830,0.000599870,0.057258729,-0.063704103,9.787902832
1784242070.996336,-0.006280917,-0.004170075,-0.017344493,0.000287806,0.000290634,0.001103171,0.063648157,-0.055235166,9.782583237
1784242070.998322,-0.006283807,-0.004165619,-0.017343057,-0.000366256,0.000943351,0.001109517,0.064574167,-0.052184079,9.792915344
1784242071.000373,-0.006283280,-0.004163847,-0.017344272,-0.000501650,0.001128955,0.000824238,0.080051385,-0.071606286,9.786976814
1784242071.002327,-0.006283137,-0.004168899,-0.017347921,-0.000298153,0.000705035,0.000270795,0.044760264,-0.056544267,9.811697960
1784242071.004337,-0.006288005,-0.004171842,-0.017346801,-0.000515393,0.000075173,0.000027715,0.052789029,-0.060673043,9.810783386
1784242071.006331,-0.006294126,-0.004171590,-0.017352313,-0.001122602,-0.000126071,-0.000275007,0.032570947,-0.099834293,9.809615135
1784242071.008334,-0.006304522,-0.004169287,-0.017354110,-0.001814266,0.000037217,-0.000692776,0.047514729,-0.088408828,9.814187050
1784242071.010327,-0.006308259,-0.004168795,-0.017357215,-0.002155619,0.000171422,-0.000834307,0.058353148,-0.083539747,9.803018570
1784242071.012327,-0.006306316,-0.004172467,-0.017355254,-0.001594643,-0.000047078,-0.000685161,0.059879191,-0.069168180,9.795491219
1784242071.014338,-0.006298896,-0.004172625,-0.017354844,-0.000427601,-0.000251867,-0.000340886,0.065083288,-0.011286069,9.774347305
1784242071.016335,-0.006295201,-0.004174864,-0.017358454,0.000442153,-0.000344943,-0.000468829,0.027981676,-0.072315060,9.791406631
1784242071.018334,-0.006290571,-0.004175859,-0.017358866,0.000876627,-0.000446267,-0.000616693,0.018639378,-0.064264573,9.810278893
1784242071.020334,-0.006284157,-0.004172030,-0.017360833,0.001378153,-0.000108759,-0.000613514,0.048768524,-0.099691503,9.760314941
1784242071.022348,-0.006278130,-0.004169196,-0.017362801,0.001981725,0.000405196,-0.000717636,0.073995762,-0.087877549,9.817802429
1784242071.024343,-0.006272858,-0.004173310,-0.017366145,0.002343472,0.000241025,-0.000886872,0.025800887,-0.067333303,9.787848473
1784242071.026348,-0.006276398,-0.004176797,-0.017365284,0.001824043,-0.000339326,-0.000815400,0.021607198,-0.081476405,9.768026352
1784242071.028361,-0.006279398,-0.004177372,-0.017357489,0.000975707,-0.000581696,-0.000004899,0.035053726,-0.043363322,9.802806854
1784242071.030359,-0.006279184,-0.004176392,-0.017353127,0.000613564,-0.000456470,0.000822305,0.030571420,-0.044484366,9.779481888
1784242071.032358,-0.006276463,-0.004172058,-0.017352987,0.000590520,0.000049350,0.000904103,0.040296365,-0.055898905,9.791971207
1784242071.034384,-0.006276439,-0.004171076,-0.017360058,0.000557521,0.000422769,0.000187467,0.051692985,-0.078440078,9.790941238
1784242071.036364,-0.006280025,-0.004180662,-0.017362157,0.000161716,-0.000272262,-0.000484988,0.054855660,-0.075471781,9.808897018
1784242071.038363,-0.006279101,-0.004186839,-0.017365536,-0.000005161,-0.001195426,-0.000724269,0.054945190,-0.067875534,9.811635971
1784242071.040361,-0.006276405,-0.004181113,-0.017366190,0.000300185,-0.000829145,-0.000801858,0.044517893,-0.077099599,9.804392815
1784242071.042362,-0.006276997,-0.004178674,-0.017361553,0.000400227,-0.000060336,-0.000314224,0.028773507,-0.078023233,9.836650848
1784242071.044369,-0.006280011,-0.004182698,-0.017360691,0.000085967,-0.000162727,0.000145018,0.014073411,-0.070503972,9.813820839
1784242071.046368,-0.006272323,-0.004184980,-0.017363749,0.000379277,-0.000545724,-0.000044821,0.023018211,-0.076118127,9.768063545
1784242071.048364,-0.006271946,-0.004186593,-0.017367110,0.000866004,-0.000717912,-0.000470916,0.046689883,-0.048208255,9.770058632
1784242071.050359,-0.006277804,-0.004187670,-0.017374227,0.000299965,-0.000759766,-0.001053096,0.048276231,-0.028902756,9.761664391
1784242071.052371,-0.006280820,-0.004189355,-0.017374422,-0.000473520,-0.000697694,-0.001260645,0.075269371,-0.021797717,9.785050392
1784242071.054372,-0.006280088,-0.004190766,-0.017371666,-0.000586814,-0.000679424,-0.000743360,0.069393590,-0.063296899,9.771777153
1784242071.056383,-0.006277969,-0.004189012,-0.017372075,-0.000233256,-0.000472715,-0.000382804,0.047867451,-0.061308589,9.782978058
1784242071.058370,-0.006278659,-0.004192513,-0.017365878,-0.000086098,-0.000448373,0.000113651,0.019203564,-0.056063939,9.790156364
1784242071.060374,-0.006283275,-0.004196520,-0.017364228,-0.000435514,-0.000822584,0.000616819,0.029839838,-0.067785315,9.781124115
1784242071.062369,-0.006287053,-0.004198112,-0.017370537,-0.000885917,-0.000997882,0.000135168,0.032982025,-0.065789253,9.809834480
1784242071.064377,-0.006286011,-0.004199794,-0.017374692,-0.000831655,-0.000965281,-0.000611350,0.062597811,-0.066562608,9.802236557
1784242071.066375,-0.006282002,-0.004194612,-0.017373210,-0.000263821,-0.000464460,-0.000628180,0.067600630,-0.060827792,9.805864334
1784242071.068374,-0.006287586,-0.004195903,-0.017376341,-0.000318641,0.000066984,-0.000568049,0.024596795,-0.055252906,9.792408943
1784242071.070380,-0.006292721,-0.004197783,-0.017373351,-0.000978798,-0.000025820,-0.000419593,0.028518764,-0.065544158,9.783379555
1784242071.072383,-0.006291256,-0.004197516,-0.017368983,-0.000973570,-0.000173764,0.000194331,0.066738501,-0.058106266,9.802742004
1784242071.074382,-0.006292685,-0.004204474,-0.017370788,-0.000719572,-0.000624229,0.000315124,0.082381569,-0.063250966,9.804965019
1784242071.076380,-0.006298328,-0.004210327,-0.017378198,-0.001006784,-0.001320410,-0.000393961,0.056808129,-0.062497552,9.808084488
1784242071.078429,-0.006301483,-0.004211659,-0.017382912,-0.001337218,-0.001375067,-0.001106762,0.046053827,-0.063055180,9.779827118
1784242071.080400,-0.006301292,-0.004210413,-0.017374558,-0.001177489,-0.000939753,-0.000557691,0.049543843,-0.070776917,9.788297653
1784242071.082431,-0.006298983,-0.004209299,-0.017368853,-0.000663712,-0.000505239,0.000547609,0.055205628,-0.046367034,9.810876846
1784242071.084410,-0.006295540,-0.004207293,-0.017367389,-0.000070766,-0.000134183,0.000884111,0.047154360,-0.046063229,9.782625198
1784242071.086398,-0.006295837,-0.004204186,-0.017362751,0.000163661,0.000246695,0.001057345,0.057166599,-0.071726069,9.782021523
1784242071.088397,-0.006297871,-0.004198919,-0.017357044,-0.000043389,0.000760453,0.001473089,0.056711737,-0.072984710,9.770806313
1784242071.090400,-0.006299787,-0.004198446,-0.017353760,-0.000304430,0.000956471,0.001684527,0.050433300,-0.072472163,9.773045540
1784242071.092412,-0.006302593,-0.004198373,-0.017361386,-0.000514404,0.000745031,0.000933962,0.021977194,-0.085345656,9.807456970
1784242071.094405,-0.006302346,-0.004198454,-0.017363407,-0.000522254,0.000555650,0.000026180,0.055760134,-0.075832680,9.794997215
1784242071.096401,-0.006300576,-0.004195899,-0.017349984,-0.000240379,0.000567835,0.000792258,0.047481187,-0.055136312,9.797810555
1784242071.098403,-0.006295903,-0.004199695,-0.017338712,0.000231449,0.000334315,0.002252000,0.057249233,-0.063373789,9.804492950
1784242071.100406,-0.006294908,-0.004202171,-0.017337289,0.000519182,-0.000172202,0.002501113,0.059107855,-0.059650928,9.781653404
1784242071.102403,-0.006295613,-0.004201657,-0.017333997,0.000372408,-0.000174048,0.002142514,0.066830166,-0.049277410,9.821180344
1784242071.104413,-0.006295123,-0.004201476,-0.017332295,0.000231232,0.000004858,0.001900279,0.070384562,-0.090433463,9.805677414
1784242071.106406,-0.006294362,-0.004200502,-0.017329792,0.000254487,0.000080163,0.001669553,0.052492920,-0.084894739,9.815110207
1784242071.108407,-0.006297778,-0.004193305,-0.017330993,0.000096571,0.000642103,0.001305448,0.050202340,-0.088884927,9.813288689
1784242071.110420,-0.006300751,-0.004192821,-0.017328778,-0.000271927,0.001018315,0.001021563,0.021493567,-0.087236688,9.822238922
1784242071.112425,-0.006308228,-0.004195611,-0.017319422,-0.000857842,0.000517412,0.001532005,0.033566825,-0.052562844,9.839060783
1784242071.114430,-0.006310978,-0.004200435,-0.017319366,-0.001270147,-0.000206745,0.001757465,0.015921341,-0.028870376,9.815434456
1784242071.116421,-0.006312890,-0.004203940,-0.017323021,-0.001242756,-0.000714398,0.001037802,0.032889862,-0.035411168,9.822583199
1784242071.118432,-0.006305789,-0.004206166,-0.017323161,-0.000642075,-0.000892377,0.000497475,0.033530157,-0.058525868,9.795534134
1784242071.120437,-0.006300421,-0.004202060,-0.017327527,0.000289440,-0.000505050,0.000053362,0.073902182,-0.098342448,9.777384758
1784242071.122435,-0.006298625,-0.004200569,-0.017326603,0.000790385,0.000084573,-0.000196531,0.050644841,-0.051755030,9.820700645
1784242071.124439,-0.006301406,-0.004205391,-0.017321758,0.000604791,-0.000095805,0.000248965,0.032245334,-0.053161714,9.799602509
1784242071.126434,-0.006307352,-0.004210445,-0.017322252,-0.000150547,-0.000741944,0.000479391,0.032422610,-0.075978495,9.794525146
1784242071.128433,-0.006307828,-0.004204247,-0.017320784,-0.000493957,-0.000529471,0.000416716,0.051347047,-0.069923073,9.790993690
1784242071.130433,-0.006305449,-0.004203290,-0.017321462,-0.000179142,0.000033313,0.000356177,0.027578317,-0.069519795,9.777076721
1784242071.132433,-0.006307054,-0.004202259,-0.017331464,-0.000059726,0.000143254,-0.000465999,0.047384232,-0.063196436,9.797310829
1784242071.134432,-0.006303542,-0.004197338,-0.017335573,0.000103074,0.000493955,-0.001297991,0.053706169,-0.060528740,9.788816452
1784242071.136440,-0.006299815,-0.004192949,-0.017333293,0.000565911,0.000992622,-0.001071804,0.063789017,-0.043991629,9.776378632
1784242071.138432,-0.006300404,-0.004196033,-0.017329497,0.000588973,0.000851984,-0.000368781,0.056700248,-0.035080325,9.796155930
1784242071.140435,-0.006304676,-0.004193679,-0.017329408,0.000062182,0.000612284,-0.000002679,0.045624692,-0.060463406,9.794187546
1784242071.142435,-0.006309152,-0.004187632,-0.017328497,-0.000531816,0.001017124,0.000068347,0.036843989,-0.044637986,9.789798737
1784242071.144439,-0.006314480,-0.004184472,-0.017328139,-0.001036313,0.001366706,0.000138331,0.029539540,-0.054855466,9.790622711
1784242071.146446,-0.006313474,-0.004189335,-0.017332312,-0.001049415,0.000881688,-0.000157229,0.031451963,-0.045439485,9.786201477
1784242071.148441,-0.006310249,-0.004193170,-0.017333278,-0.000540290,-0.000016657,-0.000465012,0.050507937,-0.064993538,9.792371750
1784242071.150446,-0.006311081,-0.004192710,-0.017332647,-0.000292836,-0.000311770,-0.000362491,0.069182754,-0.079550683,9.789606094
1784242071.152443,-0.006312965,-0.004194843,-0.017337883,-0.000343786,-0.000234506,-0.000575374,0.032321062,-0.046890255,9.799642563
1784242071.154445,-0.006305856,-0.004198711,-0.017336702,0.000158272,-0.000472242,-0.000695134,0.031731911,-0.020534901,9.811916351
1784242071.156447,-0.006301350,-0.004194594,-0.017331494,0.000905497,-0.000329875,-0.000075993,0.043752223,-0.027111031,9.832958221
1784242071.158457,-0.006297131,-0.004190306,-0.017330294,0.001076612,0.000371835,0.000377783,0.032670792,-0.054972019,9.801384926
1784242071.160466,-0.006299792,-0.004190622,-0.017336326,0.000711634,0.000586966,-0.000052250,0.049798626,-0.086902909,9.787297249
1784242071.162453,-0.006302699,-0.004191680,-0.017338635,0.000206996,0.000351717,-0.000602760,0.039734080,-0.065300338,9.791911125
1784242071.164456,-0.006302747,-0.004192819,-0.017338274,0.000018539,0.000121754,-0.000570600,0.040100668,-0.072438486,9.786932945
1784242071.166454,-0.006304366,-0.004194737,-0.017343512,-0.000100973,-0.000116742,-0.000746109,0.045104869,-0.066287510,9.795046806
1784242071.168455,-0.006300482,-0.004195832,-0.017349772,0.000102123,-0.000308844,-0.001324901,0.054189105,-0.057427373,9.792871475
1784242071.170464,-0.006294645,-0.004195444,-0.017350696,0.000757357,-0.000294037,-0.001456049,0.036329869,-0.048390809,9.814432144
1784242071.172460,-0.006290408,-0.004192120,-0.017355874,0.001201671,0.000022650,-0.001477729,0.047595698,-0.044506073,9.814914703
1784242071.174462,-0.006290137,-0.004193794,-0.017364288,0.001145339,0.000116556,-0.002000339,0.016117759,-0.089531146,9.776488304
1784242071.176463,-0.006287566,-0.004197878,-0.017362066,0.001025504,-0.000303261,-0.001878450,0.022735296,-0.095777906,9.823978424
1784242071.178476,-0.006287916,-0.004195042,-0.017362207,0.001011516,-0.000397325,-0.001228753,0.033303615,-0.077740498,9.788686752
1784242071.180468,-0.006288443,-0.004197503,-0.017371960,0.000787498,-0.000350568,-0.001567484,0.060029242,-0.094631396,9.784567833
1784242071.182507,-0.006292576,-0.004203347,-0.017374564,0.000385178,-0.000726913,-0.001979379,0.053149849,-0.106662370,9.787622452
1784242071.184480,-0.006289719,-0.004203720,-0.017369395,0.000326250,-0.000865807,-0.001267413,0.040487453,-0.077390902,9.789591789
1784242071.186487,-0.006293265,-0.004205352,-0.017364534,0.000193854,-0.000771133,-0.000242353,0.029476603,-0.056568187,9.842617989
1784242071.188525,-0.006290282,-0.004207105,-0.017360169,0.000114640,-0.000792013,0.000449763,0.046616811,-0.052027233,9.803210258
1784242071.190547,-0.006283333,-0.004204343,-0.017364269,0.000766817,-0.000505129,0.000343012,0.065865092,-0.055473771,9.812173843
1784242071.192494,-0.006287712,-0.004205300,-0.017370583,0.000684564,-0.000159706,-0.000456953,0.049710430,-0.055682972,9.807672501
1784242071.194490,-0.006286117,-0.004201418,-0.017368592,0.000262838,0.000165282,-0.000624693,0.027644780,-0.063321479,9.787427902
1784242071.196482,-0.006283201,-0.004197816,-0.017365526,0.000499010,0.000626290,-0.000112964,0.041561868,-0.061415691,9.809421539
1784242071.198485,-0.006286646,-0.004196281,-0.017362781,0.000307587,0.000803723,0.000312520,0.079219691,-0.066212900,9.786113739
1784242071.200490,-0.006290189,-0.004199769,-0.017361386,-0.000270769,0.000452400,0.000510795,0.026459383,-0.085441306,9.812841415
1784242071.202493,-0.006286732,-0.004198023,-0.017353540,-0.000133046,0.000134336,0.000998763,0.025174387,-0.080483772,9.811077118
1784242071.204491,-0.006287825,-0.004197560,-0.017353710,0.000133182,0.000171494,0.001247694,0.031618893,-0.067122243,9.810720444
1784242071.206491,-0.006289458,-0.004195499,-0.017350148,-0.000087029,0.000294796,0.001140086,0.027625116,-0.026697380,9.803803444
1784242071.208489,-0.006288405,-0.004192791,-0.017348971,-0.000210338,0.000491662,0.001152609,0.040469803,-0.040750898,9.803725243
1784242071.210489,-0.006287371,-0.004193412,-0.017350195,-0.000120542,0.000455140,0.000836082,0.043438558,-0.053902842,9.820679665
1784242071.212491,-0.006285740,-0.004192858,-0.017351942,0.000107090,0.000338007,0.000406680,0.061568178,-0.042568121,9.769211769
1784242071.214494,-0.006285472,-0.004188962,-0.017350750,0.000221603,0.000558220,0.000257951,0.066333242,-0.054110199,9.808595657
1784242071.216493,-0.006287083,-0.004183188,-0.017344514,0.000072395,0.001059815,0.000692690,0.066941336,-0.042726148,9.781769753
1784242071.218495,-0.006285364,-0.004185088,-0.017340960,-0.000021537,0.001154077,0.001170371,0.032012459,-0.074047357,9.775706291
1784242071.220502,-0.006279531,-0.004190003,-0.017349890,0.000410933,0.000503687,0.000486193,0.027034909,-0.075124867,9.810216904
1784242071.222500,-0.006277186,-0.004192821,-0.017349254,0.000887225,-0.000150629,-0.000211542,0.055314369,-0.039834846,9.774155617
1784242071.224512,-0.006278556,-0.004191294,-0.017345961,0.000748738,-0.000195168,0.000112184,0.061385550,-0.055762492,9.797820091
1784242071.226502,-0.006285552,-0.004192358,-0.017342184,-0.000020434,-0.000113741,0.000564210,0.038940370,-0.055554528,9.809007645
1784242071.228509,-0.006289439,-0.004191999,-0.017339442,-0.000762060,-0.000106244,0.000856825,0.024888465,-0.068656154,9.786494255
1784242071.230510,-0.006280885,-0.004188988,-0.017344061,-0.000249217,0.000179392,0.000495569,0.045065798,-0.069432788,9.796373367
1784242071.232509,-0.006269665,-0.004193244,-0.017342325,0.001152350,0.000124844,0.000160360,0.075180985,-0.066164345,9.786559105
1784242071.234510,-0.006264756,-0.004202126,-0.017338790,0.001928227,-0.000725646,0.000470864,0.070464082,-0.083726764,9.807514191
1784242071.236513,-0.006260131,-0.004207822,-0.017327525,0.002056029,-0.001524480,0.001345234,0.031318594,-0.054192398,9.820219040
1784242071.238511,-0.006257988,-0.004209705,-0.017320238,0.001954720,-0.001637895,0.002237230,0.019257197,-0.050777435,9.802743912
1784242071.240520,-0.006264184,-0.004211838,-0.017318325,0.001143718,-0.001474705,0.002255425,0.033583794,-0.053239372,9.808121681
1784242071.242534,-0.006261701,-0.004212625,-0.017313955,0.000572054,-0.001300814,0.002070446,0.071702026,-0.055113271,9.813974380
1784242071.244527,-0.006263640,-0.004213742,-0.017309617,0.000445261,-0.001106258,0.002098996,0.064995594,-0.054026186,9.799180031
1784242071.246520,-0.006256732,-0.004211244,-0.017307868,0.000663406,-0.000714779,0.001941161,0.039879892,-0.052801941,9.798268318
1784242071.248518,-0.006248660,-0.004206514,-0.017303441,0.001459582,-0.000022480,0.001829461,0.044092033,-0.075292468,9.803058624
1784242071.250522,-0.006251068,-0.004204181,-0.017303076,0.001406834,0.000471229,0.001656765,0.047300853,-0.069528304,9.805788040
1784242071.252544,-0.006253709,-0.004209194,-0.017303282,0.000674724,0.000156283,0.001219216,0.075758800,-0.091798641,9.798947334
1784242071.254539,-0.006253240,-0.004209014,-0.017298393,0.000337964,-0.000221147,0.001206835,0.050224081,-0.088713229,9.789079666
1784242071.256541,-0.006252436,-0.004205124,-0.017297732,0.000334166,0.000112935,0.001255748,0.042077646,-0.093213357,9.806529045
1784242071.258538,-0.006254836,-0.004205926,-0.017296307,0.000277336,0.000322334,0.001056431,0.063248478,-0.087974489,9.787752151
1784242071.260546,-0.006253286,-0.004206817,-0.017295407,0.000286621,0.000150236,0.000927555,0.073171139,-0.082833543,9.803037643
1784242071.262543,-0.006248806,-0.004205157,-0.017294470,0.000675866,0.000272950,0.000799557,0.039804917,-0.058256973,9.809441566
1784242071.264547,-0.006244575,-0.004206076,-0.017296210,0.001140655,0.000361498,0.000526076,0.012641926,-0.039244525,9.831057549
1784242071.266548,-0.006241453,-0.004205924,-0.017289979,0.001331407,0.000209395,0.000686443,0.033311855,-0.039680313,9.792069435
1784242071.268543,-0.006234403,-0.004210012,-0.017282417,0.001592869,-0.000140595,0.001433944,0.037094627,-0.062012468,9.775341034
1784242071.270547,-0.006226777,-0.004217597,-0.017284974,0.002086469,-0.000917152,0.001380356,0.020403976,-0.067362882,9.801741600
1784242071.272549,-0.006227790,-0.004221404,-0.017290484,0.001977923,-0.001490394,0.000455994,0.069378868,-0.063007928,9.794195175
1784242071.274549,-0.006229449,-0.004224117,-0.017290670,0.001269189,-0.001578215,-0.000054091,0.036219154,-0.058585808,9.799122810
1784242071.276546,-0.006232436,-0.004223103,-0.017285528,0.000610607,-0.001267102,0.000298253,0.051546220,-0.016171532,9.792685509
1784242071.278548,-0.006233161,-0.004223698,-0.017284114,0.000079068,-0.000788578,0.000664564,0.044449765,-0.047747448,9.772300720
1784242071.280547,-0.006229716,-0.004224345,-0.017287452,0.000125971,-0.000549112,0.000353842,0.023789048,-0.046428442,9.813089371
1784242071.282548,-0.006224976,-0.004222976,-0.017289709,0.000594262,-0.000413793,-0.000124770,0.035325132,-0.095732197,9.794849396
1784242071.284548,-0.006222866,-0.004222018,-0.017290121,0.000845702,-0.000207469,-0.000274405,0.039778318,-0.098893635,9.790350914
1784242071.286553,-0.006226817,-0.004216221,-0.017292403,0.000490393,0.000308625,-0.000382231,0.018683849,-0.063508183,9.766795158
1784242071.288553,-0.006235410,-0.004209836,-0.017300824,-0.000450455,0.001037254,-0.001001454,0.014537469,-0.071198970,9.784674644
1784242071.290561,-0.006236206,-0.004207520,-0.017302571,-0.000921521,0.001331531,-0.001417425,0.033374745,-0.034320686,9.794344902
1784242071.292553,-0.006229448,-0.004202931,-0.017302942,-0.000345115,0.001424677,-0.001178116,0.055939719,-0.062257115,9.775805473
1784242071.294591,-0.006225180,-0.004198549,-0.017301725,0.000419381,0.001631594,-0.000803889,0.048890635,-0.088190779,9.781012535
1784242071.296579,-0.006230986,-0.004193527,-0.017306682,0.000200025,0.001828580,-0.000839126,0.077128284,-0.051204670,9.821626663
1784242071.298562,-0.006235487,-0.004195534,-0.017311670,-0.000576980,0.001657297,-0.001282721,0.063952893,-0.065293193,9.810316086
1784242071.300593,-0.006236613,-0.004197458,-0.017310787,-0.000823617,0.001058662,-0.001210868,0.061008040,-0.047900122,9.827012062
1784242071.302579,-0.006227117,-0.004194811,-0.017306099,-0.000098156,0.000860806,-0.000505894,0.048593909,-0.074422240,9.798584938
1784242071.304575,-0.006221608,-0.004199722,-0.017306257,0.000880347,0.000514269,-0.000064947,0.045093477,-0.067593239,9.789658546
1784242071.306572,-0.006226941,-0.004202926,-0.017315779,0.000650480,-0.000172129,-0.000704384,0.059363052,-0.038183771,9.786723137
1784242071.308594,-0.006227950,-0.004204664,-0.017317029,-0.000001825,-0.000378505,-0.001241548,0.047018796,-0.055238664,9.813054085
1784242071.310579,-0.006227746,-0.004203683,-0.017311068,-0.000096756,-0.000251380,-0.000583711,0.014032448,-0.037695311,9.799684525
1784242071.312571,-0.006229234,-0.004201763,-0.017312564,-0.000237601,-0.000103890,-0.000122344,0.022957103,-0.081058420,9.769824982
1784242071.314574,-0.006231891,-0.004201018,-0.017317528,-0.000537491,-0.000007778,-0.000526744,0.037861817,-0.072778210,9.775720596
1784242071.316580,-0.006228653,-0.004198746,-0.017325105,-0.000355656,0.000204462,-0.001235108,0.028491436,-0.066570446,9.801754951
1784242071.318578,-0.006225815,-0.004193448,-0.017327877,0.000213485,0.000641470,-0.001604463,0.027237631,-0.058124609,9.813464165
1784242071.320588,-0.006229854,-0.004194014,-0.017327270,0.000136466,0.000763704,-0.001315801,0.035929605,-0.081539929,9.814219475
1784242071.322579,-0.006228962,-0.004193709,-0.017332206,-0.000049554,0.000513052,-0.001252028,0.075755857,-0.093037598,9.784146309
1784242071.324581,-0.006225732,-0.004190111,-0.017336318,0.000306975,0.000615129,-0.001528134,0.053942371,-0.075990915,9.820549965
1784242071.326612,-0.006222569,-0.004191284,-0.017338332,0.000655841,0.000615316,-0.001530976,0.028887484,-0.071449712,9.794101715
1784242071.328602,-0.006226272,-0.004192373,-0.017340384,0.000453562,0.000241505,-0.001391441,0.036609042,-0.064729460,9.780254364
1784242071.330590,-0.006232909,-0.004190526,-0.017345894,-0.000360022,0.000175801,-0.001524372,0.012890486,-0.058661677,9.788788795
1784242071.332589,-0.006235359,-0.004187736,-0.017348709,-0.000841374,0.000379057,-0.001673790,0.084114626,-0.070650816,9.771295547
1784242071.334601,-0.006240481,-0.004188290,-0.017345449,-0.001086746,0.000360347,-0.001187692,0.048337914,-0.058305793,9.800930023
1784242071.336600,-0.006239214,-0.004190504,-0.017344287,-0.001052120,0.000072768,-0.000563985,0.039861597,-0.053351656,9.812609673
1784242071.338596,-0.006233074,-0.004186373,-0.017345721,-0.000245000,0.000198816,-0.000431441,0.031640522,-0.065330401,9.810730934
1784242071.340602,-0.006232040,-0.004184871,-0.017343476,0.000327456,0.000542354,-0.000261300,0.060034033,-0.056193206,9.797818184
1784242071.342597,-0.006231256,-0.004186340,-0.017337797,0.000305704,0.000452375,0.000347452,0.025885714,-0.023805378,9.778265953
1784242071.344606,-0.006231276,-0.004182175,-0.017333154,0.000219099,0.000566585,0.000954278,0.018844225,-0.048868552,9.787063599
1784242071.346611,-0.006232095,-0.004181716,-0.017334385,0.000103679,0.000725225,0.000927333,0.028044052,-0.068175301,9.776188850
1784242071.348611,-0.006235933,-0.004182043,-0.017337764,-0.000254189,0.000487081,0.000363745,0.060356475,-0.103701308,9.799305916
1784242071.350611,-0.006242054,-0.004180200,-0.017340874,-0.000875200,0.000408252,-0.000173231,0.048131388,-0.075741291,9.795886040
1784242071.352611,-0.006242950,-0.004176125,-0.017339425,-0.001089257,0.000724246,-0.000237021,0.025314726,-0.070460103,9.787379265
1784242071.354615,-0.006240071,-0.004177030,-0.017338246,-0.000633142,0.000766082,0.000005261,0.054839484,-0.077625737,9.796777725
1784242071.356632,-0.006241401,-0.004177359,-0.017344005,-0.000357441,0.000476172,-0.000307513,0.063906178,-0.033745758,9.784514427
1784242071.358640,-0.006246164,-0.004177008,-0.017351646,-0.000767716,0.000473208,-0.001130886,0.029828629,-0.031094445,9.788085938
1784242071.360661,-0.006249710,-0.004178640,-0.017347053,-0.001213899,0.000378324,-0.001027435,0.054340612,-0.045694537,9.780841827
1784242071.362638,-0.006247219,-0.004180407,-0.017349606,-0.000944900,0.000138701,-0.000609094,0.044299230,-0.096657276,9.782747269
1784242071.364627,-0.006244623,-0.004185287,-0.017352441,-0.000334237,-0.000253226,-0.000810339,0.070286565,-0.098096497,9.812352180
1784242071.366628,-0.006246087,-0.004190389,-0.017345993,-0.000165551,-0.000863512,-0.000345431,0.084097192,-0.106757373,9.808275223
1784242071.368620,-0.006255782,-0.004196891,-0.017341452,-0.000711842,-0.001213988,0.000498161,0.075783260,-0.087147690,9.837983131
1784242071.370620,-0.006261432,-0.004198765,-0.017340859,-0.001395784,-0.001247797,0.000716350,0.048691154,-0.064738795,9.822857857
1784242071.372625,-0.006252198,-0.004202919,-0.017344715,-0.000754616,-0.001371166,0.000298900,0.039978273,-0.082725696,9.784625053
1784242071.374630,-0.006252780,-0.004204317,-0.017344622,0.000056452,-0.001428529,-0.000040584,0.041908894,-0.033549901,9.796599388
1784242071.376630,-0.006249335,-0.004200985,-0.017341290,0.000236352,-0.000910899,0.000201968,0.040797830,-0.052651282,9.775403976
1784242071.378650,-0.006244812,-0.004200925,-0.017330261,0.000710695,-0.000398057,0.001120091,0.020077145,-0.058289807,9.786556244
1784242071.380636,-0.006245993,-0.004203111,-0.017321400,0.000743894,-0.000401396,0.002165426,0.049616236,-0.062910765,9.816144943
1784242071.382631,-0.006248564,-0.004202474,-0.017315723,0.000299470,-0.000342566,0.002565501,0.032099120,-0.030910159,9.758050919
1784242071.384639,-0.006245975,-0.004203642,-0.017311361,0.000230340,-0.000228575,0.002550872,0.029872881,-0.027097777,9.793042183
1784242071.386637,-0.006245238,-0.004204259,-0.017308064,0.000395763,-0.000290859,0.002377282,0.065386638,-0.059350226,9.791076660
1784242071.388639,-0.006244768,-0.004207462,-0.017306915,0.000371378,-0.000405339,0.002033587,0.046952214,-0.062653691,9.784760475
1784242071.390648,-0.006243747,-0.004207551,-0.017305478,0.000372388,-0.000452166,0.001657079,0.012505081,-0.053293113,9.790616989
1784242071.392683,-0.006238417,-0.004201353,-0.017308770,0.000632041,-0.000019209,0.001078930,0.042617794,-0.049233675,9.795603752
1784242071.394655,-0.006237055,-0.004198000,-0.017312896,0.000842721,0.000532278,0.000280016,0.054860383,-0.039060362,9.792093277
1784242071.396646,-0.006237601,-0.004195952,-0.017312519,0.000668214,0.000756026,-0.000050772,0.043478999,-0.053178243,9.781680107
1784242071.398659,-0.006232025,-0.004194988,-0.017311580,0.000827972,0.000769833,0.000050861,0.046493564,-0.061510727,9.813909531
1784242071.400652,-0.006232025,-0.004194988,-0.017311580,0.001359507,0.000721197,0.000161336,0.046493564,-0.061510727,9.813909531
1784242071.402649,-0.006226593,-0.004196108,-0.017316133,0.001493073,0.000599611,0.000060415,0.060694832,-0.075498842,9.802177429
1784242071.404649,-0.006226593,-0.004196108,-0.017316133,0.001336723,0.000424882,-0.000194506,0.060694832,-0.075498842,9.802177429
1784242071.406656,-0.006224651,-0.004204242,-0.017311176,0.001198635,-0.000207782,-0.000112290,0.028747041,-0.045100112,9.806375504
1784242071.408649,-0.006229409,-0.004203767,-0.017316584,0.000846252,-0.000610078,-0.000359351,0.069634117,-0.042350836,9.787154198
1784242071.410658,-0.006225113,-0.004204746,-0.017318064,0.000704672,-0.000344863,-0.000788765,0.069853172,-0.025626833,9.766190529
1784242071.412658,-0.006223820,-0.004201922,-0.017312886,0.000818177,-0.000014759,-0.000324253,0.039104529,-0.043316487,9.788911819
1784242071.414660,-0.006225974,-0.004198265,-0.017308258,0.000540424,0.000425050,0.000429868,0.037631255,-0.054434683,9.779873848
1784242071.416659,-0.006228454,-0.004198653,-0.017301261,0.000046366,0.000549825,0.001104047,0.048375141,-0.054769803,9.807677269
1784242071.418661,-0.006222042,-0.004194558,-0.017302426,0.000266334,0.000672904,0.001199140,0.056540854,-0.049306974,9.780820847
1784242071.420671,-0.006214920,-0.004192483,-0.017307060,0.001099178,0.000922176,0.000476093,0.037412427,-0.071562126,9.794558525
1784242071.422667,-0.006215460,-0.004192290,-0.017310686,0.001233301,0.000839872,-0.000215327,0.020146318,-0.050449081,9.817989349
1784242071.424670,-0.006215214,-0.004188130,-0.017305771,0.000878826,0.000906799,-0.000069166,0.060809452,-0.066488743,9.795062065
1784242071.426663,-0.006217078,-0.004183736,-0.017303528,0.000532557,0.001260056,0.000436008,0.080480076,-0.070554323,9.827333450
1784242071.428667,-0.006215206,-0.004180122,-0.017303927,0.000389258,0.001482440,0.000442963,0.061135478,-0.075568169,9.811142921
1784242071.430669,-0.006214830,-0.004179795,-0.017305149,0.000445415,0.001392163,0.000212206,0.055974413,-0.094710015,9.802946091
1784242071.432671,-0.006212808,-0.004186525,-0.017304808,0.000496672,0.000623985,0.000094361,0.034864709,-0.057418630,9.826478004
1784242071.434678,-0.006214714,-0.004191888,-0.017312191,0.000367618,-0.000363266,-0.000409327,0.056685682,-0.071974680,9.817887306
1784242071.436669,-0.006222470,-0.004194696,-0.017322786,-0.000372159,-0.000764980,-0.001515639,0.013780817,-0.058323782,9.802689552
1784242071.438682,-0.006222406,-0.004189473,-0.017328771,-0.000776942,-0.000339657,-0.002227104,0.044256601,-0.063051261,9.782514572
1784242071.440675,-0.006216361,-0.004192116,-0.017326793,-0.000187976,-0.000044546,-0.001895642,0.052438319,-0.053004261,9.804106712
1784242071.442676,-0.006217763,-0.004193506,-0.017323513,0.000144290,-0.000282371,-0.001025038,0.044600990,-0.069554210,9.814303398
1784242071.444677,-0.006217316,-0.004197301,-0.017321834,0.000041708,-0.000559793,-0.000409992,0.046307176,-0.078787260,9.786450386
1784242071.446679,-0.006216666,-0.004197586,-0.017322255,0.000203397,-0.000690894,-0.000213892,0.035545811,-0.041405518,9.778610229
1784242071.448698,-0.006215460,-0.004201655,-0.017314987,0.000374316,-0.000807297,0.000308021,0.033753417,-0.041363448,9.775918007
1784242071.450698,-0.006211879,-0.004201232,-0.017312208,0.000552157,-0.000929996,0.000904725,0.055757318,-0.041101802,9.762490273
1784242071.452697,-0.006213506,-0.004203946,-0.017317448,0.000485855,-0.000922070,0.000491213,0.078243472,-0.036528472,9.771956444
1784242071.454708,-0.006219399,-0.004202370,-0.017314982,-0.000157265,-0.000747780,0.000171916,0.064957619,-0.058378607,9.781217575
1784242071.456715,-0.006220621,-0.004200690,-0.017317535,-0.000604033,-0.000244170,0.000121963,0.046707273,-0.043207921,9.822993279
1784242071.458708,-0.006213452,-0.004202701,-0.017322456,-0.000044929,-0.000117724,-0.000419813,0.073186450,-0.045122758,9.792520523
1784242071.460707,-0.006208357,-0.004202021,-0.017326312,0.000795908,-0.000083728,-0.000904385,0.037006658,-0.065949097,9.825080872
1784242071.462773,-0.006208872,-0.004202360,-0.017334726,0.000885882,0.000056106,-0.001492253,0.029501515,-0.055560980,9.826931953
1784242071.464713,-0.006204900,-0.004204073,-0.017338865,0.000876425,-0.000093096,-0.001940078,0.020355886,-0.033394761,9.813617706
1784242071.466709,-0.006201888,-0.004203050,-0.017345656,0.001086422,-0.000186791,-0.002157575,0.032822821,-0.042019308,9.806848526
1784242071.468714,-0.006205104,-0.004206012,-0.017352767,0.000750763,-0.000338556,-0.002515831,0.068667434,-0.048559915,9.779940605
1784242071.470716,-0.006206292,-0.004212661,-0.017353242,0.000212030,-0.000808584,-0.002346044,0.049580790,-0.066027418,9.813433647
1784242071.472716,-0.006208748,-0.004214304,-0.017352102,-0.000126565,-0.001065011,-0.001662185,0.048989709,-0.116488032,9.790695190
1784242071.474711,-0.006210404,-0.004217017,-0.017352819,-0.000371236,-0.001071734,-0.001181046,0.052624054,-0.075754277,9.789613724
1784242071.476716,-0.006209504,-0.004219697,-0.017345542,-0.000280064,-0.001154080,-0.000415353,0.020605829,-0.087148882,9.811478615
1784242071.478714,-0.006211163,-0.004222410,-0.017345730,-0.000213733,-0.001214288,0.000178549,-0.000585666,-0.061850306,9.757371902
1784242071.480721,-0.006213989,-0.004222050,-0.017353356,-0.000487239,-0.001140485,-0.000399558,0.019017376,-0.032507028,9.817207336
1784242071.482719,-0.006216208,-0.004225022,-0.017349826,-0.000723446,-0.001105869,-0.000568142,0.033086304,-0.020892002,9.796671867
1784242071.484721,-0.006214931,-0.004225910,-0.017348126,-0.000589496,-0.001069827,-0.000058594,0.065098181,-0.045921545,9.793404579
1784242071.486719,-0.006214215,-0.004225770,-0.017346960,-0.000362629,-0.000827978,0.000151547,0.061464898,-0.049462430,9.793827057
1784242071.488719,-0.006219006,-0.004225797,-0.017352732,-0.000611383,-0.000590233,-0.000201134,0.053990871,-0.075202733,9.772582054
1784242071.490731,-0.006225346,-0.004228676,-0.017361457,-0.001154528,-0.000589032,-0.001127508,0.010945032,-0.071175233,9.787809372
1784242071.492721,-0.006225065,-0.004225575,-0.017363463,-0.001204964,-0.000377439,-0.001547914,0.026574701,-0.074804708,9.829049110
1784242071.494719,-0.006220778,-0.004220132,-0.017363308,-0.000568356,0.000305766,-0.001254448,0.058830168,-0.044516262,9.796096802
1784242071.496724,-0.006221074,-0.004222155,-0.017362155,-0.000144198,0.000532585,-0.000825612,0.064130954,-0.012113631,9.829486847
1784242071.498720,-0.006222988,-0.004223539,-0.017362075,-0.000256096,0.000234379,-0.000516460,0.039120812,-0.042782683,9.776811600
1784242071.500723,-0.006227801,-0.004224873,-0.017363604,-0.000662996,-0.000014244,-0.000472455,0.050850596,-0.072725914,9.808013916
1784242071.502720,-0.006229959,-0.004225990,-0.017366186,-0.000976868,-0.000176069,-0.000620837,0.023788054,-0.084431402,9.801635742
1784242071.504724,-0.006227579,-0.004223973,-0.017365526,-0.000697113,-0.000066334,-0.000582442,0.029769184,-0.071585216,9.811587334
1784242071.506729,-0.006228259,-0.004224611,-0.017367287,-0.000349005,-0.000006281,-0.000500197,0.038419917,-0.060978360,9.816595078
1784242071.508727,-0.006232415,-0.004234191,-0.017363809,-0.000538372,-0.000750938,-0.000246809,0.058065277,-0.069701254,9.810729980
1784242071.510736,-0.006234476,-0.004241384,-0.017360300,-0.000771097,-0.001618592,0.000296856,0.041910611,-0.069910444,9.806229591
1784242071.512739,-0.006229923,-0.004236739,-0.017361477,-0.000350788,-0.001283079,0.000374305,0.050892368,-0.070775092,9.785609245
1784242071.514735,-0.006227040,-0.004238175,-0.017361898,0.000248831,-0.000716179,0.000162212,0.026248783,-0.067345411,9.788745880
1784242071.516732,-0.006224950,-0.004238178,-0.017358320,0.000590375,-0.000682147,0.000330374,0.048236538,-0.028810922,9.811879158
1784242071.518735,-0.006221210,-0.004234849,-0.017359508,0.000897064,-0.000333661,0.000400619,0.071379445,-0.046411842,9.788026810
1784242071.520736,-0.006220303,-0.004233920,-0.017361524,0.000978905,0.000122049,0.000073603,0.047414038,-0.060124293,9.806298256
1784242071.522735,-0.006222719,-0.004233443,-0.017363032,0.000620600,0.000260654,-0.000184418,0.038764570,-0.071531683,9.787835121
1784242071.524744,-0.006220114,-0.004234080,-0.017360257,0.000465323,0.000178502,-0.000048304,0.046665303,-0.085992187,9.790886879
1784242071.526745,-0.006217415,-0.004242902,-0.017359652,0.000779133,-0.000498806,0.000192507,0.052498672,-0.048880406,9.791131973
1784242071.528743,-0.006213770,-0.004248324,-0.017360890,0.001077200,-0.001315293,0.000095468,0.037066374,-0.064261824,9.776671410
1784242071.530743,-0.006213677,-0.004241825,-0.017356230,0.001069183,-0.000937370,0.000300616,0.057078507,-0.076879390,9.813821793
1784242071.532769,-0.006214447,-0.004234470,-0.017353699,0.000764743,0.000203574,0.000707137,0.063507594,-0.064855397,9.812561035
1784242071.534758,-0.006213156,-0.004235889,-0.017354928,0.000592893,0.000550659,0.000603526,0.058309324,-0.012353303,9.810648918
1784242071.536799,-0.006212053,-0.004237804,-0.017351652,0.000442865,0.000191469,0.000578753,0.073510349,-0.052597951,9.835063934
1784242071.538754,-0.006211761,-0.004233907,-0.017354185,0.000265370,0.000291076,0.000472351,0.056680851,-0.037259717,9.787623405
1784242071.540751,-0.006212522,-0.004233715,-0.017355686,0.000084754,0.000564175,0.000070941,0.059065223,-0.060798045,9.817065239
1784242071.542757,-0.006216830,-0.004235073,-0.017355885,-0.000358460,0.000405504,-0.000061503,0.040230643,-0.098870769,9.786315918
1784242071.544786,-0.006217399,-0.004238594,-0.017361389,-0.000593798,-0.000033355,-0.000430426,0.048851222,-0.089312464,9.812836647
1784242071.546762,-0.006214655,-0.004241487,-0.017365005,-0.000204996,-0.000429658,-0.000933392,0.039263498,-0.104272962,9.791659355
1784242071.548763,-0.006215248,-0.004240764,-0.017359847,0.000079625,-0.000434816,-0.000576144,0.055565409,-0.091959275,9.794893265
1784242071.550763,-0.006212902,-0.004246189,-0.017356301,0.000285015,-0.000513538,0.000171086,0.029598700,-0.047904294,9.821154594
1784242071.552757,-0.006211898,-0.004251053,-0.017359940,0.000540454,-0.000946359,0.000117801,0.055714339,-0.043062169,9.786239624
1784242071.554763,-0.006214848,-0.004248979,-0.017358514,0.000260918,-0.000877774,-0.000064031,0.027824724,-0.046095826,9.822060585
1784242071.556768,-0.006213062,-0.004243634,-0.017357579,0.000027401,-0.000181400,0.000113940,0.036207933,-0.059484910,9.799566269
1784242071.558765,-0.006209896,-0.004244013,-0.017358521,0.000271746,0.000160437,0.000080861,0.061168496,-0.075307444,9.774381638
1784242071.560787,-0.006205096,-0.004243192,-0.017354660,0.000790830,0.000224573,0.000254845,0.060729802,-0.074412122,9.775283813
1784242071.562773,-0.006206497,-0.004244582,-0.017351650,0.000860196,0.000200968,0.000651485,0.038846739,-0.065209351,9.780701637
1784242071.564775,-0.006202298,-0.004246827,-0.017350735,0.000817691,-0.000101995,0.000740123,0.038880121,-0.061298531,9.797763824
1784242071.566772,-0.006200147,-0.004247954,-0.017351430,0.001004287,-0.000323496,0.000552311,0.053750820,-0.056528877,9.793324471
1784242071.568773,-0.006202578,-0.004247477,-0.017350804,0.000690229,-0.000299903,0.000397756,0.002958059,-0.024668822,9.815001488
1784242071.570781,-0.006201447,-0.004240909,-0.017351994,0.000321573,0.000150996,0.000251254,0.020335287,-0.035583694,9.806428909
1784242071.572815,-0.006196050,-0.004236538,-0.017360346,0.000581712,0.000747521,-0.000466898,0.050000262,-0.033942360,9.774188995
1784242071.574791,-0.006192328,-0.004235861,-0.017363146,0.001039552,0.000891867,-0.001099567,0.074264996,-0.065489024,9.819291115
1784242071.576781,-0.006192270,-0.004237577,-0.017362256,0.001006274,0.000655118,-0.000931133,0.050570995,-0.096817248,9.793960571
1784242071.578785,-0.006197697,-0.004241575,-0.017358748,0.000362783,0.000162684,-0.000377954,0.061086141,-0.119626366,9.769165993
1784242071.580790,-0.006200250,-0.004245105,-0.017354950,-0.000107837,-0.000323242,0.000222889,0.069223724,-0.112359352,9.803742409
1784242071.582831,-0.006201365,-0.004248087,-0.017357266,-0.000159675,-0.000605940,0.000264317,0.022436781,-0.047675591,9.801869392
1784242071.584793,-0.006205672,-0.004249712,-0.017358257,-0.000485341,-0.000752788,-0.000030564,0.012649968,-0.042017773,9.779929161
1784242071.586788,-0.006209116,-0.004249348,-0.017357115,-0.000938152,-0.000678888,-0.000010043,0.003626449,-0.008350827,9.787309647
1784242071.588790,-0.006206272,-0.004253965,-0.017356489,-0.000782283,-0.000828945,0.000112853,0.063738637,-0.008825887,9.808883667
1784242071.590789,-0.006195040,-0.004255338,-0.017352877,0.000271391,-0.000913395,0.000366480,0.067418009,-0.039269038,9.798829079
1784242071.592786,-0.006194758,-0.004254359,-0.017358618,0.000863324,-0.000592383,0.000119853,0.075041205,-0.043861907,9.737833023
1784242071.594828,-0.006193212,-0.004255516,-0.017357718,0.000751621,-0.000441565,-0.000241655,0.053883042,-0.083348714,9.784187317
1784242071.596846,-0.006188876,-0.004257676,-0.017350417,0.000991791,-0.000502579,0.000379087,0.048658352,-0.068239808,9.811177254
1784242071.598813,-0.006188395,-0.004261473,-0.017353790,0.001093181,-0.000724454,0.000541357,0.062660024,-0.025239507,9.787705421
1784242071.600811,-0.006187699,-0.004263505,-0.017359288,0.000753303,-0.000876315,-0.000207520,0.032566998,-0.025496231,9.815023422
1784242071.602796,-0.006185885,-0.004263868,-0.017357316,0.000597769,-0.000756160,-0.000390602,0.017213065,-0.034990557,9.791635513
1784242071.604800,-0.006185885,-0.004263868,-0.017357316,0.000628248,-0.000549830,0.000397558,0.033641681,-0.048324522,9.809947014
1784242071.606801,-0.006195965,-0.004260103,-0.017329086,0.000838048,-0.000344767,0.000557592,0.039700873,-0.018414561,9.793407440
1784242071.608809,-0.006195965,-0.004260103,-0.017329086,0.001009159,-0.000297805,-0.000228501,0.039350629,-0.059105806,9.803606033
1784242071.610810,-0.006196456,-0.004260195,-0.017329084,0.000673158,-0.000440390,-0.000514049,0.045551274,-0.065095633,9.815678596
1784242071.612804,-0.006196456,-0.004260195,-0.017329084,-0.000242199,-0.000646244,-0.000525132,0.039943997,-0.047432769,9.799198151
1784242071.614810,-0.006196456,-0.004260195,-0.017329084,-0.001233348,-0.000737384,-0.000750015,0.059264254,-0.045853171,9.794296265
1784242071.616806,-0.006195782,-0.004261310,-0.017329089,-0.001812535,-0.000809857,-0.000173523,0.043440621,-0.054697014,9.806328773
1784242071.618807,-0.006195782,-0.004261310,-0.017329089,-0.002033366,-0.000561602,0.000699738,0.024293276,-0.042348493,9.805492401
1784242071.620804,-0.006195223,-0.004260716,-0.017329087,-0.002024547,0.000160274,0.000869836,0.010706647,-0.053298730,9.794649124
1784242071.622810,-0.006195223,-0.004260716,-0.017329087,-0.002253172,0.000566124,0.000433103,0.059990827,-0.022997007,9.792201996
1784242071.624814,-0.006195223,-0.004260716,-0.017329087,-0.002387722,0.000465785,0.000058636,0.072710201,-0.010986719,9.781530380
1784242071.626816,-0.006192801,-0.004262167,-0.017329093,-0.001798619,0.000438061,-0.000014245,0.034567095,-0.048520066,9.772734642
1784242071.628817,-0.006192801,-0.004262167,-0.017329093,-0.000136597,0.000518431,-0.001021564,0.052588027,-0.079280734,9.781521797
1784242071.630822,-0.006194413,-0.004262905,-0.017329099,0.001221078,0.000703715,-0.002133535,0.060965892,-0.091091007,9.789074898
1784242071.632820,-0.006194413,-0.004262905,-0.017329099,0.000746177,0.001065708,-0.002168427,0.074468903,-0.088906035,9.772514343
1784242071.634826,-0.006194413,-0.004262905,-0.017329099,0.000050815,0.000863102,-0.001854014,0.023722919,-0.089403488,9.807879448
1784242071.636823,-0.006195933,-0.004261968,-0.017329093,0.000173476,0.000349623,-0.001770421,0.026430741,-0.050103862,9.821136475
1784242071.638825,-0.006195933,-0.004261968,-0.017329093,0.000372349,0.000047038,-0.001817262,0.035067711,-0.041631892,9.811336517
1784242071.640830,-0.006194601,-0.004262206,-0.017329091,0.000155229,-0.000223043,-0.001924445,0.044767458,-0.055676967,9.815739632
1784242071.642807,-0.006194601,-0.004262206,-0.017329091,-0.000199430,-0.000236577,-0.002182336,0.056603290,-0.043140441,9.795655251
1784242071.644830,-0.006194601,-0.004262206,-0.017329091,-0.000309934,0.000127740,-0.002006851,0.016664706,-0.041850489,9.812214851
1784242071.646869,-0.006193558,-0.004260851,-0.017329080,-0.000121588,0.000314260,-0.001229160,0.034530338,-0.050026111,9.795590401
1784242071.648844,-0.006193558,-0.004260851,-0.017329080,0.000195266,0.000322761,-0.000753303,0.080290832,-0.052289914,9.779479980
1784242071.650887,-0.006192657,-0.004264082,-0.017329099,0.000204484,-0.000188089,-0.000825070,0.077928200,-0.060496166,9.803634644
1784242071.652854,-0.006192657,-0.004264082,-0.017329099,-0.000101822,-0.001131400,-0.001115705,0.048811641,-0.056087632,9.803186417
1784242071.654855,-0.006192657,-0.004264082,-0.017329099,-0.000299239,-0.001046785,-0.001016208,0.035674311,-0.029043850,9.804244041
1784242071.656868,-0.006191535,-0.004264086,-0.017329095,-0.000237989,-0.000341487,-0.000596829,0.024716262,-0.043367807,9.822073936
1784242071.658859,-0.006191535,-0.004264086,-0.017329095,-0.000847234,-0.000195850,-0.000745702,0.034840200,-0.023669537,9.806070328
1784242071.660850,-0.006190147,-0.004264307,-0.017329095,-0.001870398,-0.000278069,-0.001415729,0.014736447,-0.055444010,9.774016380
1784242071.662861,-0.006190147,-0.004264307,-0.017329095,-0.002399851,-0.000377951,-0.001632940,0.042809203,-0.110339217,9.756205559
1784242071.664851,-0.006190147,-0.004264307,-0.017329095,-0.002755398,-0.000868895,-0.001161644,0.033899270,-0.067265086,9.763647079
1784242071.666852,-0.006191484,-0.004263887,-0.017329093,-0.002830843,-0.001011424,-0.000997338,0.028582867,-0.025421860,9.748666763
1784242071.668855,-0.006191484,-0.004263887,-0.017329093,-0.001923850,-0.000888539,-0.001380302,0.070741072,-0.062897988,9.776263237
1784242071.670859,-0.006191975,-0.004264446,-0.017329095,-0.000922532,-0.001072678,-0.001660271,0.043967336,-0.087218896,9.779220581
1784242071.672852,-0.006191975,-0.004264446,-0.017329095,-0.000280840,-0.000849102,-0.001338869,0.064539924,-0.055291187,9.788860321
1784242071.674860,-0.006191975,-0.004264446,-0.017329095,0.000046606,-0.000270406,-0.001156792,0.072586484,-0.057253290,9.798270226
1784242071.676858,-0.006191634,-0.004265253,-0.017329099,-0.000201869,0.000264303,-0.001006243,0.043844849,-0.058295995,9.807650566
1784242071.678927,-0.006191634,-0.004265253,-0.017329099,-0.000543149,0.000994337,-0.000371425,0.036929496,-0.071826644,9.832663536
1784242071.680887,-0.006191955,-0.004265382,-0.017329101,-0.000813207,0.001255295,0.000270009,0.043416969,-0.091257878,9.844202042
1784242071.682897,-0.006191955,-0.004265382,-0.017329101,-0.000781125,0.000849512,0.000644071,0.053250737,-0.059360348,9.814377785
1784242071.684873,-0.006191955,-0.004265382,-0.017329101,-0.000992891,0.000468657,0.000554687,0.040566988,-0.033094224,9.797945976
1784242071.686866,-0.006191326,-0.004265042,-0.017329099,-0.001488135,0.000498879,0.000815676,0.064232260,-0.043635268,9.788486481
1784242071.688907,-0.006191326,-0.004265042,-0.017329099,-0.001140725,0.000818693,0.001098848,0.046315938,-0.039507192,9.807324409
1784242071.690916,-0.006190892,-0.004265396,-0.017329101,-0.000295416,0.000526520,0.000779648,0.039506111,-0.046531104,9.799202919
1784242071.692888,-0.006190892,-0.004265396,-0.017329101,-0.000131294,0.000214314,-0.000067919,0.061308507,-0.025670219,9.787702560
1784242071.694898,-0.006190892,-0.004265396,-0.017329101,-0.000455074,0.000801287,-0.000627374,0.057519097,-0.078975499,9.792737007
1784242071.696891,-0.006191443,-0.004266233,-0.017329104,-0.000366928,0.001239301,-0.000366441,0.041085877,-0.066083148,9.773524284
1784242071.698884,-0.006191443,-0.004266233,-0.017329104,-0.000073555,0.001068390,0.000074005,0.059599020,-0.090832479,9.818217278
1784242071.700888,-0.006192290,-0.004266622,-0.017329108,-0.000239590,0.000982759,0.000593049,0.048726004,-0.102458753,9.771505356
1784242071.702885,-0.006192290,-0.004266622,-0.017329108,-0.000684997,0.001013872,0.000971172,0.045446936,-0.077266537,9.763145447
1784242071.704889,-0.006192290,-0.004266622,-0.017329108,-0.000723559,0.000657353,0.000938092,0.043306049,-0.028706348,9.806046486
1784242071.706888,-0.006191415,-0.004267300,-0.017329112,0.000150628,0.000208575,0.000806062,0.025418542,-0.024755964,9.786776543
1784242071.708888,-0.006191415,-0.004267300,-0.017329112,0.000609311,0.000205338,0.001072437,0.050839037,-0.036848303,9.803313255
1784242071.710887,-0.006191236,-0.004267993,-0.017329115,-0.000283513,0.000467424,0.001392375,0.086298481,-0.073176920,9.807596207
1784242071.712888,-0.006191236,-0.004267993,-0.017329115,-0.000895164,0.000769580,0.001030418,0.037721232,-0.085235275,9.763535500
1784242071.714896,-0.006191236,-0.004267993,-0.017329115,-0.000837208,0.000662386,0.000422728,0.022279747,-0.061073083,9.795955658
1784242071.716901,-0.006191500,-0.004267932,-0.017329115,-0.000943089,0.000297020,0.000122610,0.022410652,-0.051529180,9.776739120
1784242071.718899,-0.006191500,-0.004267932,-0.017329115,-0.001131885,-0.000168588,0.000335933,0.048269041,-0.061686348,9.835429192
1784242071.720896,-0.006191642,-0.004268382,-0.017329117,-0.001197581,-0.000509772,0.000690009,0.030310873,-0.064372718,9.804460526
1784242071.722898,-0.006191642,-0.004268382,-0.017329117,-0.000808762,-0.000545932,0.000769309,0.040583324,-0.068123616,9.809378624
1784242071.724900,-0.006191642,-0.004268382,-0.017329117,-0.000344654,-0.000556557,0.000881609,0.054824594,-0.040153421,9.819883347
1784242071.726895,-0.006190589,-0.004268196,-0.017329115,-0.000347634,-0.000414412,0.000602675,0.051580265,-0.051061016,9.784391403
1784242071.728897,-0.006190589,-0.004268196,-0.017329115,-0.000492077,-0.000180787,-0.000015219,0.057926554,-0.044959076,9.796989441
1784242071.730898,-0.006190214,-0.004268550,-0.017329115,-0.000512388,-0.000428036,-0.000052347,0.042419918,-0.028605821,9.793493271
1784242071.732907,-0.006190214,-0.004268550,-0.017329115,-0.000189158,-0.001063329,0.000171332,0.036689542,-0.057609778,9.787024498
1784242071.734912,-0.006190214,-0.004268550,-0.017329115,0.000327228,-0.000681761,0.000104757,0.038819171,-0.103422165,9.798837662
1784242071.736906,-0.006191672,-0.004268427,-0.017329117,0.000331084,0.000336528,0.000330568,0.058138505,-0.103065610,9.776891708
1784242071.738904,-0.006191672,-0.004268427,-0.017329117,-0.000562090,0.000257162,0.000958417,0.034992676,-0.049113683,9.792458534
1784242071.740909,-0.006191273,-0.004267770,-0.017329114,-0.001394829,0.000110537,0.001541377,0.038577624,-0.051628042,9.761509895
1784242071.742907,-0.006191273,-0.004267770,-0.017329114,-0.000927121,0.000606767,0.001537881,0.047111660,-0.049237110,9.787985802
1784242071.744915,-0.006191273,-0.004267770,-0.017329114,-0.000063354,0.000784405,0.001246312,0.083026953,-0.046304140,9.814939499
1784242071.746921,-0.006191028,-0.004268442,-0.017329115,0.000143934,0.000430169,0.001391578,0.080361255,-0.045249715,9.797457695
1784242071.748918,-0.006191028,-0.004268442,-0.017329115,0.000366891,0.000152895,0.001569617,0.049391720,-0.044519525,9.813572884
1784242071.750917,-0.006191043,-0.004268860,-0.017329119,0.001075852,0.000270656,0.001431190,0.060761917,-0.069700778,9.805800438
1784242071.752924,-0.006191043,-0.004268860,-0.017329119,0.001570498,-0.000055421,0.001021137,0.077015884,-0.098192267,9.813702583
1784242071.754926,-0.006191043,-0.004268860,-0.017329119,0.001134942,-0.000407943,0.000323372,0.020483207,-0.062279511,9.779806137
1784242071.756953,-0.006192298,-0.004268834,-0.017329121,0.000116343,-0.000384987,-0.000545534,-0.001045523,-0.060716890,9.787865639
1784242071.758965,-0.006192298,-0.004268834,-0.017329121,-0.000571806,-0.000334729,-0.000871369,0.051494945,-0.055382010,9.825162888
1784242071.760965,-0.006191982,-0.004270154,-0.017329128,-0.000494171,-0.000040790,-0.000059378,0.057693914,-0.063411333,9.808975220
1784242071.762960,-0.006191982,-0.004270154,-0.017329128,-0.000527387,0.000368425,0.001164906,0.013231883,-0.065593518,9.817885399
1784242071.764940,-0.006191982,-0.004270154,-0.017329128,-0.000679934,0.000365806,0.001423092,0.046292454,-0.043745156,9.773224831
1784242071.766936,-0.006191337,-0.004269981,-0.017329128,-0.000267906,0.000127810,0.001033035,0.052438378,-0.053814333,9.791996956
1784242071.768942,-0.006191337,-0.004269981,-0.017329128,0.000074258,0.000493955,0.000751955,0.031182952,-0.068231449,9.778433800
1784242071.770956,-0.006191743,-0.004269416,-0.017329127,0.000125104,0.000781490,0.000438682,0.039094117,-0.044209234,9.788457870
1784242071.772938,-0.006191743,-0.004269416,-0.017329127,0.000099524,0.000217667,0.000206057,0.043761123,-0.065441117,9.804466248
1784242071.774982,-0.006191743,-0.004269416,-0.017329127,0.000116702,-0.000264349,-0.000144266,0.035516806,-0.079224423,9.804369926
1784242071.776950,-0.006191746,-0.004269081,-0.017329123,0.000352515,-0.000024147,-0.000359719,-0.003548611,-0.083000362,9.775615692
1784242071.778996,-0.006191746,-0.004269081,-0.017329123,0.000794342,0.000092489,-0.000281897,0.063907914,-0.032516342,9.800662041
1784242071.780959,-0.006190702,-0.004270326,-0.017329128,0.000840512,-0.000146102,0.000187746,0.066236511,-0.062573768,9.801816940
1784242071.782950,-0.006190702,-0.004270326,-0.017329128,0.000495195,-0.000226496,0.000638106,0.036168579,-0.061416656,9.819280624
1784242071.784950,-0.006190702,-0.004270326,-0.017329128,0.000117647,-0.000422273,0.000080685,0.028510535,-0.066014379,9.786515236
1784242071.786952,-0.006191001,-0.004269642,-0.017329125,-0.000501288,-0.000632187,-0.000488778,0.064026035,-0.059447456,9.807213783
1784242071.788949,-0.006191001,-0.004269642,-0.017329125,-0.000533389,-0.000344513,-0.000106226,0.059481759,-0.064705081,9.798657417
1784242071.790993,-0.006191223,-0.004270889,-0.017329132,0.000152999,0.000254380,0.000013289,0.066180468,-0.067879349,9.791918755
1784242071.793000,-0.006191223,-0.004270889,-0.017329132,0.000614360,0.000264637,-0.000804671,0.039439712,-0.050702654,9.818903923
1784242071.794970,-0.006191223,-0.004270889,-0.017329132,0.000982932,-0.000052670,-0.001330096,0.041554898,-0.062686451,9.799101830
1784242071.796961,-0.006190966,-0.004271002,-0.017329132,0.000893049,0.000148258,-0.001097264,0.025226396,-0.078046821,9.783296585
1784242071.798959,-0.006190966,-0.004271002,-0.017329132,0.000265788,0.000244809,-0.000621937,0.043778088,-0.100870766,9.809170723
1784242071.800984,-0.006192839,-0.004271151,-0.017329136,-0.000354311,0.000210792,-0.000583388,0.054883450,-0.037662420,9.784480095
1784242071.802958,-0.006192839,-0.004271151,-0.017329136,-0.000781686,0.000726830,-0.000732772,0.054516129,-0.028503861,9.820405960
1784242071.804971,-0.006192839,-0.004271151,-0.017329136,-0.000839527,0.001311035,-0.000027702,0.057192627,-0.031499207,9.795730591
1784242071.806970,-0.006191945,-0.004272399,-0.017329141,-0.000755259,0.001682368,0.000305315,0.051640850,-0.082093723,9.800780296
1784242071.808965,-0.006191945,-0.004272399,-0.017329141,-0.000767809,0.001652007,-0.000157900,0.043797147,-0.061914660,9.812559128
1784242071.810964,-0.006191269,-0.004272161,-0.017329141,-0.000581546,0.001373912,-0.000189583,0.037555248,-0.059492618,9.798222542
1784242071.812971,-0.006191269,-0.004272161,-0.017329141,-0.000339893,0.000988750,0.000021162,0.049318638,-0.051175348,9.804563522
1784242071.814968,-0.006191269,-0.004272161,-0.017329141,-0.000818041,0.000356672,-0.000062985,0.061487168,-0.048070848,9.787110329
1784242071.816969,-0.006191062,-0.004273029,-0.017329145,-0.001163831,0.000060167,-0.000448299,0.047751557,-0.072354987,9.761385918
1784242071.818974,-0.006191062,-0.004273029,-0.017329145,-0.000670409,0.000161554,-0.000960718,0.018053791,-0.039907370,9.788465500
1784242071.820974,-0.006189683,-0.004271628,-0.017329136,-0.000075556,0.000251318,-0.001405754,0.048807956,-0.058143020,9.777170181
1784242071.822969,-0.006189683,-0.004271628,-0.017329136,0.000139797,0.000211398,-0.001785047,0.069892250,-0.057234697,9.800509453
1784242071.824977,-0.006189683,-0.004271628,-0.017329136,0.000057529,-0.000035634,-0.001322828,0.026923629,-0.048139706,9.796042442
1784242071.826982,-0.006188511,-0.004272068,-0.017329136,-0.000148599,-0.000253004,-0.000499148,0.005605029,-0.066702940,9.798594475
1784242071.828984,-0.006188511,-0.004272068,-0.017329136,-0.000513435,-0.000350727,-0.000603130,0.040531423,-0.072180696,9.812938690
1784242071.830986,-0.006188876,-0.004272363,-0.017329138,-0.000652852,-0.000476281,-0.000841448,0.053394236,-0.086091138,9.792687416
1784242071.832985,-0.006188876,-0.004272363,-0.017329138,0.000116033,-0.000325365,-0.000976223,0.043074254,-0.085552275,9.798508644
1784242071.834988,-0.006188876,-0.004272363,-0.017329138,0.001072645,-0.000257911,-0.000712975,0.051363222,-0.067769110,9.803113937
1784242071.836984,-0.006189294,-0.004272457,-0.017329140,0.001167316,-0.000566578,0.000179868,0.037671816,-0.087246515,9.794457436
1784242071.838987,-0.006189294,-0.004272457,-0.017329140,0.000662793,-0.000369835,0.000597059,0.027388547,-0.084391534,9.789533615
1784242071.840988,-0.006189757,-0.004271384,-0.017329132,0.000007522,-0.000096970,0.000829035,0.038623832,-0.046805404,9.776335716
1784242071.842988,-0.006189757,-0.004271384,-0.017329132,-0.000333541,-0.000638513,0.001138534,0.044847090,-0.050590407,9.793355942
1784242071.844999,-0.006189757,-0.004271384,-0.017329132,-0.000199000,-0.000748610,0.001275935,0.046283767,-0.043408483,9.788918495
1784242071.846995,-0.006189035,-0.004271341,-0.017329132,0.000068397,-0.000218558,0.001361647,0.050712220,-0.047170486,9.805934906
1784242071.849000,-0.006189035,-0.004271341,-0.017329132,0.000494587,-0.000229237,0.001151468,0.049270187,-0.055610444,9.798258781
1784242071.850997,-0.006188286,-0.004272799,-0.017329138,0.000769577,-0.000252420,0.000637175,0.053964533,-0.038226068,9.802409172
1784242071.852996,-0.006188286,-0.004272799,-0.017329138,0.000541502,0.000274400,0.000409282,0.049699329,-0.055365376,9.826056480
1784242071.855014,-0.006188286,-0.004272799,-0.017329138,-0.000093999,0.000822580,0.000676678,0.055239733,-0.082066588,9.790472031
1784242071.857014,-0.006189012,-0.004274124,-0.017329145,-0.000467485,0.000956062,0.000039750,0.008630976,-0.076566540,9.794050217
1784242071.859018,-0.006189012,-0.004274124,-0.017329145,-0.000307953,0.000657757,-0.001256146,0.027779372,-0.051722173,9.794227600
1784242071.861013,-0.006188733,-0.004273363,-0.017329141,-0.000126289,-0.000015332,-0.001372245,0.030939965,-0.050796550,9.784373283
1784242071.863012,-0.006188733,-0.004273363,-0.017329141,0.000273360,-0.000745973,-0.000898129,0.038325544,-0.068612784,9.819236755
1784242071.865015,-0.006188733,-0.004273363,-0.017329141,0.000210799,-0.000554234,-0.000585373,0.037750989,-0.081353068,9.784631729
1784242071.867014,-0.006189543,-0.004273662,-0.017329143,-0.000156198,-0.000033327,-0.000319817,0.080821112,-0.081136256,9.802608490
1784242071.869013,-0.006189543,-0.004273662,-0.017329143,0.000260540,0.000033782,-0.000289482,0.026378034,-0.054167304,9.825593948
1784242071.871014,-0.006188745,-0.004273171,-0.017329140,0.001019578,0.000401634,-0.000246830,0.050243720,-0.049347308,9.797849655
1784242071.873013,-0.006188745,-0.004273171,-0.017329140,0.001537022,0.000706656,-0.000323920,0.054908726,-0.033005122,9.822619438
1784242071.875103,-0.006188745,-0.004273171,-0.017329140,0.001516880,0.000934803,-0.000651454,0.053724233,-0.059575580,9.780753136
1784242071.877064,-0.006188280,-0.004273874,-0.017329143,0.001176171,0.001102972,-0.000637840,0.066918604,-0.080900796,9.794527054
1784242071.879073,-0.006188280,-0.004273874,-0.017329143,0.000686240,0.000773459,0.000127350,0.067544691,-0.067753516,9.771746635
1784242071.881043,-0.006187945,-0.004274809,-0.017329149,0.000312292,0.000606256,0.000576851,0.045713075,-0.053686757,9.786162376
1784242071.883049,-0.006187945,-0.004274809,-0.017329149,0.000295414,0.000592900,0.000381816,0.047829658,-0.027664414,9.777363777
1784242071.885033,-0.006187945,-0.004274809,-0.017329149,0.000372324,0.000491659,0.000329626,0.042888295,-0.027645689,9.783637047
1784242071.887064,-0.006186304,-0.004275126,-0.017329151,0.000519551,0.000471473,0.000201790,0.035151087,-0.035300013,9.802858353
1784242071.889041,-0.006186304,-0.004275126,-0.017329151,0.000630032,0.000727496,-0.000016186,0.023549953,-0.067768417,9.790085793
1784242071.891045,-0.006187709,-0.004275095,-0.017329153,0.000713268,0.001148520,-0.000263928,0.039461780,-0.090144500,9.757677078
1784242071.893035,-0.006187709,-0.004275095,-0.017329153,0.000838532,0.000717342,-0.000574776,0.030026147,-0.090125524,9.772014618
1784242071.895082,-0.006187709,-0.004275095,-0.017329153,0.000539960,-0.000476074,-0.000554019,0.041560765,-0.063045375,9.786546707
1784242071.897041,-0.006189194,-0.004275274,-0.017329155,-0.000377250,-0.000781606,-0.000266090,0.044901986,-0.046104435,9.792487144
1784242071.899057,-0.006189194,-0.004275274,-0.017329155,-0.001016561,-0.000031872,-0.000159185,0.050066080,-0.064933740,9.784749031
1784242071.901046,-0.006190024,-0.004275636,-0.017329158,-0.000665842,0.000775374,-0.000060502,0.047262758,-0.072260581,9.812047005
1784242071.903046,-0.006190024,-0.004275636,-0.017329158,-0.000178652,0.001072405,0.000100393,0.031728331,-0.093716688,9.832967758
1784242071.905047,-0.006190024,-0.004275636,-0.017329158,0.000029069,0.001073834,0.000306431,0.031784538,-0.090841316,9.806533813
1784242071.907051,-0.006192511,-0.004274433,-0.017329155,0.000325089,0.001125984,0.000673664,0.057093304,-0.075141601,9.821455002
1784242071.909075,-0.006192511,-0.004274433,-0.017329155,0.000551973,0.000446320,0.000540068,0.051462546,-0.058879849,9.813033104
1784242071.911053,-0.006191898,-0.004274607,-0.017329155,0.000512300,-0.000709690,-0.000030609,0.053937085,-0.075222179,9.838486671
1784242071.913053,-0.006191898,-0.004274607,-0.017329155,0.000089181,-0.001101032,0.000115150,0.058488265,-0.070720576,9.827311516
1784242071.915055,-0.006191898,-0.004274607,-0.017329155,-0.000336776,-0.000522218,0.000442582,0.063700765,-0.049551588,9.802346230
1784242071.917055,-0.006191542,-0.004275348,-0.017329158,-0.000966334,0.000426188,0.000466918,0.016007751,-0.060509663,9.791021347
1784242071.919062,-0.006191542,-0.004275348,-0.017329158,-0.001478700,0.001136446,0.000358306,0.041011129,-0.071941614,9.778418541
1784242071.921062,-0.006191680,-0.004275683,-0.017329162,-0.001420907,0.001291886,-0.000155391,0.027760956,-0.053488586,9.790630341
1784242071.923063,-0.006191680,-0.004275683,-0.017329162,-0.001219256,0.001220311,-0.000024940,0.038178589,-0.044340823,9.808632851
1784242071.925068,-0.006191680,-0.004275683,-0.017329162,-0.000927528,0.001289613,0.000558398,0.051494129,-0.058225207,9.783898354
1784242071.927062,-0.006192124,-0.004276130,-0.017329164,-0.000787584,0.001270213,0.000766227,0.057047963,-0.043177992,9.800138474
1784242071.929068,-0.006192124,-0.004276130,-0.017329164,-0.000887584,0.000935379,0.000735003,0.061165851,-0.074923076,9.783350945
1784242071.931066,-0.006192516,-0.004276743,-0.017329169,-0.000706106,0.000691813,0.000207212,0.026954003,-0.082247734,9.803894997
1784242071.933065,-0.006192516,-0.004276743,-0.017329169,-0.000100068,0.000763913,-0.000608379,0.013806991,-0.092870228,9.809193611
1784242071.935070,-0.006192516,-0.004276743,-0.017329169,0.000121112,0.000617723,-0.000698535,0.019470494,-0.070067771,9.805758476
1784242071.937067,-0.006193197,-0.004275768,-0.017329164,0.000155379,0.000581823,-0.000312725,0.030336078,-0.061742183,9.812546730
1784242071.939096,-0.006193197,-0.004275768,-0.017329164,0.000439086,0.000987296,-0.000425991,0.065143533,-0.043132033,9.779074669
1784242071.941076,-0.006192679,-0.004277126,-0.017329173,0.000285845,0.001413328,-0.000634711,0.058396421,-0.079956055,9.803041458
1784242071.943075,-0.006192679,-0.004277126,-0.017329173,0.000132486,0.001202382,-0.000825835,0.035383835,-0.087974161,9.837939262
1784242071.945093,-0.006192679,-0.004277126,-0.017329173,0.000268268,0.000454172,-0.001310971,0.048479628,-0.082619093,9.817361832
1784242071.947085,-0.006193184,-0.004276413,-0.017329168,-0.000103206,-0.000034147,-0.001285730,0.064435646,-0.100188442,9.802021980
1784242071.949088,-0.006193184,-0.004276413,-0.017329168,-0.000607320,-0.000015911,-0.000200573,0.047982544,-0.050268546,9.805465698
1784242071.951090,-0.006192014,-0.004276220,-0.017329164,-0.000413217,0.000186103,0.001115398,0.017869668,-0.017144637,9.801165581
1784242071.953102,-0.006192014,-0.004276220,-0.017329164,0.000056130,0.000406155,0.001352924,0.065239117,-0.035488077,9.775090218
1784242071.955097,-0.006192014,-0.004276220,-0.017329164,-0.000016778,0.000433471,0.000459502,0.049393252,-0.049370419,9.739565849
1784242071.957099,-0.006191116,-0.004276345,-0.017329162,-0.000146299,0.000006206,-0.000518891,0.053533256,-0.039703742,9.758911133
1784242071.959102,-0.006191116,-0.004276345,-0.017329162,0.000191190,-0.000437473,-0.000942864,0.012666761,-0.043100927,9.743159294
1784242071.961104,-0.006190677,-0.004275654,-0.017329160,0.000223061,-0.000383276,-0.000780613,0.048298035,-0.061457422,9.803152084
1784242071.963176,-0.006190677,-0.004275654,-0.017329160,-0.000324462,0.000347326,-0.000821938,0.050886381,-0.071632855,9.780223846
1784242071.965105,-0.006190677,-0.004275654,-0.017329160,-0.000849448,0.000917031,-0.000870086,0.032587521,-0.062924035,9.785642624
1784242071.967105,-0.006191174,-0.004275353,-0.017329156,-0.001112207,0.000700682,-0.000890437,0.037030600,-0.027764909,9.810978889
1784242071.969104,-0.006191174,-0.004275353,-0.017329156,-0.000927378,0.000145248,-0.001267917,0.050319966,-0.041855976,9.815384865
1784242071.971104,-0.006190625,-0.004275731,-0.017329160,-0.000736350,-0.000026994,-0.001379057,0.034713138,-0.071178235,9.808455467
1784242071.973107,-0.006190625,-0.004275731,-0.017329160,-0.000923463,-0.000133610,-0.001027192,0.071938097,-0.074628994,9.785604477
1784242071.975115,-0.006190625,-0.004275731,-0.017329160,-0.000774382,-0.000556783,-0.000700125,0.067663118,-0.055471338,9.808588028
1784242071.977111,-0.006190478,-0.004276205,-0.017329164,-0.000243605,-0.000345865,-0.000747126,0.047122944,-0.046311241,9.817594528
1784242071.979108,-0.006190478,-0.004276205,-0.017329164,0.000314593,0.000511005,-0.001282626,0.024721373,-0.044543169,9.798305511
1784242071.981115,-0.006190213,-0.004275691,-0.017329158,0.000283561,0.000815295,-0.001566900,0.033143666,-0.051950153,9.816648483
1784242071.983107,-0.006190213,-0.004275691,-0.017329158,-0.000360961,0.000587717,-0.000802683,0.051227950,-0.043404948,9.779508591
1784242071.985118,-0.006190213,-0.004275691,-0.017329158,-0.000868056,0.000366233,0.000096655,0.024545578,-0.060520329,9.777132034
1784242071.987111,-0.006190360,-0.004275092,-0.017329156,-0.000929815,0.000097335,0.000137942,0.033859354,-0.032016676,9.784497261
1784242071.989112,-0.006190360,-0.004275092,-0.017329156,-0.000792301,0.000061360,0.000187251,0.045730390,-0.053550031,9.766884804
1784242071.991120,-0.006190315,-0.004275420,-0.017329158,-0.000690415,0.000267021,0.000567452,0.049791675,-0.050583698,9.783496857
1784242071.993117,-0.006190315,-0.004275420,-0.017329158,-0.000272705,0.000360580,0.000609982,0.056086618,-0.050965883,9.762876511
1784242071.995120,-0.006190315,-0.004275420,-0.017329158,0.000334871,-0.000039966,0.000223645,0.026689541,-0.069034904,9.773491859
1784242071.997116,-0.006190576,-0.004274912,-0.017329155,0.000792055,-0.000690905,-0.000222243,0.015931278,-0.067597553,9.779767990
1784242071.999125,-0.006190576,-0.004274912,-0.017329155,0.000840908,-0.000694063,-0.000544894,0.059632454,-0.052978601,9.787525177
1784242072.001125,-0.006189787,-0.004275899,-0.017329160,0.000284775,-0.000257450,-0.000868696,0.044425435,-0.048344851,9.793368340
1784242072.003131,-0.006189787,-0.004275899,-0.017329160,-0.000244600,0.000295393,-0.001013212,0.016347310,-0.032297652,9.792548180
1784242072.005125,-0.006189787,-0.004275899,-0.017329160,-0.000789814,0.000900392,-0.001532810,0.040477615,-0.077873826,9.794520378
1784242072.007124,-0.006189788,-0.004275268,-0.017329156,-0.001334599,0.001037618,-0.002057671,0.047068793,-0.087570749,9.823157310
1784242072.009140,-0.006189788,-0.004275268,-0.017329156,-0.001340985,0.000677307,-0.001449121,0.034518644,-0.087708287,9.802073479
1784242072.011132,-0.006190801,-0.004275347,-0.017329158,-0.001368961,0.000016659,-0.000610914,0.038263056,-0.073969238,9.816511154
1784242072.013129,-0.006190801,-0.004275347,-0.017329158,-0.001101197,-0.000645612,-0.000343825,0.063107625,-0.061628066,9.800474167
1784242072.015138,-0.006190801,-0.004275347,-0.017329158,-0.000647022,-0.000608002,-0.000290358,0.060467958,-0.020346779,9.796702385
1784242072.017140,-0.006188607,-0.004276589,-0.017329162,-0.000652518,0.000071326,-0.000302466,0.038337760,-0.029710727,9.830245972
1784242072.019147,-0.006188607,-0.004276589,-0.017329162,-0.001127712,0.000498408,-0.000167998,0.041567903,-0.061368000,9.802698135
1784242072.021145,-0.006188991,-0.004276354,-0.017329162,-0.001481620,0.000177320,0.000305514,0.055096347,-0.056955937,9.787943840
1784242072.023147,-0.006188991,-0.004276354,-0.017329162,-0.001038590,-0.000495020,0.000468615,0.041231696,-0.053584747,9.779882431
1784242072.025151,-0.006188991,-0.004276354,-0.017329162,-0.000659634,-0.000927880,0.000010181,0.050594706,-0.058229610,9.786137581
1784242072.027150,-0.006188680,-0.004276219,-0.017329162,-0.000922699,-0.000949081,-0.000377157,0.054845124,-0.077581219,9.790500641
1784242072.029148,-0.006188680,-0.004276219,-0.017329162,-0.001146923,-0.000692526,-0.000928641,0.050787810,-0.079705700,9.781517982
1784242072.031164,-0.006189427,-0.004277033,-0.017329166,-0.000837974,-0.000312508,-0.001364670,0.060132127,-0.084903441,9.802564621
1784242072.033186,-0.006189427,-0.004277033,-0.017329166,-0.000126178,-0.000027014,-0.001013573,0.067093521,-0.066956773,9.786546707
1784242072.035175,-0.006189427,-0.004277033,-0.017329166,0.000608681,0.000159526,-0.000577061,0.052274264,-0.066862434,9.799982071
1784242072.037181,-0.006189773,-0.004277506,-0.017329169,0.001000033,0.000333634,-0.000367392,0.053269394,-0.020407418,9.818214417
1784242072.039185,-0.006189773,-0.004277506,-0.017329169,0.000991595,0.000015204,-0.000470324,0.058384791,-0.080858335,9.803933144
1784242072.041180,-0.006190628,-0.004279074,-0.017329181,0.000400434,-0.000874550,-0.000856783,0.052395571,-0.055368070,9.821576118
1784242072.043179,-0.006190628,-0.004279074,-0.017329181,-0.000376676,-0.001736531,-0.000887332,0.014073171,-0.072937369,9.777937889
1784242072.045176,-0.006190628,-0.004279074,-0.017329181,-0.000157151,-0.001581867,-0.000759563,0.058435895,-0.076807611,9.801268578
1784242072.047169,-0.006191361,-0.004279764,-0.017329184,0.000064044,-0.000664321,0.000060170,0.046392173,-0.069605827,9.818340302
1784242072.049174,-0.006191361,-0.004279764,-0.017329184,-0.000284096,-0.000155720,0.001197191,0.032126740,-0.063013680,9.799091339
1784242072.051191,-0.006190985,-0.004279122,-0.017329179,0.000204150,0.000138337,0.001448594,0.041669238,-0.052462835,9.810377121
1784242072.053191,-0.006190985,-0.004279122,-0.017329179,0.001124299,0.000689227,0.001508148,0.051381748,-0.067622855,9.782490730
1784242072.055179,-0.006190985,-0.004279122,-0.017329179,0.000814239,0.000793137,0.001873251,0.042524353,-0.055645026,9.815287590
1784242072.057180,-0.006191128,-0.004279560,-0.017329182,-0.000393960,0.000181442,0.001483969,0.029581267,-0.049257722,9.822489738
1784242072.059177,-0.006191128,-0.004279560,-0.017329182,-0.000493498,-0.000194393,0.000191108,0.032075539,-0.030691134,9.790331841
1784242072.061182,-0.006190885,-0.004279259,-0.017329181,-0.000001654,-0.000044282,-0.000422536,0.023389308,-0.043604568,9.794724464
1784242072.063185,-0.006190885,-0.004279259,-0.017329181,0.000482376,0.000166621,-0.000038421,0.029742774,-0.039472166,9.769201279
1784242072.065185,-0.006190885,-0.004279259,-0.017329181,0.001500935,0.000025425,0.000186663,0.046302464,-0.042855591,9.774127960
1784242072.067188,-0.006189623,-0.004279468,-0.017329179,0.002368416,-0.000151558,0.000476784,0.041496150,-0.032044459,9.774640083
1784242072.069185,-0.006189623,-0.004279468,-0.017329179,0.002641746,0.000028478,0.000833700,0.052812681,-0.058865294,9.808552742
1784242072.071191,-0.006189185,-0.004280459,-0.017329184,0.002194647,0.000493464,0.000625195,0.078891255,-0.091905676,9.808364868
1784242072.073189,-0.006189185,-0.004280459,-0.017329184,0.001473037,0.000998684,0.000437497,0.039844833,-0.093505383,9.788591385
1784242072.075201,-0.006189185,-0.004280459,-0.017329184,0.001322468,0.000931039,0.000244773,0.009169041,-0.069382645,9.790957451
1784242072.077188,-0.006189559,-0.004279179,-0.017329179,0.001405828,0.000287254,-0.000151354,0.010973688,-0.068922698,9.786031723
1784242072.079192,-0.006189559,-0.004279179,-0.017329179,0.001339673,-0.000163697,-0.000223408,0.053319782,-0.055573158,9.785709381
1784242072.081202,-0.006188789,-0.004280115,-0.017329182,0.001257744,-0.000135625,0.000339795,0.076949455,-0.029210668,9.816388130
1784242072.083204,-0.006188789,-0.004280115,-0.017329182,0.000691449,-0.000145712,0.000749108,0.046991460,-0.059101790,9.789266586
1784242072.085202,-0.006188789,-0.004280115,-0.017329182,-0.000153237,-0.000091415,0.000559547,0.060364895,-0.065234482,9.808518410
1784242072.087197,-0.006188263,-0.004280902,-0.017329188,-0.000733400,-0.000072231,0.000746328,0.060427651,-0.098681517,9.786335945
1784242072.089200,-0.006188263,-0.004280902,-0.017329188,-0.001127576,-0.000690748,0.001239954,0.080955885,-0.069130339,9.815237999
1784242072.091208,-0.006188036,-0.004281892,-0.017329194,-0.001414638,-0.001281120,0.000912807,0.008141266,-0.040105212,9.834184647
1784242072.093202,-0.006188036,-0.004281892,-0.017329194,-0.001201023,-0.001155570,0.000317216,0.014071746,-0.034953486,9.792079926
1784242072.095205,-0.006188036,-0.004281892,-0.017329194,-0.000501428,-0.000785860,0.000517561,0.059672907,-0.049417172,9.790685654
1784242072.097207,-0.006187701,-0.004281879,-0.017329194,-0.000082374,-0.000428546,0.001151256,0.072158664,-0.056272127,9.787066460
1784242072.099210,-0.006187701,-0.004281879,-0.017329194,0.000043454,-0.000127878,0.001215696,0.060118157,-0.049044911,9.800553322
1784242072.101217,-0.006187260,-0.004282652,-0.017329197,-0.000029478,-0.000174401,0.000827656,0.051626652,-0.080584876,9.840691566
1784242072.103216,-0.006187260,-0.004282652,-0.017329197,-0.000045927,-0.000242363,0.000165753,0.052824169,-0.096769683,9.783203125
1784242072.105226,-0.006187260,-0.004282652,-0.017329197,-0.000019518,-0.000164079,-0.000676700,0.077241391,-0.081417404,9.785566330
1784242072.107222,-0.006188261,-0.004283328,-0.017329203,0.000249598,-0.000240498,-0.000514537,0.078628242,-0.041496765,9.776857376
1784242072.109219,-0.006188261,-0.004283328,-0.017329203,0.000806406,-0.000197154,0.000435106,0.036565498,-0.029509669,9.805139542
1784242072.111217,-0.006187053,-0.004282567,-0.017329196,0.000797120,-0.000053774,0.001235185,0.010940560,-0.032810166,9.811369896
1784242072.113216,-0.006187053,-0.004282567,-0.017329196,0.000413356,0.000184057,0.001276624,0.058892541,-0.075129628,9.816524506
1784242072.115222,-0.006187053,-0.004282567,-0.017329196,0.000262059,0.000342803,0.000512655,0.069102205,-0.085860305,9.794945717
1784242072.117226,-0.006187660,-0.004282981,-0.017329199,-0.000196280,0.000047887,0.000007427,0.076841772,-0.077376828,9.785143852
1784242072.119232,-0.006187660,-0.004282981,-0.017329199,-0.001022153,-0.000468966,-0.000146469,0.043389864,-0.060771335,9.778493881
1784242072.121224,-0.006187357,-0.004282643,-0.017329196,-0.000737037,-0.000817833,-0.000455588,0.023482589,-0.034762993,9.811369896
1784242072.123224,-0.006187357,-0.004282643,-0.017329196,0.000378488,-0.000721895,-0.000659333,0.058753464,-0.051200692,9.791122437
1784242072.125225,-0.006187357,-0.004282643,-0.017329196,0.000429572,-0.000807003,-0.000611263,0.047457591,-0.057754118,9.787931442
1784242072.127232,-0.006187522,-0.004282437,-0.017329196,-0.000296574,-0.001221089,-0.000525263,0.066956297,-0.040581733,9.795233727
1784242072.129233,-0.006187522,-0.004282437,-0.017329196,-0.000569292,-0.001202409,-0.000316007,0.063881129,-0.073559634,9.775740623
1784242072.131238,-0.006188308,-0.004283008,-0.017329201,-0.000738360,-0.000179616,-0.000410622,0.032104596,-0.063188553,9.823748589
1784242072.133234,-0.006188308,-0.004283008,-0.017329201,-0.000677219,0.000747468,-0.001128106,0.042932589,-0.096802175,9.805608749
1784242072.135257,-0.006188308,-0.004283008,-0.017329201,-0.000451092,-0.000128379,-0.001442518,0.057902377,-0.047986694,9.781726837
1784242072.137301,-0.006187756,-0.004283161,-0.017329201,-0.000475431,-0.001380565,-0.000989317,0.062901981,-0.042277317,9.788942337
1784242072.139257,-0.006187756,-0.004283161,-0.017329201,-0.000230800,-0.001554420,-0.001178137,0.049004864,-0.041593894,9.780862808
1784242072.141269,-0.006187577,-0.004283373,-0.017329201,0.000206156,-0.001249447,-0.001710014,0.035594728,-0.034940474,9.814516068
1784242072.143248,-0.006187577,-0.004283373,-0.017329201,0.000541945,-0.001029015,-0.001844738,0.044263620,-0.062590569,9.780724525
1784242072.145250,-0.006187577,-0.004283373,-0.017329201,0.000732739,-0.000884302,-0.002195782,0.059387900,-0.073956467,9.776630402
1784242072.147265,-0.006187950,-0.004283682,-0.017329205,0.000748076,-0.000490113,-0.002359842,0.046003360,-0.067506164,9.775762558
1784242072.149249,-0.006187950,-0.004283682,-0.017329205,0.000866360,-0.000295097,-0.002317235,0.048692584,-0.067969546,9.773071289
1784242072.151251,-0.006188434,-0.004284526,-0.017329209,0.001362871,-0.000573983,-0.001872698,0.072644643,-0.053551950,9.781704903
1784242072.153250,-0.006188434,-0.004284526,-0.017329209,0.001761076,-0.000636647,-0.001042566,0.093660183,-0.022891209,9.779682159
1784242072.155258,-0.006188434,-0.004284526,-0.017329209,0.001276702,-0.000526412,-0.001015844,0.038433496,-0.059250113,9.825572968
1784242072.157252,-0.006187979,-0.004284872,-0.017329212,-0.000308498,-0.000755365,-0.001234731,0.035297584,-0.058765087,9.826022148
1784242072.159268,-0.006187979,-0.004284872,-0.017329212,-0.001859573,-0.000739108,-0.001195229,0.016353980,-0.067403354,9.814740181
1784242072.161259,-0.006188601,-0.004283555,-0.017329207,-0.001915989,-0.000126314,-0.001251656,0.039707262,-0.102696724,9.821259499
1784242072.163257,-0.006188601,-0.004283555,-0.017329207,-0.001129189,0.000074085,-0.000787368,0.048853923,-0.090506896,9.791757584
1784242072.165261,-0.006188601,-0.004283555,-0.017329207,-0.000598652,-0.000268544,0.000053522,0.078862250,-0.094971448,9.798481941
1784242072.167259,-0.006190512,-0.004284798,-0.017329216,-0.000339193,-0.000587999,0.000539148,0.043667611,-0.073879242,9.794101715
1784242072.169265,-0.006190512,-0.004284798,-0.017329216,-0.000364400,-0.000671427,0.000406013,0.031539943,-0.073419139,9.814269066
1784242072.171266,-0.006190554,-0.004284567,-0.017329216,-0.000701324,-0.000133687,0.000131337,0.054503914,-0.067405917,9.809395790
1784242072.173264,-0.006190554,-0.004284567,-0.017329216,-0.001090192,0.000437707,0.000238892,0.048521195,-0.005084882,9.814272881
1784242072.175266,-0.006190554,-0.004284567,-0.017329216,-0.001145444,0.000221089,0.000386288,0.007912776,-0.022555845,9.823986053
1784242072.177262,-0.006188576,-0.004282848,-0.017329203,-0.000612612,-0.000481874,0.000329071,0.039414335,-0.053739816,9.804986000
1784242072.179290,-0.006188576,-0.004282848,-0.017329203,0.000119641,-0.000908685,0.000450878,0.045763593,-0.084798954,9.813758850
1784242072.181275,-0.006189999,-0.004282743,-0.017329203,0.000384075,-0.000948605,0.000847576,0.051152907,-0.085639864,9.796275139
1784242072.183270,-0.006189999,-0.004282743,-0.017329203,0.000140470,-0.001188973,0.001134696,0.064053819,-0.093981184,9.811924934
1784242072.185278,-0.006189999,-0.004282743,-0.017329203,-0.000071765,-0.001325160,0.000928830,0.036752045,-0.049416482,9.831911087
1784242072.187291,-0.006189872,-0.004283345,-0.017329207,0.000017822,-0.000721051,0.000133300,0.029639035,-0.045559566,9.806373596
1784242072.189285,-0.006189872,-0.004283345,-0.017329207,0.000030688,-0.000118185,-0.000481515,0.033119388,-0.053357627,9.825606346
1784242072.191309,-0.006190008,-0.004283195,-0.017329207,0.000142319,-0.000203521,-0.000697488,0.024835875,-0.071502902,9.808893204
1784242072.193281,-0.006190008,-0.004283195,-0.017329207,0.000577793,-0.000761019,0.000045572,0.040567096,-0.069467492,9.809369087
1784242072.195315,-0.006190008,-0.004283195,-0.017329207,0.000695961,-0.001077996,0.001074462,0.032517742,-0.064690806,9.845258713
1784242072.197287,-0.006189375,-0.004282633,-0.017329203,0.000262838,-0.000922783,0.001410133,0.040011935,-0.080028400,9.783297539
1784242072.199289,-0.006189375,-0.004282633,-0.017329203,-0.000159626,-0.000682121,0.001582999,0.051317014,-0.072591752,9.788288116
1784242072.201291,-0.006189619,-0.004282844,-0.017329205,-0.000606799,-0.000089436,0.001404153,0.048791055,-0.020686597,9.802516937
1784242072.203293,-0.006189619,-0.004282844,-0.017329205,-0.000893107,0.000595332,0.001040665,0.033248104,-0.044236243,9.802799225
1784242072.205297,-0.006189619,-0.004282844,-0.017329205,-0.000580131,0.000854011,0.000865617,0.022213468,-0.029274818,9.797952652
1784242072.207294,-0.006188313,-0.004282070,-0.017329197,0.000022208,0.000499772,0.000519046,0.077567846,-0.018150566,9.772073746
1784242072.209305,-0.006188313,-0.004282070,-0.017329197,0.000405232,0.000045873,0.000012667,0.051472504,-0.022427086,9.790403366
1784242072.211299,-0.006187296,-0.004282416,-0.017329197,0.000306434,-0.000013493,0.000095983,0.040872004,-0.047202613,9.765127182
1784242072.213300,-0.006187296,-0.004282416,-0.017329197,-0.000304626,0.000202500,-0.000077409,0.031729005,-0.097763851,9.771967888
1784242072.215305,-0.006187296,-0.004282416,-0.017329197,-0.000855239,0.000526188,-0.000726466,0.051461607,-0.097692870,9.789471626
1784242072.217299,-0.006188820,-0.004283144,-0.017329203,-0.000752045,0.000751683,-0.000404274,0.047242496,-0.076473102,9.774360657
1784242072.219299,-0.006188820,-0.004283144,-0.017329203,-0.000537373,0.000638817,0.000749759,0.013466937,-0.047122180,9.803209305
1784242072.221303,-0.006188576,-0.004281920,-0.017329196,-0.000562687,0.000381219,0.001155951,-0.007304792,-0.057621505,9.804915428
1784242072.223313,-0.006188576,-0.004281920,-0.017329196,-0.000051018,0.000552700,0.000660422,0.029831056,-0.028238529,9.827555656
1784242072.225308,-0.006188576,-0.004281920,-0.017329196,0.000503819,0.000853991,0.000571482,0.051253218,-0.038747646,9.817646980
1784242072.227307,-0.006187796,-0.004282171,-0.017329196,0.000125700,0.000824390,0.001406651,0.057301823,-0.060527038,9.782094002
1784242072.229308,-0.006187796,-0.004282171,-0.017329196,-0.000243596,0.000532522,0.002230029,0.063242555,-0.086805493,9.812418938
1784242072.231316,-0.006189305,-0.004283344,-0.017329203,-0.000146595,0.000589814,0.002200123,0.062418740,-0.081755124,9.796758652
1784242072.233312,-0.006189305,-0.004283344,-0.017329203,-0.000001036,0.000829840,0.001999043,0.023660788,-0.056356724,9.823335648
1784242072.235314,-0.006189305,-0.004283344,-0.017329203,0.000137933,0.000733580,0.001977463,0.046903241,-0.065471821,9.803123474
1784242072.237317,-0.006189034,-0.004283117,-0.017329203,0.000181142,0.000321874,0.001995850,0.063504934,-0.067307860,9.779366493
1784242072.239323,-0.006189034,-0.004283117,-0.017329203,-0.000439427,-0.000096570,0.001935341,0.033485223,-0.061312214,9.809414864
1784242072.241323,-0.006189264,-0.004282871,-0.017329201,-0.001217535,-0.000644452,0.001004850,0.043333355,-0.065270022,9.781152725
1784242072.243319,-0.006189264,-0.004282871,-0.017329201,-0.000629640,-0.001307022,0.000164898,0.011864248,-0.068988256,9.793653488
1784242072.245322,-0.006189264,-0.004282871,-0.017329201,0.000252066,-0.001493359,0.000331601,0.060566112,-0.049867086,9.789339066
1784242072.247326,-0.006189032,-0.004284116,-0.017329209,-0.000004278,-0.001238333,-0.000051659,0.053659905,-0.064541310,9.786100388
1784242072.249330,-0.006189032,-0.004284116,-0.017329209,0.000033018,-0.000564337,-0.001085960,0.041450869,-0.070397176,9.812503815
1784242072.251331,-0.006189332,-0.004283911,-0.017329209,0.000476659,0.000098843,-0.001296262,0.035450984,-0.048233043,9.793809891
1784242072.253326,-0.006189332,-0.004283911,-0.017329209,0.000560412,0.000415799,-0.000349610,0.047287967,-0.069630049,9.820136070
1784242072.255330,-0.006189332,-0.004283911,-0.017329209,0.000712406,0.000699715,0.000340455,0.048107635,-0.075928897,9.822336197
1784242072.257337,-0.006189635,-0.004284414,-0.017329212,0.000717153,0.000931553,-0.000113614,0.043110166,-0.080405682,9.830821991
1784242072.259341,-0.006189635,-0.004284414,-0.017329212,0.000305024,0.001158038,-0.000300324,0.042655773,-0.044881247,9.813563347
1784242072.261335,-0.006188694,-0.004284607,-0.017329212,-0.000537634,0.001433774,0.000068866,0.066662893,-0.028407896,9.784998894
1784242072.263344,-0.006188694,-0.004284607,-0.017329212,-0.001188609,0.001422597,-0.000241082,0.067775458,-0.045263622,9.822104454
1784242072.265342,-0.006188694,-0.004284607,-0.017329212,-0.001088740,0.001029396,-0.000323694,0.006492946,-0.066384122,9.815183640
1784242072.267342,-0.006189018,-0.004283044,-0.017329201,-0.000239945,0.000748601,0.000267254,0.027458014,-0.040174369,9.809095383
1784242072.269340,-0.006189018,-0.004283044,-0.017329201,0.000562806,0.000813815,0.000410720,0.034277279,-0.032670703,9.812737465
1784242072.271345,-0.006188281,-0.004282795,-0.017329201,0.000842486,0.001027823,0.000317106,0.015169510,-0.053546999,9.821552277
1784242072.273343,-0.006188281,-0.004282795,-0.017329201,0.000793987,0.001223661,0.000050162,0.030881565,-0.054094438,9.807215691
1784242072.275351,-0.006188281,-0.004282795,-0.017329201,0.000539973,0.001119243,-0.000561220,0.045060791,-0.069877557,9.795920372
1784242072.277348,-0.006188362,-0.004282322,-0.017329197,0.000514132,0.000717473,-0.001008168,0.061500568,-0.084339187,9.783740044
1784242072.279353,-0.006188362,-0.004282322,-0.017329197,0.000674495,0.000348756,-0.000990918,0.063705817,-0.049916878,9.790687561
1784242072.281354,-0.006187761,-0.004282778,-0.017329203,0.000447787,0.000171303,-0.000563199,0.056694761,-0.075145014,9.759583473
1784242072.283354,-0.006187761,-0.004282778,-0.017329203,-0.000420576,0.000211938,-0.000305936,0.036190320,-0.061244957,9.795071602
1784242072.285355,-0.006187761,-0.004282778,-0.017329203,-0.000995681,0.000494238,-0.000333645,0.009881171,-0.047451023,9.792893410
1784242072.287358,-0.006186994,-0.004281046,-0.017329192,-0.001106423,0.000768786,-0.000389060,0.044045258,-0.042934950,9.789367676
1784242072.289358,-0.006186994,-0.004281046,-0.017329192,-0.001005392,0.000934154,-0.000970889,0.071459092,-0.038488448,9.807805061
1784242072.291363,-0.006186597,-0.004282757,-0.017329201,-0.000391124,0.000921913,-0.001250211,0.070648268,-0.069709614,9.789221764
1784242072.293357,-0.006186597,-0.004282757,-0.017329201,0.000304577,0.000547789,-0.001040142,0.065828092,-0.059413217,9.799145699
1784242072.295361,-0.006186597,-0.004282757,-0.017329201,0.001028536,0.000255898,-0.001049339,0.067132816,-0.098968074,9.814586639
1784242072.297372,-0.006188022,-0.004284159,-0.017329210,0.001409562,-0.000064598,-0.000822198,0.030920506,-0.089755841,9.781434059
1784242072.299370,-0.006188022,-0.004284159,-0.017329210,0.001083327,-0.000939979,-0.000589057,0.029745832,-0.037016515,9.801946640
1784242072.301369,-0.006186676,-0.004283494,-0.017329207,0.000722406,-0.001287925,-0.000490005,0.059289970,-0.044839602,9.777713776
1784242072.303368,-0.006186676,-0.004283494,-0.017329207,0.000940200,-0.000609297,-0.000628512,0.060960267,-0.053545557,9.801869392
1784242072.305376,-0.006186676,-0.004283494,-0.017329207,0.001194046,0.000263803,-0.001015980,0.062554888,-0.034579922,9.778230667
1784242072.307379,-0.006185741,-0.004284999,-0.017329214,0.000891303,0.001011330,-0.001009571,0.051396776,-0.028698543,9.790363312
1784242072.309380,-0.006185741,-0.004284999,-0.017329214,0.000629141,0.001052366,-0.001007774,0.029975653,-0.053339638,9.828740120
1784242072.311377,-0.006184586,-0.004283644,-0.017329203,0.000900965,0.000446193,-0.000828755,0.045092426,-0.104786113,9.790316582
1784242072.313375,-0.006184586,-0.004283644,-0.017329203,0.001365016,-0.000291456,0.000148867,0.022580033,-0.111592911,9.779941559
1784242072.315381,-0.006184586,-0.004283644,-0.017329203,0.001091931,-0.000638148,0.000193228,0.022935759,-0.081226930,9.793583870
1784242072.317383,-0.006186215,-0.004283152,-0.017329201,0.000735090,-0.000631705,-0.000639750,0.024803020,-0.074193850,9.809325218
1784242072.319386,-0.006186215,-0.004283152,-0.017329201,0.000817837,-0.000580251,-0.000668102,0.037524298,-0.060547516,9.820631981
1784242072.321384,-0.006185788,-0.004282777,-0.017329197,0.000680523,-0.000379862,-0.000489593,0.025543513,-0.051633015,9.785708427
1784242072.323388,-0.006185788,-0.004282777,-0.017329197,-0.000178384,-0.000277039,-0.000794241,0.051985174,-0.090623453,9.802518845
1784242072.325386,-0.006185788,-0.004282777,-0.017329197,-0.001545710,-0.000177576,-0.000782542,0.069466390,-0.055427559,9.799175262
1784242072.327397,-0.006185727,-0.004283912,-0.017329205,-0.001944918,-0.000005885,-0.000393430,0.069107912,-0.083789021,9.818718910
1784242072.329393,-0.006185727,-0.004283912,-0.017329205,-0.001346383,0.000433477,-0.000088750,0.049135715,-0.065993041,9.809399605
1784242072.331396,-0.006185710,-0.004284771,-0.017329210,-0.001074265,0.000734769,0.000548033,0.064326331,-0.072377302,9.797717094
1784242072.333396,-0.006185710,-0.004284771,-0.017329210,-0.001331954,0.000564075,0.000864610,0.041164603,-0.056545965,9.818419456
1784242072.335396,-0.006185710,-0.004284771,-0.017329210,-0.001624620,0.000642392,0.000518537,0.034618948,-0.043652907,9.781284332
1784242072.337401,-0.006184911,-0.004284406,-0.017329205,-0.001203315,0.000872042,0.000358656,0.038056772,-0.054218218,9.811707497
1784242072.339400,-0.006184911,-0.004284406,-0.017329205,-0.000754580,0.000785600,0.000277099,0.041635457,-0.056376833,9.793763161
1784242072.341457,-0.006185346,-0.004284970,-0.017329209,-0.001495248,0.000574360,-0.000145873,0.068544514,-0.094820127,9.795783043
1784242072.343426,-0.006185346,-0.004284970,-0.017329209,-0.002323262,0.000495691,-0.000472094,0.074589357,-0.039017990,9.813632965
1784242072.345415,-0.006185346,-0.004284970,-0.017329209,-0.002438930,0.000501579,-0.000130959,0.067595452,-0.026926072,9.763937950
1784242072.347415,-0.006183860,-0.004286498,-0.017329216,-0.002268850,0.000733795,0.000660784,0.042371061,-0.033044096,9.787637711
1784242072.349409,-0.006183860,-0.004286498,-0.017329216,-0.001782297,0.000849260,0.000551868,0.008068685,-0.085967965,9.793989182
1784242072.351417,-0.006185524,-0.004284926,-0.017329209,-0.000905493,0.000572740,-0.000340987,0.019055845,-0.070198379,9.761820793
1784242072.353411,-0.006185524,-0.004284926,-0.017329209,-0.000198530,0.000097586,-0.000505440,0.024248797,-0.045941722,9.806815147
1784242072.355416,-0.006185524,-0.004284926,-0.017329209,-0.000151783,0.000058603,0.000007538,0.044782765,-0.055556130,9.798702240
1784242072.357423,-0.006186004,-0.004284343,-0.017329203,0.000052502,0.000695115,0.000258849,0.060106017,-0.051167063,9.783949852
1784242072.359443,-0.006186004,-0.004284343,-0.017329203,0.000675955,0.001532890,0.000246196,0.080062218,-0.033120397,9.793500900
1784242072.361423,-0.006183926,-0.004286157,-0.017329210,0.001091919,0.001945841,0.000199714,0.030867754,-0.055419236,9.804518700
1784242072.363452,-0.006183926,-0.004286157,-0.017329210,0.000992347,0.001818589,0.000235035,0.038669862,-0.077142507,9.820975304
1784242072.365501,-0.006183926,-0.004286157,-0.017329210,0.000735114,0.001507904,0.000909123,0.060464080,-0.095151886,9.793980598
1784242072.367490,-0.006186240,-0.004287483,-0.017329222,0.000386176,0.001426311,0.001563205,0.067731194,-0.086850263,9.810627937
1784242072.369449,-0.006186240,-0.004287483,-0.017329222,-0.000150270,0.001912880,0.001554892,0.023918903,-0.074077420,9.794528961
1784242072.371443,-0.006185848,-0.004285678,-0.017329209,-0.000325387,0.001999233,0.000861716,0.051107164,-0.053679436,9.775406837
1784242072.373448,-0.006185848,-0.004285678,-0.017329209,-0.000229166,0.000928435,-0.000082460,0.046674579,-0.048329089,9.787093163
1784242072.375447,-0.006185848,-0.004285678,-0.017329209,0.000182289,0.000086706,-0.000120218,0.055486076,-0.060669377,9.805404663
1784242072.377454,-0.006185348,-0.004286903,-0.017329218,0.000959170,0.000344022,0.000886837,0.051826943,-0.066440523,9.804467201
1784242072.379449,-0.006185348,-0.004286903,-0.017329218,0.001183235,0.000731824,0.001837660,0.061810371,-0.057172544,9.806330681
1784242072.381443,-0.006184993,-0.004287771,-0.017329222,0.000535240,0.001029056,0.001554321,0.036119375,-0.066668175,9.801760674
1784242072.383449,-0.006184993,-0.004287771,-0.017329222,0.000082955,0.001249691,0.000643944,-0.002753897,-0.051906373,9.812130928
1784242072.385458,-0.006184993,-0.004287771,-0.017329222,-0.000014815,0.001171941,0.000304717,0.025468430,-0.055467892,9.821102142
1784242072.387451,-0.006185033,-0.004286353,-0.017329214,-0.000192804,0.001278334,0.000076384,0.042212602,-0.043210845,9.831508636
1784242072.389450,-0.006185033,-0.004286353,-0.017329214,0.000020650,0.001316143,-0.000089630,0.034181584,-0.041531362,9.798782349
1784242072.391463,-0.006184551,-0.004286079,-0.017329212,0.000566354,0.000760184,0.000328353,0.036997955,-0.071286105,9.756451607
1784242072.393452,-0.006184551,-0.004286079,-0.017329212,0.000727022,0.000160511,0.000505026,0.055085406,-0.093821682,9.805641174
1784242072.395456,-0.006184551,-0.004286079,-0.017329212,0.000595181,0.000069652,0.000418641,0.080203198,-0.058250133,9.798719406
1784242072.397464,-0.006185126,-0.004287981,-0.017329223,0.001133211,0.000174956,0.000628451,0.051655136,-0.043985847,9.797439575
1784242072.399476,-0.006185126,-0.004287981,-0.017329223,0.002320262,0.000137093,0.000456987,0.020888196,-0.027472084,9.798860550
1784242072.401466,-0.006183497,-0.004286517,-0.017329214,0.002967547,0.000005521,0.000060376,0.018514048,-0.075790733,9.793169022
1784242072.403472,-0.006183497,-0.004286517,-0.017329214,0.002806396,-0.000013280,0.000059702,0.037010510,-0.066323929,9.814765930
1784242072.405469,-0.006183497,-0.004286517,-0.017329214,0.002508575,-0.000006589,-0.000013170,0.035772465,-0.058564156,9.796880722
1784242072.407467,-0.006183065,-0.004286669,-0.017329214,0.002093219,0.000071647,0.000060200,0.039165519,-0.074346021,9.804853439
1784242072.409472,-0.006183065,-0.004286669,-0.017329214,0.001320983,0.000257264,0.000510760,0.055774875,-0.073284820,9.814740181
1784242072.411474,-0.006183286,-0.004287235,-0.017329218,0.000813156,0.000340663,0.000387490,0.052728504,-0.027613563,9.824443817
1784242072.413465,-0.006183286,-0.004287235,-0.017329218,0.000682165,0.000601371,-0.000440940,0.037115991,-0.021417147,9.800258636
1784242072.415470,-0.006183286,-0.004287235,-0.017329218,0.000549106,0.000752935,-0.000593422,0.019836051,-0.042055707,9.772313118
1784242072.417475,-0.006182440,-0.004285881,-0.017329210,0.000359628,0.000841366,0.000107559,0.046860445,-0.032272432,9.797060966
1784242072.419471,-0.006182440,-0.004285881,-0.017329210,0.000516608,0.001319798,0.000097489,0.064427547,-0.064688824,9.787454605
1784242072.421476,-0.006182352,-0.004287367,-0.017329218,0.001104695,0.001795082,-0.000865134,0.037928224,-0.065769821,9.798182487
1784242072.423494,-0.006182352,-0.004287367,-0.017329218,0.001200922,0.001567600,-0.001353497,0.026697716,-0.067754611,9.782466888
1784242072.425486,-0.006182352,-0.004287367,-0.017329218,0.000631984,0.000955251,-0.001135110,0.038675092,-0.079938009,9.772985458
1784242072.427481,-0.006183113,-0.004287490,-0.017329220,0.000132083,0.000890279,-0.001335066,0.057368968,-0.090292171,9.809252739
1784242072.429481,-0.006183113,-0.004287490,-0.017329220,-0.000336623,0.001204169,-0.001496938,0.061312590,-0.061201621,9.806751251
1784242072.431485,-0.006183012,-0.004288128,-0.017329223,-0.000806859,0.001306016,-0.001254734,0.031839274,-0.049172003,9.806352615
1784242072.433489,-0.006183012,-0.004288128,-0.017329223,-0.000717854,0.001089561,-0.001404158,0.038112473,-0.049725890,9.809942245
1784242072.435493,-0.006183012,-0.004288128,-0.017329223,-0.000526308,0.000948398,-0.001494666,0.039794378,-0.060366411,9.791045189
1784242072.437496,-0.006182155,-0.004288863,-0.017329225,-0.000527834,0.001363747,-0.000691451,0.036708251,-0.054220054,9.814393997
1784242072.439501,-0.006182155,-0.004288863,-0.017329225,-0.000293179,0.001770671,0.000075157,0.044914644,-0.080352373,9.820063591
1784242072.441497,-0.006183712,-0.004289039,-0.017329229,-0.000089238,0.001708652,0.000324798,0.042743687,-0.074887678,9.811577797
1784242072.443495,-0.006183712,-0.004289039,-0.017329229,-0.000053174,0.001304369,0.000558634,0.068735912,-0.077098824,9.823694229
1784242072.445494,-0.006183712,-0.004289039,-0.017329229,-0.000082179,0.000867784,0.000511481,0.057049103,-0.079948336,9.804386139
1784242072.447499,-0.006184466,-0.004289132,-0.017329231,-0.000159410,0.000370571,0.000439939,0.049516056,-0.070996314,9.819231033
1784242072.449503,-0.006184466,-0.004289132,-0.017329231,-0.000234963,-0.000134544,0.000242580,0.054133408,-0.061919704,9.794636726
1784242072.451502,-0.006184408,-0.004289706,-0.017329233,-0.000362319,-0.000536738,-0.000063966,0.061250616,-0.065338202,9.821519852
1784242072.453502,-0.006184408,-0.004289706,-0.017329233,-0.000636842,-0.000935214,-0.000378417,0.074876599,-0.052456215,9.812649727
1784242072.455508,-0.006184408,-0.004289706,-0.017329233,-0.000834944,-0.001098198,-0.000823400,0.048960853,-0.043157168,9.811786652
1784242072.457524,-0.006183676,-0.004290361,-0.017329236,-0.000434261,-0.000848586,-0.000530887,0.005852351,-0.044892747,9.818462372
1784242072.459511,-0.006183676,-0.004290361,-0.017329236,0.000545207,-0.000532713,0.000099238,0.017804751,-0.060110141,9.794612885
1784242072.461504,-0.006183489,-0.004288827,-0.017329225,0.000950786,-0.000405838,0.000322538,0.019522974,-0.065600872,9.807580948
1784242072.463578,-0.006183489,-0.004288827,-0.017329225,0.000400308,0.000037917,0.000449720,0.043007731,-0.090940535,9.800267220
1784242072.465524,-0.006183489,-0.004288827,-0.017329225,-0.000035394,0.000470333,0.000416561,0.031434126,-0.046796083,9.787985802
1784242072.467515,-0.006183094,-0.004286865,-0.017329212,0.000021908,0.000296100,0.000263912,0.070539415,-0.039868522,9.814519882
1784242072.469512,-0.006183094,-0.004286865,-0.017329212,0.000205363,-0.000102343,0.000151421,0.060874589,-0.023926683,9.795334816
1784242072.471514,-0.006180229,-0.004288021,-0.017329216,0.000099190,-0.000839777,0.000030497,0.050453983,-0.030666487,9.816801071
1784242072.473520,-0.006180229,-0.004288021,-0.017329216,-0.000361762,-0.001732949,-0.000042136,0.032490697,-0.032177489,9.809600830
1784242072.475517,-0.006180229,-0.004288021,-0.017329216,-0.000453084,-0.001592073,-0.000451286,0.034709688,-0.070800230,9.818322182
1784242072.477518,-0.006179922,-0.004286828,-0.017329209,-0.000095555,-0.000737941,-0.000762539,0.056029484,-0.089817435,9.807909012
1784242072.479525,-0.006179922,-0.004286828,-0.017329209,0.000234785,-0.000087664,0.000184352,0.052444801,-0.091353416,9.778306007
1784242072.481530,-0.006181397,-0.004287834,-0.017329216,0.000816059,0.000182509,0.001180439,0.042852100,-0.066331893,9.805356979
1784242072.483521,-0.006181397,-0.004287834,-0.017329216,0.001365552,0.000096622,0.000821596,0.055889945,-0.065081604,9.795064926
1784242072.485524,-0.006181397,-0.004287834,-0.017329216,0.000842529,-0.000081763,0.000521966,0.034936745,-0.053202562,9.800501823
1784242072.487526,-0.006180904,-0.004287720,-0.017329216,0.000170592,-0.000177781,0.001151850,0.063104011,-0.024066715,9.811026573
1784242072.489524,-0.006180904,-0.004287720,-0.017329216,0.000820199,-0.000277236,0.001485998,0.066310279,-0.057128288,9.791989326
1784242072.491539,-0.006180603,-0.004288456,-0.017329220,0.001420444,-0.000402399,0.001296085,0.023818094,-0.081762709,9.804343224
1784242072.493529,-0.006180603,-0.004288456,-0.017329220,0.001045120,-0.000359819,0.001319656,0.059284214,-0.046100814,9.766049385
1784242072.495560,-0.006180603,-0.004288456,-0.017329220,0.000828429,-0.000060531,0.001518930,0.050898060,-0.071540646,9.767222404
