time_sec,roll_rad,pitch_rad,yaw_rad,gyro_x,gyro_y,gyro_z,acc_x,acc_y,acc_z
1784240284.593945,-0.004775758,0.004314155,0.054244742,0.000157393,0.000869579,-0.000203939,-0.035230201,-0.029831929,9.790720940
1784240284.595908,-0.004774609,0.004312037,0.054245215,0.000021581,0.000639517,-0.000586942,-0.061158206,-0.021034904,9.797478676
1784240284.597905,-0.004775816,0.004313926,0.054244403,0.000011846,0.000450412,-0.000450742,-0.057830811,-0.043008741,9.794200897
1784240284.599906,-0.004775799,0.004321236,0.054244403,-0.000024884,0.000907166,-0.000384360,-0.060414035,-0.034008652,9.793358803
1784240284.601881,-0.004777237,0.004326575,0.054242805,-0.000067057,0.001474395,-0.000388875,-0.055135313,-0.043827865,9.778508186
1784240284.603856,-0.004783114,0.004329944,0.054232702,-0.000569116,0.001626915,-0.001080334,-0.010652687,-0.039456747,9.776784897
1784240284.605844,-0.004783343,0.004324934,0.054226249,-0.000851285,0.001037147,-0.001912759,-0.012912183,-0.003585367,9.777012825
1784240284.607848,-0.004786701,0.004324188,0.054229949,-0.000862762,0.000365669,-0.001581518,-0.017988378,-0.052352451,9.776246071
1784240284.609846,-0.004793790,0.004324483,0.054233655,-0.001356430,0.000291513,-0.000652701,-0.032690715,-0.079198770,9.797579765
1784240284.611835,-0.004793391,0.004328217,0.054226983,-0.001457945,0.000545011,-0.000677966,-0.045221064,-0.077153735,9.784579277
1784240284.613871,-0.004792164,0.004335246,0.054219000,-0.000875037,0.001105452,-0.001487513,-0.047245506,-0.057564147,9.805774689
1784240284.615856,-0.004789056,0.004341858,0.054219253,-0.000268587,0.001706881,-0.001606548,-0.046360761,-0.058080833,9.813841820
1784240284.617846,-0.004786808,0.004342645,0.054220811,0.000167354,0.001745111,-0.001045635,-0.046738461,-0.053461928,9.795041084
1784240284.619837,-0.004792547,0.004342810,0.054216005,-0.000133618,0.001349753,-0.000983341,-0.052517612,-0.047287442,9.819286346
1784240284.621830,-0.004797244,0.004342350,0.054214649,-0.000823433,0.000978035,-0.001137745,-0.042916030,-0.034649041,9.788888931
1784240284.623865,-0.004804130,0.004341525,0.054213028,-0.001418043,0.000598911,-0.001034355,-0.052500539,-0.049584106,9.764126778
1784240284.625833,-0.004808054,0.004339471,0.054207142,-0.001797403,0.000216030,-0.001266425,-0.053790703,-0.042641141,9.798243523
1784240284.627850,-0.004810897,0.004338196,0.054204442,-0.001766241,-0.000065768,-0.001507221,-0.034843586,-0.035190959,9.787549019
1784240284.629843,-0.004813138,0.004338181,0.054209199,-0.001671594,-0.000150263,-0.000959779,-0.057330079,-0.037740700,9.808582306
1784240284.631829,-0.004814406,0.004333166,0.054214992,-0.001498288,-0.000468473,0.000015421,-0.051493287,-0.041433733,9.750281334
1784240284.633866,-0.004815774,0.004330327,0.054217339,-0.001282808,-0.000844245,0.000562717,-0.014776691,-0.047376093,9.763727188
1784240284.635851,-0.004814068,0.004331661,0.054210655,-0.000920241,-0.000683025,0.000115732,-0.019785255,-0.051535282,9.790596962
1784240284.637838,-0.004814706,0.004336723,0.054210912,-0.000596071,-0.000061363,-0.000351402,-0.025011279,-0.040489469,9.758831024
1784240284.639829,-0.004815975,0.004341965,0.054211177,-0.000574879,0.000678939,-0.000221097,-0.017878065,-0.042160634,9.792004585
1784240284.641829,-0.004821976,0.004344172,0.054208770,-0.000922737,0.001025273,-0.000308342,-0.007169851,-0.045208961,9.823377609
1784240284.643830,-0.004827047,0.004346243,0.054204777,-0.001412239,0.001119898,-0.000661982,-0.028954249,-0.067143448,9.796764374
1784240284.645833,-0.004823496,0.004344898,0.054203127,-0.001120645,0.000947520,-0.000865764,-0.034345862,-0.030351799,9.799237251
1784240284.647833,-0.004819132,0.004343268,0.054210253,-0.000280778,0.000486545,-0.000256912,-0.063315876,-0.050218415,9.809843063
1784240284.649842,-0.004817430,0.004340290,0.054218698,0.000218981,-0.000032259,0.000871401,-0.047128808,-0.046511386,9.826468468
1784240284.651843,-0.004816759,0.004342415,0.054223198,0.000333103,-0.000154412,0.001513875,-0.052820444,-0.035593361,9.813531876
1784240284.653847,-0.004816483,0.004341808,0.054225817,0.000274705,-0.000041447,0.001585671,-0.057795238,-0.038675390,9.814851761
1784240284.655842,-0.004821710,0.004341618,0.054224193,-0.000166338,-0.000114303,0.001221285,-0.049984947,-0.024365241,9.804638863
1784240284.657856,-0.004825636,0.004338497,0.054223876,-0.000741826,-0.000307413,0.000756079,-0.049719471,-0.040812004,9.785704613
1784240284.659965,-0.004828156,0.004330918,0.054221690,-0.001003720,-0.000953545,0.000378511,-0.067125522,-0.032556280,9.790225029
1784240284.661912,-0.004832620,0.004327272,0.054220308,-0.001230882,-0.001459408,0.000030997,-0.046349414,-0.021211907,9.795697212
1784240284.663918,-0.004830815,0.004332461,0.054218166,-0.001115820,-0.000966988,-0.000216922,-0.039317261,-0.033001762,9.802801132
1784240284.665916,-0.004833392,0.004331450,0.054214410,-0.000903103,-0.000428666,-0.000558789,-0.058536194,-0.063266158,9.808865547
1784240284.667951,-0.004837850,0.004328868,0.054211181,-0.001133287,-0.000553885,-0.000883537,-0.089321382,-0.048112184,9.812520027
1784240284.669900,-0.004844700,0.004331185,0.054213300,-0.001553479,-0.000500825,-0.000722570,-0.069493495,-0.042020574,9.802267075
1784240284.671888,-0.004848816,0.004333891,0.054218877,-0.001839040,-0.000106061,-0.000007581,-0.023895903,-0.057322931,9.792797089
1784240284.673886,-0.004846355,0.004330418,0.054216158,-0.001434319,-0.000075083,0.000187893,-0.046034113,-0.070397384,9.781035423
1784240284.675890,-0.004840957,0.004327730,0.054212902,-0.000491094,-0.000415839,-0.000266411,-0.059868339,-0.064354323,9.775232315
1784240284.677932,-0.004841587,0.004333052,0.054216351,-0.000034146,-0.000124164,-0.000179532,-0.032937974,-0.064229071,9.772120476
1784240284.679886,-0.004839847,0.004333337,0.054216836,0.000119868,0.000322686,0.000137505,-0.035577223,-0.020107761,9.810061455
1784240284.681904,-0.004839286,0.004326722,0.054214090,0.000314689,-0.000160097,-0.000051100,-0.027827820,-0.011141341,9.795331001
1784240284.683896,-0.004838341,0.004320731,0.054210834,0.000254061,-0.000904048,-0.000443730,-0.053454999,-0.048807424,9.845726013
1784240284.685892,-0.004836909,0.004320736,0.054208141,0.000269006,-0.000996667,-0.000727159,-0.031094361,-0.059003714,9.790089607
1784240284.687884,-0.004841321,0.004321595,0.054209173,-0.000005783,-0.000666847,-0.000643046,-0.026005574,-0.046511319,9.788381577
1784240284.689892,-0.004844553,0.004323297,0.054211278,-0.000512144,-0.000245276,-0.000256314,-0.039748978,-0.030835703,9.814023972
1784240284.691945,-0.004845750,0.004326513,0.054208875,-0.000661752,0.000222901,-0.000208012,-0.033723686,-0.053609580,9.792363167
1784240284.693884,-0.004848288,0.004325614,0.054207508,-0.000718666,0.000312852,-0.000408814,-0.048139691,-0.057527207,9.802187920
1784240284.695912,-0.004843406,0.004323720,0.054208510,-0.000348572,0.000030519,-0.000321707,-0.034693357,-0.060247548,9.782456398
1784240284.697908,-0.004845490,0.004318190,0.054209772,-0.000064630,-0.000482405,-0.000079421,-0.034409501,-0.036527868,9.785747528
1784240284.699986,-0.004849500,0.004316701,0.054205753,-0.000489149,-0.000793157,-0.000246556,-0.052954353,-0.048402991,9.787894249
1784240284.701924,-0.004853907,0.004318893,0.054201763,-0.000954598,-0.000493662,-0.000726666,-0.042348798,-0.061582725,9.794992447
1784240284.703912,-0.004853708,0.004323483,0.054201744,-0.000928839,0.000078907,-0.000803090,-0.057807215,-0.040390924,9.804081917
1784240284.705903,-0.004858148,0.004321691,0.054202501,-0.000913780,0.000224077,-0.000535352,-0.041366924,-0.053632673,9.809392929
1784240284.707903,-0.004862342,0.004318307,0.054202192,-0.001251927,-0.000188270,-0.000361801,-0.033846706,-0.063496523,9.796783447
1784240284.709993,-0.004862888,0.004314867,0.054205865,-0.001210252,-0.000564980,-0.000036769,-0.043345813,-0.069246978,9.803461075
1784240284.711912,-0.004862544,0.004311962,0.054208208,-0.000872587,-0.000807832,0.000381196,-0.040643182,-0.068388730,9.803917885
1784240284.713906,-0.004865094,0.004318686,0.054202884,-0.000708700,-0.000350126,0.000075323,-0.028084749,-0.068591051,9.809757233
1784240284.715939,-0.004868911,0.004325374,0.054203421,-0.000871258,0.000635094,-0.000270682,-0.036664519,-0.036184698,9.804576874
1784240284.717917,-0.004861852,0.004327433,0.054205775,-0.000415519,0.001055428,0.000000015,-0.033263508,-0.012692869,9.834320068
1784240284.719906,-0.004855724,0.004334836,0.054215871,0.000512512,0.001441222,0.000848471,-0.061944552,-0.010015162,9.824447632
1784240284.721908,-0.004856709,0.004331942,0.054218736,0.000642402,0.001385952,0.001499924,-0.056098495,-0.048388187,9.791478157
1784240284.723905,-0.004856636,0.004330871,0.054214168,0.000425047,0.000707168,0.000977598,-0.047643695,-0.053917471,9.797727585
1784240284.725907,-0.004854884,0.004336179,0.054208834,0.000454889,0.000772059,0.000040898,-0.036509752,-0.062826470,9.770333290
1784240284.727905,-0.004853420,0.004337232,0.054216791,0.000548854,0.000993342,0.000208042,-0.007112435,-0.042324055,9.795599937
1784240284.729946,-0.004853659,0.004337629,0.054220743,0.000504972,0.000935891,0.000960221,-0.057366226,-0.042483851,9.782547951
1784240284.731913,-0.004852972,0.004343214,0.054214623,0.000424381,0.001206415,0.000553092,-0.027522234,-0.059593055,9.803539276
1784240284.733915,-0.004855494,0.004347143,0.054206640,0.000188587,0.001572371,-0.000555168,-0.050915804,-0.065044463,9.793169975
1784240284.735909,-0.004849507,0.004350020,0.054200739,0.000376407,0.001654987,-0.001344926,-0.031535935,-0.060157429,9.764079094
1784240284.737918,-0.004845918,0.004352122,0.054199375,0.000926216,0.001545958,-0.001469248,-0.031874780,-0.049152967,9.792393684
1784240284.739917,-0.004846780,0.004347785,0.054199316,0.000869130,0.001037050,-0.001165795,-0.045784548,-0.048974741,9.792382240
1784240284.741924,-0.004846676,0.004347268,0.054201402,0.000589997,0.000487446,-0.000711434,-0.031398926,-0.048539054,9.768187523
1784240284.743916,-0.004849723,0.004346592,0.054206163,0.000225496,0.000302801,-0.000054558,-0.053405281,-0.010419738,9.802932739
1784240284.745927,-0.004853378,0.004344000,0.054204263,-0.000294058,0.000028695,0.000152011,-0.030084349,-0.050021015,9.785216331
1784240284.747923,-0.004847894,0.004349800,0.054198384,-0.000087788,0.000241115,-0.000416353,-0.074397691,-0.040492617,9.785234451
1784240284.749922,-0.004837425,0.004361967,0.054189622,0.000941551,0.001325219,-0.001293172,-0.052785806,-0.032483075,9.817138672
1784240284.751928,-0.004830122,0.004363236,0.054185051,0.001814438,0.001807111,-0.001843187,-0.073739983,-0.021017008,9.817641258
1784240284.753922,-0.004827506,0.004362192,0.054188997,0.001949965,0.001222289,-0.001383389,-0.059308611,-0.014951793,9.820831299
1784240284.755925,-0.004826875,0.004360338,0.054196127,0.001592462,0.000580311,-0.000256080,-0.056256492,-0.024608705,9.787147522
1784240284.757931,-0.004830712,0.004364904,0.054197721,0.000939933,0.000603840,0.000404801,-0.051097963,-0.041455757,9.815737724
1784240284.759932,-0.004834176,0.004372923,0.054191094,0.000147642,0.001206129,-0.000049692,0.005399851,-0.045322247,9.816663742
1784240284.761933,-0.004836194,0.004374826,0.054184161,-0.000303539,0.001467081,-0.000959234,-0.020282116,-0.054341309,9.808063507
1784240284.763939,-0.004827821,0.004368085,0.054178748,0.000189466,0.000747808,-0.001535327,-0.038188316,-0.016190689,9.767940521
1784240284.765934,-0.004826985,0.004362796,0.054172829,0.000742050,-0.000264681,-0.001885213,-0.041370153,-0.056494955,9.770817757
1784240284.767953,-0.004826852,0.004365198,0.054173607,0.000607852,-0.000387054,-0.001722334,-0.069157228,-0.050613891,9.812971115
1784240284.769949,-0.004823149,0.004370999,0.054174647,0.000661393,0.000239257,-0.001130105,-0.037673455,-0.049211405,9.748002052
1784240284.771942,-0.004823528,0.004374461,0.054180484,0.000664193,0.000765803,-0.000355354,-0.027928872,-0.021260032,9.769263268
1784240284.773941,-0.004824693,0.004371680,0.054179911,0.000299449,0.000650027,0.000097369,-0.037062872,-0.032944657,9.790698051
1784240284.775945,-0.004829104,0.004372806,0.054180160,-0.000238295,0.000408950,0.000046778,-0.039887901,-0.044090115,9.787934303
1784240284.777944,-0.004834278,0.004376055,0.054185998,-0.000826052,0.000592769,0.000444859,-0.023796812,-0.048030220,9.808996201
1784240284.780026,-0.004833422,0.004378256,0.054192618,-0.000892707,0.000810121,0.001169139,-0.020407433,-0.028277500,9.797471046
1784240284.781957,-0.004829022,0.004380074,0.054199502,-0.000291558,0.000871015,0.001769466,-0.043935306,-0.043704871,9.804074287
1784240284.783976,-0.004829301,0.004377326,0.054198384,0.000071221,0.000541413,0.001681092,-0.054521460,-0.028345754,9.805507660
1784240284.785957,-0.004830834,0.004375248,0.054189835,-0.000062649,0.000042026,0.000567631,-0.039521355,-0.012828225,9.801586151
1784240284.787992,-0.004833392,0.004375026,0.054191399,-0.000321175,-0.000123152,-0.000062145,-0.050935935,-0.030450316,9.779941559
1784240284.790041,-0.004833666,0.004373449,0.054189764,-0.000474089,-0.000210743,-0.000051344,-0.037115019,-0.074188262,9.794021606
1784240284.791968,-0.004831467,0.004371598,0.054180674,-0.000259491,-0.000381636,-0.000765627,-0.029196555,-0.085672013,9.819510460
1784240284.793982,-0.004829953,0.004372476,0.054178771,0.000152335,-0.000292783,-0.001302432,-0.036769986,-0.043501526,9.825601578
1784240284.796004,-0.004828210,0.004375654,0.054181665,0.000417937,0.000109320,-0.000879332,-0.041253451,-0.045442179,9.791511536
1784240284.797965,-0.004823084,0.004372702,0.054177616,0.000771172,0.000095424,-0.000716979,-0.020987110,-0.039842431,9.786634445
1784240284.800001,-0.004817415,0.004367560,0.054174345,0.001294646,-0.000472998,-0.001016585,-0.026415784,-0.043770112,9.781673431
1784240284.801982,-0.004819958,0.004368930,0.054174319,0.001154158,-0.000595134,-0.000963271,-0.051396370,-0.029726706,9.805053711
1784240284.803973,-0.004824078,0.004371514,0.054171916,0.000369933,-0.000191110,-0.000868613,-0.041239586,-0.044927452,9.782099724
1784240284.805990,-0.004825833,0.004373150,0.054165244,-0.000145848,0.000123386,-0.001250750,-0.029098051,-0.044872817,9.752522469
1784240284.807974,-0.004824417,0.004371029,0.054166261,-0.000127528,0.000058817,-0.001295470,-0.061758548,-0.071568660,9.785047531
1784240284.809987,-0.004825288,0.004368214,0.054167803,-0.000011146,-0.000370745,-0.000770409,-0.029881977,-0.033833995,9.776802063
1784240284.812080,-0.004827853,0.004365860,0.054177336,-0.000199137,-0.000702276,0.000189213,-0.019053729,-0.027424265,9.801064491
1784240284.813992,-0.004831894,0.004368088,0.054180514,-0.000638237,-0.000437222,0.000998941,-0.027023531,-0.057177756,9.777999878
1784240284.815987,-0.004834497,0.004365491,0.054172762,-0.000955489,-0.000254967,0.000415395,-0.045186758,-0.037266724,9.783041000
1784240284.817977,-0.004828290,0.004363054,0.054173499,-0.000449249,-0.000525132,-0.000173251,-0.061381407,-0.039007407,9.804983139
1784240284.819978,-0.004820286,0.004363612,0.054176360,0.000606768,-0.000553790,0.000122027,-0.053873558,-0.047753122,9.824212074
1784240284.822000,-0.004821767,0.004364172,0.054179259,0.000853562,-0.000371928,0.000481848,-0.054168046,-0.034372132,9.833265305
1784240284.823995,-0.004822626,0.004361741,0.054184530,0.000452471,-0.000414167,0.000904544,-0.066332206,-0.039468434,9.815735817
1784240284.825988,-0.004822811,0.004359639,0.054184221,0.000249248,-0.000624562,0.000994992,-0.062120818,-0.062775388,9.809312820
1784240284.827996,-0.004818964,0.004361478,0.054179929,0.000431507,-0.000471422,0.000413249,-0.051602609,-0.083128855,9.817262650
1784240284.829998,-0.004821802,0.004366411,0.054178327,0.000461090,0.000109784,-0.000098350,-0.033947233,-0.072395332,9.788208008
1784240284.831992,-0.004826669,0.004373902,0.054181531,-0.000111099,0.000914472,0.000035586,-0.062795363,-0.045604646,9.790144920
1784240284.833996,-0.004831660,0.004377625,0.054185778,-0.000765674,0.001338815,0.000529018,-0.055664577,-0.015378603,9.748202324
1784240284.835995,-0.004827799,0.004379186,0.054190263,-0.000650412,0.001245025,0.000977433,-0.042326119,-0.022597995,9.794346809
1784240284.837993,-0.004824224,0.004379160,0.054193933,0.000028505,0.001008513,0.001268003,-0.037416633,-0.024894688,9.793440819
1784240284.839997,-0.004819690,0.004378043,0.054192021,0.000486219,0.000677278,0.001045492,-0.056496501,-0.044334892,9.789263725
1784240284.841998,-0.004819341,0.004375668,0.054193825,0.000601256,0.000277113,0.000755801,-0.054244366,-0.043890238,9.785680771
1784240284.844008,-0.004822035,0.004367858,0.054196414,0.000281117,-0.000515906,0.000848209,-0.040819820,-0.045972202,9.802268028
1784240284.846009,-0.004825156,0.004365258,0.054196373,-0.000187023,-0.001108303,0.000788709,-0.036005512,-0.055909671,9.804900169
1784240284.848031,-0.004821925,0.004359412,0.054191776,-0.000127386,-0.001379198,0.000259497,-0.030364221,-0.070061989,9.831715584
1784240284.850048,-0.004819368,0.004359261,0.054200239,0.000332833,-0.001368587,0.000453451,-0.051623840,-0.084917523,9.816802979
1784240284.852020,-0.004812067,0.004358929,0.054203905,0.000942036,-0.000989259,0.001156855,-0.068155728,-0.040887900,9.829623222
1784240284.854018,-0.004808617,0.004357601,0.054202788,0.001403526,-0.000889121,0.001018460,-0.033811875,-0.022389635,9.812737465
1784240284.856009,-0.004810075,0.004360548,0.054204632,0.001145743,-0.000593001,0.000791577,-0.029922763,-0.035371844,9.804141045
1784240284.858011,-0.004810527,0.004358450,0.054203790,0.000704796,-0.000374662,0.000643959,-0.039206896,-0.058373142,9.842093468
1784240284.860026,-0.004814127,0.004359091,0.054204293,0.000255479,-0.000375662,0.000445067,-0.042942561,-0.073258929,9.799849510
1784240284.862032,-0.004816981,0.004355420,0.054209825,-0.000236770,-0.000485264,0.000732551,-0.068272419,-0.051940653,9.808929443
1784240284.864022,-0.004814031,0.004357262,0.054210588,-0.000161118,-0.000533902,0.000960895,-0.047308750,-0.063737035,9.791838646
1784240284.866022,-0.004812007,0.004360962,0.054217223,0.000224706,-0.000069366,0.001202760,-0.048183765,-0.061117254,9.803061485
1784240284.868019,-0.004808408,0.004364125,0.054215327,0.000543928,0.000413734,0.001199305,-0.048786394,-0.038110297,9.782135963
1784240284.870034,-0.004805939,0.004367840,0.054204401,0.000797422,0.000772745,0.000005441,-0.055369332,-0.027943162,9.750363350
1784240284.872033,-0.004804204,0.004371023,0.054202516,0.000855535,0.001035646,-0.000864470,-0.043297235,-0.028842056,9.792064667
1784240284.874030,-0.004808460,0.004369218,0.054209661,0.000402487,0.000829000,-0.000273673,-0.042728737,-0.018986307,9.791232109
1784240284.876028,-0.004811863,0.004365030,0.054209873,-0.000276867,0.000177364,0.000297784,-0.065857142,-0.001270914,9.798944473
1784240284.878028,-0.004811164,0.004371142,0.054207213,-0.000384453,0.000260548,0.000049891,-0.036870282,-0.018050656,9.775102615
1784240284.880039,-0.004805523,0.004380797,0.054213330,0.000052576,0.001249112,0.000272432,-0.042810507,-0.062895417,9.791398048
1784240284.882039,-0.004802434,0.004384751,0.054218620,0.000530798,0.001820233,0.000975529,-0.039020114,-0.043930281,9.826942444
1784240284.884059,-0.004806276,0.004387232,0.054220740,0.000332186,0.001757869,0.001213416,-0.061912682,-0.045327164,9.812563896
1784240284.886045,-0.004809126,0.004386763,0.054210335,-0.000210998,0.001417278,0.000319380,-0.055912629,-0.032331537,9.801444054
1784240284.888067,-0.004804692,0.004394165,0.054203685,-0.000041107,0.001508700,-0.000924835,-0.061057288,-0.049722884,9.799086571
1784240284.890061,-0.004796796,0.004399154,0.054206315,0.000825486,0.001903852,-0.000943683,-0.077582918,-0.043638971,9.792386055
1784240284.892096,-0.004789741,0.004400949,0.054207858,0.001632144,0.001808411,-0.000399665,-0.057669178,-0.029169638,9.801014900
1784240284.894203,-0.004785652,0.004404159,0.054211013,0.001910985,0.001615997,0.000031575,-0.044165753,-0.026981482,9.784005165
1784240284.896141,-0.004784178,0.004406541,0.054215774,0.001734322,0.001514591,0.000561963,-0.037320323,-0.054024268,9.794150352
1784240284.898076,-0.004787533,0.004406860,0.054215211,0.001134415,0.001285356,0.000694005,-0.046372723,-0.025043242,9.767427444
1784240284.900098,-0.004790315,0.004407487,0.054211192,0.000390109,0.000999332,0.000193336,-0.033835243,-0.025410894,9.796579361
1784240284.902074,-0.004787274,0.004408001,0.054211687,0.000281816,0.000803844,-0.000098428,-0.039379016,-0.040378630,9.769128799
1784240284.904078,-0.004784549,0.004403541,0.054215074,0.000559787,0.000330500,0.000193199,-0.012422289,-0.036803219,9.784871101
1784240284.906076,-0.004786850,0.004402789,0.054214507,0.000399898,-0.000099972,0.000332386,-0.036171462,-0.033813924,9.785314560
1784240284.908076,-0.004786469,0.004405199,0.054206505,0.000163607,0.000042466,-0.000340096,-0.032526195,-0.028557515,9.795663834
1784240284.910069,-0.004785851,0.004405561,0.054206993,0.000136712,0.000216218,-0.000757163,-0.045707956,-0.040670160,9.821576118
1784240284.912068,-0.004783944,0.004399990,0.054205868,0.000218618,-0.000201154,-0.000594515,-0.029539431,-0.039946232,9.816665649
1784240284.914068,-0.004782283,0.004394408,0.054205265,0.000401311,-0.000848074,-0.000549949,-0.024382817,-0.061266158,9.781115532
1784240284.916118,-0.004784327,0.004393659,0.054200176,0.000267371,-0.000990823,-0.000786855,-0.048579536,-0.057451505,9.792324066
1784240284.918083,-0.004790628,0.004392952,0.054197490,-0.000369311,-0.000818128,-0.001103167,-0.053885818,-0.051091984,9.789669991
1784240284.920099,-0.004793300,0.004388503,0.054193720,-0.000818775,-0.001017014,-0.001245125,-0.035580449,-0.020133192,9.813648224
1784240284.922092,-0.004793462,0.004388256,0.054194476,-0.000730554,-0.001131824,-0.001113038,-0.024989631,-0.035860784,9.801003456
1784240284.924081,-0.004791684,0.004387243,0.054197624,-0.000446564,-0.000860724,-0.000545142,-0.027406976,-0.050983228,9.789696693
1784240284.926087,-0.004792655,0.004387011,0.054192793,-0.000293007,-0.000660332,-0.000510592,-0.040983882,-0.059830386,9.798144341
1784240284.928082,-0.004795230,0.004385998,0.054190371,-0.000452005,-0.000563100,-0.000865212,-0.055027712,-0.035278454,9.773182869
1784240284.930098,-0.004792752,0.004384556,0.054186862,-0.000370542,-0.000620943,-0.001033694,-0.028569987,-0.035741661,9.790690422
1784240284.932082,-0.004788625,0.004387449,0.054183904,0.000143797,-0.000397778,-0.001190334,-0.035724193,-0.033425763,9.792939186
1784240284.934082,-0.004780540,0.004391908,0.054183085,0.000866825,0.000245911,-0.001120692,-0.029749449,-0.021440530,9.797953606
1784240284.936086,-0.004780998,0.004390615,0.054175068,0.001083900,0.000432286,-0.001415010,-0.048605762,-0.056848109,9.833574295
1784240284.938087,-0.004783616,0.004385092,0.054175541,0.000583167,-0.000145359,-0.001544180,-0.059984554,-0.035787176,9.790658951
1784240284.940091,-0.004786998,0.004385860,0.054174989,0.000001780,-0.000422937,-0.001132374,-0.080480710,-0.022226963,9.810901642
1784240284.942101,-0.004787971,0.004385630,0.054169890,-0.000308468,-0.000264063,-0.001209274,-0.061080575,-0.013127411,9.819496155
1784240284.944093,-0.004784339,0.004380904,0.054171681,-0.000141414,-0.000549541,-0.001104439,-0.046082839,-0.036028992,9.799637794
1784240284.946091,-0.004778337,0.004383771,0.054174297,0.000451427,-0.000549809,-0.000502660,-0.002485584,-0.030740915,9.796573639
1784240284.948096,-0.004782436,0.004388868,0.054175101,0.000456982,0.000139005,-0.000133316,-0.046334989,-0.057877336,9.785150528
1784240284.950100,-0.004784421,0.004390844,0.054174546,-0.000081220,0.000611975,-0.000081897,-0.052411053,-0.075930908,9.814619064
1784240284.952110,-0.004780811,0.004394533,0.054175593,0.000049989,0.000860780,-0.000026089,-0.057114836,-0.059041902,9.779303551
1784240284.954103,-0.004783182,0.004395045,0.054177426,0.000124763,0.000825270,0.000175793,-0.056055974,-0.045620929,9.780288696
1784240284.956105,-0.004780765,0.004388150,0.054171756,0.000100206,0.000083053,-0.000132551,-0.043852787,-0.036569297,9.808603287
1784240284.958142,-0.004774540,0.004387302,0.054173023,0.000660941,-0.000463662,-0.000392394,-0.058738399,-0.044293426,9.787467003
1784240284.960112,-0.004773074,0.004389158,0.054181494,0.001037599,-0.000255488,0.000378388,-0.050968453,-0.069917977,9.785516739
1784240284.962114,-0.004770473,0.004398430,0.054180443,0.001066678,0.000583775,0.000780869,-0.042022552,-0.073902451,9.762635231
1784240284.964109,-0.004770224,0.004404753,0.054181777,0.001019641,0.001468881,0.000588090,-0.066474229,-0.054368425,9.769013405
1784240284.966121,-0.004771467,0.004403192,0.054181993,0.000724055,0.001377969,0.000533397,-0.041542184,-0.030799981,9.812227249
1784240284.968165,-0.004766571,0.004402359,0.054183811,0.000774758,0.000840671,0.000527456,-0.035366233,-0.041037317,9.791545868
1784240284.970123,-0.004757232,0.004406650,0.054189362,0.001520403,0.000853382,0.000887542,-0.045687351,-0.038481221,9.828764915
1784240284.972112,-0.004753611,0.004411132,0.054191466,0.001977057,0.001223448,0.001169785,-0.038502201,-0.039742220,9.804104805
1784240284.974162,-0.004754831,0.004406188,0.054193269,0.001580336,0.000872479,0.001118054,-0.022446748,-0.050042439,9.774463654
1784240284.976125,-0.004754548,0.004397714,0.054194514,0.001064956,-0.000262386,0.001020956,-0.052918781,-0.009316527,9.772902489
1784240284.978128,-0.004758168,0.004398033,0.054195032,0.000548793,-0.000745067,0.000861655,-0.064316265,-0.023561602,9.780422211
1784240284.980120,-0.004752473,0.004399723,0.054191526,0.000451764,-0.000449740,0.000424721,-0.057476643,-0.051055536,9.791011810
1784240284.982131,-0.004744668,0.004398071,0.054186940,0.001157951,-0.000366865,-0.000236068,-0.049171347,-0.071138591,9.764887810
1784240284.984183,-0.004750041,0.004398901,0.054181874,0.001057769,-0.000317200,-0.000826793,-0.028107313,-0.071605943,9.792701721
1784240284.986138,-0.004751829,0.004395753,0.054183688,0.000331720,-0.000384629,-0.000825501,-0.049251202,-0.038231734,9.800068855
1784240284.988147,-0.004745384,0.004389861,0.054188926,0.000555565,-0.000896163,-0.000121920,-0.057679985,-0.030065561,9.801009178
1784240284.990133,-0.004741818,0.004387394,0.054186482,0.000990325,-0.001287968,0.000102128,-0.027048673,-0.057781525,9.799964905
1784240284.992129,-0.004741689,0.004388996,0.054189648,0.000878945,-0.001063915,0.000123088,-0.043355312,-0.071753502,9.777890205
1784240284.994131,-0.004745465,0.004389956,0.054199737,0.000437102,-0.000632019,0.000987716,-0.066794328,-0.078374282,9.806070328
1784240284.996129,-0.004752502,0.004393488,0.054205585,-0.000371988,-0.000187247,0.001798058,-0.047375370,-0.032752011,9.782172203
1784240284.998135,-0.004756095,0.004395126,0.054211948,-0.000996172,0.000210687,0.002136015,-0.038125943,-0.046804056,9.788368225
1784240285.000143,-0.004755581,0.004391941,0.054217473,-0.000949882,0.000009308,0.002362220,-0.008035620,-0.045352895,9.782128334
1784240285.002140,-0.004753895,0.004390081,0.054219287,-0.000556370,-0.000373382,0.002219384,-0.029712697,-0.057524458,9.768580437
1784240285.004146,-0.004752460,0.004387942,0.054223485,-0.000177723,-0.000526612,0.002025916,-0.036730286,-0.040756524,9.817548752
1784240285.006147,-0.004750770,0.004386081,0.054226886,0.000097857,-0.000638900,0.001993283,-0.065079369,-0.010737293,9.805610657
1784240285.008142,-0.004749621,0.004382896,0.054232690,0.000261221,-0.000810956,0.002077259,-0.067951858,-0.025904855,9.801474571
1784240285.010145,-0.004747330,0.004377557,0.054234739,0.000359249,-0.001223505,0.002046542,-0.053803939,-0.043556139,9.800927162
1784240285.012145,-0.004744838,0.004375953,0.054237612,0.000522705,-0.001415823,0.001826345,-0.055717055,-0.054598629,9.782024384
1784240285.014149,-0.004741027,0.004379961,0.054237049,0.000830026,-0.000908875,0.001489319,-0.037521712,-0.069798291,9.807498932
1784240285.016152,-0.004743878,0.004377891,0.054235149,0.000692712,-0.000569681,0.000918125,-0.030792896,-0.033523981,9.797875404
1784240285.018154,-0.004742678,0.004380547,0.054235660,0.000393049,-0.000374869,0.000573615,-0.029232103,-0.017662274,9.769732475
1784240285.020157,-0.004736475,0.004384988,0.054238036,0.000667459,0.000245943,0.000614923,-0.064366847,-0.026392449,9.800577164
1784240285.022167,-0.004733422,0.004387898,0.054230560,0.000995417,0.000718138,0.000103776,-0.050266791,-0.048069019,9.799107552
1784240285.024158,-0.004724769,0.004385204,0.054224364,0.001464708,0.000505209,-0.000848984,-0.061329279,-0.035353765,9.795144081
1784240285.026158,-0.004721499,0.004383070,0.054220315,0.001820393,0.000006521,-0.001310278,-0.059367262,-0.058273043,9.801275253
1784240285.028157,-0.004724605,0.004381530,0.054220546,0.001338381,-0.000243438,-0.001213629,-0.044158522,-0.064514212,9.769418716
1784240285.030214,-0.004726215,0.004382260,0.054223970,0.000644467,-0.000244942,-0.000637309,-0.020158645,-0.082851231,9.784566879
1784240285.032179,-0.004723997,0.004379594,0.054228701,0.000499027,-0.000323798,0.000089553,-0.037736405,-0.088514082,9.793479919
1784240285.034169,-0.004718400,0.004375964,0.054225966,0.001041809,-0.000673681,0.000203275,-0.026260599,-0.067571864,9.789142609
1784240285.036166,-0.004711099,0.004375900,0.054227777,0.001783154,-0.000751087,0.000089089,-0.047679536,-0.057037298,9.795466423
1784240285.038169,-0.004712580,0.004376994,0.054228015,0.001693472,-0.000477919,0.000205311,-0.029942963,-0.037557594,9.796504021
1784240285.040168,-0.004714839,0.004373217,0.054227959,0.000939284,-0.000468708,0.000161463,-0.041587811,-0.035212819,9.802783966
1784240285.042173,-0.004715027,0.004369784,0.054232702,0.000476211,-0.000770796,0.000434817,-0.045869417,-0.019349504,9.784949303
1784240285.044170,-0.004710737,0.004369164,0.054238498,0.000591649,-0.000836189,0.001032674,-0.035020474,-0.049960949,9.785660744
1784240285.046175,-0.004716220,0.004369772,0.054237951,0.000317951,-0.000607768,0.001108140,-0.037503190,-0.069652028,9.786877632
1784240285.048172,-0.004719086,0.004366642,0.054234445,-0.000333848,-0.000612605,0.000529630,-0.034667522,-0.058017284,9.783816338
1784240285.050190,-0.004720588,0.004365750,0.054232810,-0.000465582,-0.000673384,0.000036210,-0.051404726,-0.031413622,9.790246010
1784240285.052194,-0.004713577,0.004364369,0.054230619,0.000108535,-0.000599444,-0.000231259,-0.080318853,-0.046381272,9.804918289
1784240285.054180,-0.004708780,0.004363875,0.054223385,0.000850968,-0.000744742,-0.000805789,-0.067887992,-0.020132236,9.808685303
1784240285.056179,-0.004712414,0.004364206,0.054216444,0.000670601,-0.000732825,-0.001549751,-0.047677461,-0.020241506,9.787631035
1784240285.058189,-0.004714994,0.004362931,0.054212943,0.000069899,-0.000594638,-0.001839019,-0.042299371,-0.056734644,9.806233406
1784240285.060190,-0.004711148,0.004363300,0.054206248,0.000210594,-0.000518316,-0.002030912,-0.018184749,-0.030091731,9.796563148
1784240285.062183,-0.004706578,0.004358504,0.054200590,0.000799044,-0.000701060,-0.002315674,-0.038425848,-0.033871025,9.797416687
1784240285.064190,-0.004703889,0.004358496,0.054196555,0.001046691,-0.000815342,-0.002342785,-0.021382859,-0.033339839,9.818060875
1784240285.066188,-0.004701923,0.004358228,0.054196246,0.001048752,-0.000592900,-0.002000079,-0.037335619,-0.054145098,9.811186790
1784240285.068190,-0.004701810,0.004357973,0.054200731,0.000903839,-0.000468815,-0.001173208,-0.056133587,-0.050691586,9.800429344
1784240285.070191,-0.004705713,0.004357500,0.054203887,0.000362829,-0.000465159,-0.000337342,-0.046508424,-0.073025353,9.773396492
1784240285.072192,-0.004706163,0.004355936,0.054200660,-0.000067165,-0.000548896,-0.000252464,-0.069517724,-0.044238113,9.799114227
1784240285.074192,-0.004700323,0.004355577,0.054200340,0.000289088,-0.000615676,-0.000424273,-0.057500694,-0.015276480,9.800207138
1784240285.076194,-0.004699687,0.004353720,0.054209057,0.000618784,-0.000688061,0.000262877,-0.066966034,-0.057539746,9.774820328
1784240285.078194,-0.004699562,0.004355325,0.054210357,0.000499455,-0.000521591,0.000872420,-0.034015629,-0.038992811,9.816665649
1784240285.080199,-0.004692658,0.004355924,0.054214299,0.000831277,-0.000204850,0.000993286,-0.022316637,-0.037668053,9.798304558
1784240285.082198,-0.004688579,0.004354310,0.054212112,0.001342420,-0.000191565,0.000845880,-0.015828524,-0.057499550,9.803115845
1784240285.084222,-0.004684558,0.004350103,0.054209650,0.001532692,-0.000393258,0.000303785,-0.038672924,-0.053247824,9.813432693
1784240285.086213,-0.004680731,0.004349818,0.054207209,0.001654242,-0.000449899,-0.000108701,-0.065981328,-0.049567435,9.786081314
1784240285.088245,-0.004685432,0.004348825,0.054206651,0.001146648,-0.000413511,-0.000283345,-0.067762442,-0.046599492,9.812998772
1784240285.090223,-0.004687305,0.004351187,0.054210883,0.000414784,-0.000331867,0.000040456,-0.068692997,-0.050902259,9.789656639
1784240285.092214,-0.004683995,0.004351965,0.054210573,0.000425329,-0.000152369,0.000295926,-0.052060347,-0.048846558,9.785651207
1784240285.094216,-0.004681570,0.004353648,0.054206021,0.000688140,0.000033292,-0.000112965,-0.044381421,-0.043273427,9.807213783
1784240285.096221,-0.004682013,0.004351276,0.054210760,0.000623320,-0.000046785,-0.000069461,-0.071820855,-0.050353643,9.781139374
1784240285.098218,-0.004680879,0.004347834,0.054210965,0.000499492,-0.000430272,0.000285231,-0.060338717,-0.027740382,9.793848038
1784240285.100221,-0.004675126,0.004345275,0.054203980,0.000681021,-0.000833692,-0.000250918,-0.036362674,-0.051128600,9.763235092
1784240285.102225,-0.004669461,0.004343652,0.054195143,0.001123453,-0.001001166,-0.001254062,-0.025726737,-0.060826387,9.784703255
1784240285.104217,-0.004671663,0.004344889,0.054189537,0.001106714,-0.000688086,-0.001892698,-0.052442249,-0.079419196,9.801146507
1784240285.106223,-0.004669697,0.004345958,0.054181255,0.000843271,-0.000277532,-0.002321216,-0.039233949,-0.063449793,9.799917221
1784240285.108224,-0.004669088,0.004343583,0.054179616,0.000792025,-0.000287611,-0.002364108,-0.025346851,-0.065022774,9.807092667
1784240285.110220,-0.004674056,0.004339066,0.054179303,0.000261740,-0.000616944,-0.001856378,-0.043720059,-0.065006085,9.774795532
1784240285.112227,-0.004678740,0.004339398,0.054180346,-0.000484638,-0.000674093,-0.001305538,-0.051880006,-0.069207691,9.813317299
1784240285.114232,-0.004675393,0.004341358,0.054186154,-0.000374222,-0.000329341,-0.000485873,-0.048282057,-0.070403613,9.785964966
1784240285.116244,-0.004662482,0.004343092,0.054186359,0.000900751,0.000017253,0.000059519,-0.040209964,-0.071758777,9.772962570
1784240285.118233,-0.004659384,0.004347041,0.054195907,0.001739915,0.000395156,0.000710113,-0.041543335,-0.031619594,9.801463127
1784240285.120227,-0.004658841,0.004348487,0.054199073,0.001500446,0.000624412,0.001381025,-0.024864538,-0.026768018,9.782231331
1784240285.122232,-0.004657104,0.004350600,0.054203827,0.001235016,0.000668402,0.001544015,-0.040819578,-0.008785692,9.802507401
1784240285.124231,-0.004651547,0.004351341,0.054210432,0.001239767,0.000678874,0.001897620,-0.044293087,-0.000933576,9.775654793
1784240285.126231,-0.004645314,0.004350489,0.054215692,0.001548346,0.000485000,0.002190683,-0.044110514,-0.021682262,9.794799805
1784240285.128235,-0.004640707,0.004347804,0.054216702,0.001861918,0.000111142,0.002023933,-0.030686326,-0.024577484,9.799726486
1784240285.130250,-0.004639797,0.004347960,0.054214012,0.001604488,-0.000062654,0.001360681,-0.049203679,-0.035019692,9.789328575
1784240285.132249,-0.004642047,0.004352514,0.054210547,0.000952892,0.000303601,0.000572636,-0.021229059,-0.057557743,9.821043015
1784240285.134243,-0.004633652,0.004351820,0.054209687,0.001128957,0.000580621,0.000126007,-0.041745659,-0.048616681,9.797768593
1784240285.136287,-0.004629119,0.004343043,0.054206926,0.001717404,-0.000122827,-0.000149514,-0.049712855,-0.040354505,9.784363747
1784240285.138253,-0.004628238,0.004341196,0.054205284,0.001619962,-0.000809268,-0.000406189,-0.048010226,-0.047589391,9.790594101
1784240285.140246,-0.004623051,0.004340983,0.054200184,0.001609259,-0.000787010,-0.000752635,-0.021648539,-0.057726510,9.782485962
1784240285.142252,-0.004618938,0.004343085,0.054194558,0.001821988,-0.000501525,-0.001273943,-0.041139312,-0.110805139,9.783919334
1784240285.144248,-0.004623036,0.004347423,0.054195870,0.001599565,0.000013847,-0.001219355,-0.082656063,-0.092787258,9.782200813
1784240285.146275,-0.004622456,0.004341863,0.054197390,0.001195673,-0.000133067,-0.000695483,-0.082855485,-0.072982177,9.769774437
1784240285.148258,-0.004621570,0.004339212,0.054202661,0.000968625,-0.000656458,-0.000045284,-0.047320187,-0.026642723,9.805076599
1784240285.150257,-0.004625574,0.004345383,0.054205593,0.000431137,-0.000314315,0.000522078,-0.047370315,-0.033117302,9.770512581
1784240285.152256,-0.004628055,0.004351785,0.054210387,-0.000188733,0.000549588,0.000902353,-0.041156091,-0.072132006,9.827206612
1784240285.154258,-0.004633280,0.004351891,0.054212492,-0.000571558,0.000836538,0.001123426,-0.065214135,-0.057496339,9.828623772
1784240285.156260,-0.004633243,0.004344742,0.054216940,-0.000679549,0.000125887,0.001261570,-0.060426105,0.003485922,9.813326836
1784240285.158262,-0.004632075,0.004343680,0.054221138,-0.000415838,-0.000468388,0.001506739,-0.030278925,0.010249021,9.816088676
1784240285.160261,-0.004630223,0.004348043,0.054224052,-0.000269711,-0.000162184,0.001581076,-0.025784833,0.009842137,9.802192688
1784240285.162264,-0.004632775,0.004348887,0.054222438,-0.000414050,0.000192015,0.001238422,-0.007807682,0.011867869,9.799981117
1784240285.164263,-0.004625964,0.004351124,0.054229315,-0.000122105,0.000444104,0.001260177,-0.011728586,-0.054227967,9.776689529
1784240285.166266,-0.004628238,0.004351688,0.054235663,0.000107157,0.000606249,0.001817487,-0.006381965,-0.092995882,9.800206184
1784240285.168308,-0.004626300,0.004349570,0.054230560,0.000054884,0.000335732,0.001408636,-0.045289181,-0.044964734,9.794649124
1784240285.170284,-0.004623138,0.004348833,0.054223329,0.000470221,0.000067423,0.000190473,-0.058063500,-0.025897790,9.782653809
1784240285.172274,-0.004616363,0.004349571,0.054224599,0.001099320,0.000063776,-0.000262115,-0.059710883,-0.048116807,9.822858810
1784240285.174307,-0.004613112,0.004352376,0.054223776,0.001522556,0.000256833,-0.000157542,-0.034906082,-0.040547412,9.784824371
1784240285.176279,-0.004617283,0.004351112,0.054223482,0.001088327,0.000262149,-0.000191606,-0.051780529,-0.062748648,9.786908150
1784240285.178277,-0.004616883,0.004354579,0.054218672,0.000538395,0.000342199,-0.000487146,-0.037604120,-0.078554012,9.778750420
1784240285.180276,-0.004619831,0.004353439,0.054219965,0.000264070,0.000398488,-0.000593943,-0.028849939,-0.060646243,9.764973640
1784240285.182281,-0.004622913,0.004354285,0.054219678,-0.000173492,0.000260183,-0.000366240,-0.018798947,-0.043550257,9.800064087
1784240285.184284,-0.004622782,0.004355766,0.054214068,-0.000361837,0.000412890,-0.000668088,-0.033703130,-0.050610572,9.811661720
1784240285.186279,-0.004616363,0.004349893,0.054205999,0.000148197,0.000070386,-0.001412983,-0.049961727,-0.060150646,9.796339989
1784240285.188286,-0.004616581,0.004344343,0.054206993,0.000530897,-0.000721988,-0.001507343,-0.062025044,-0.017134842,9.817677498
1784240285.190283,-0.004620692,0.004344067,0.054216273,0.000051240,-0.000956255,-0.000402010,-0.047657486,-0.017652310,9.801547050
1784240285.192286,-0.004619495,0.004346190,0.054218099,-0.000202266,-0.000606306,0.000460422,-0.017452434,-0.043564320,9.799615860
1784240285.194286,-0.004610084,0.004350378,0.054218594,0.000594869,0.000019678,0.000496612,-0.023320142,-0.009819979,9.790411949
1784240285.196295,-0.004606486,0.004353543,0.054215904,0.001339804,0.000547807,0.000216758,-0.013209851,-0.028629854,9.771023750
1784240285.198294,-0.004605610,0.004350632,0.054217704,0.001279994,0.000416510,0.000099314,-0.025605379,-0.050142102,9.794185638
1784240285.200297,-0.004607651,0.004346471,0.054217659,0.000869138,-0.000162263,0.000191000,-0.039049011,-0.048616197,9.792838097
1784240285.202295,-0.004606320,0.004337198,0.054214638,0.000602096,-0.001014230,-0.000069486,-0.063788347,-0.053237103,9.794130325
1784240285.204299,-0.004605182,0.004339742,0.054209825,0.000611306,-0.001257100,-0.000581752,-0.072402127,-0.024341315,9.778614998
1784240285.206299,-0.004601006,0.004347679,0.054204229,0.000811915,-0.000265064,-0.001128630,-0.057602983,0.012995325,9.794113159
1784240285.208304,-0.004605701,0.004347218,0.054203674,0.000558057,0.000316173,-0.001239619,-0.018644782,0.005388183,9.785583496
1784240285.210306,-0.004607718,0.004344344,0.054205492,-0.000214232,0.000040862,-0.000819849,-0.017546631,-0.016038986,9.772444725
1784240285.212308,-0.004611856,0.004346532,0.054202817,-0.000738380,0.000020764,-0.000657399,-0.010717822,-0.044428837,9.783029556
1784240285.214311,-0.004614780,0.004347150,0.054196678,-0.001007515,0.000278216,-0.001078915,-0.052900851,-0.081923157,9.776022911
1784240285.216316,-0.004616112,0.004339776,0.054183848,-0.001010071,-0.000180085,-0.002075244,-0.050209567,-0.117933832,9.794624329
1784240285.218311,-0.004612555,0.004339229,0.054180603,-0.000580068,-0.000663820,-0.002602639,-0.083033748,-0.085331500,9.805562019
1784240285.220317,-0.004610898,0.004341889,0.054185618,0.000116373,-0.000433789,-0.001773515,-0.069495462,-0.042846538,9.792398453
1784240285.222318,-0.004610289,0.004339516,0.054184239,0.000423183,-0.000390821,-0.001044158,-0.049085185,-0.023547590,9.814062119
1784240285.224318,-0.004612071,0.004338866,0.054187126,0.000139257,-0.000497156,-0.000658816,-0.044137966,-0.023925247,9.795233727
1784240285.226315,-0.004616183,0.004341567,0.054194830,-0.000390780,-0.000232913,0.000237054,-0.019796588,-0.050814245,9.815259933
1784240285.228320,-0.004616845,0.004345044,0.054191884,-0.000610118,0.000248208,0.000494418,0.006838182,-0.076527640,9.791807175
1784240285.230326,-0.004613657,0.004339306,0.054185156,-0.000211389,0.000202671,-0.000294211,-0.016431214,-0.071272500,9.787782669
1784240285.232324,-0.004606725,0.004329432,0.054188766,0.000592549,-0.000738766,-0.000421669,-0.049198892,-0.034171470,9.796059608
1784240285.234327,-0.004605680,0.004328609,0.054195106,0.000942026,-0.001337473,0.000370129,-0.059865959,-0.025935208,9.791170120
1784240285.236327,-0.004609830,0.004328399,0.054199595,0.000444172,-0.001117872,0.001003558,-0.077883497,0.005257515,9.784628868
1784240285.238327,-0.004613984,0.004328726,0.054199576,-0.000241336,-0.000807764,0.001032085,-0.064726889,-0.020823570,9.774162292
1784240285.240327,-0.004622532,0.004332262,0.054191876,-0.001117024,-0.000446709,0.000222638,-0.051445924,-0.035791487,9.775872231
1784240285.242343,-0.004626199,0.004329946,0.054181732,-0.001719095,-0.000359857,-0.001053929,-0.031935420,-0.017310183,9.788114548
1784240285.244349,-0.004621966,0.004330765,0.054175839,-0.001326546,-0.000324323,-0.001856365,-0.044345628,-0.042180363,9.779423714
1784240285.246341,-0.004626150,0.004328442,0.054174740,-0.001078213,-0.000301794,-0.001827249,-0.035541400,-0.092167869,9.799287796
1784240285.248341,-0.004638010,0.004330445,0.054174487,-0.001874111,-0.000241176,-0.001428256,-0.026649402,-0.062635362,9.788724899
1784240285.250342,-0.004643742,0.004329726,0.054177113,-0.002488536,-0.000000201,-0.000883827,-0.063266911,-0.082153410,9.827120781
1784240285.252341,-0.004639588,0.004333134,0.054185063,-0.001851556,0.000268215,0.000074631,-0.083375081,-0.076372884,9.806515694
1784240285.254339,-0.004638703,0.004342245,0.054185603,-0.000912629,0.000873501,0.000631480,-0.074974775,-0.086384967,9.813183784
1784240285.256342,-0.004640973,0.004344410,0.054185588,-0.000662207,0.001232446,0.000494439,-0.046588734,-0.039311592,9.821135521
1784240285.258343,-0.004644804,0.004348434,0.054193817,-0.000898811,0.001315250,0.000916447,-0.011151102,-0.043085560,9.783934593
1784240285.260344,-0.004648227,0.004353277,0.054194618,-0.001158972,0.001628174,0.001279299,-0.010705098,-0.041896872,9.805013657
1784240285.262350,-0.004648347,0.004356741,0.054195933,-0.001094646,0.001820279,0.001074490,-0.024123296,-0.038143884,9.805473328
1784240285.264349,-0.004644277,0.004359920,0.054198295,-0.000579543,0.001810518,0.001033508,-0.068950251,-0.033985272,9.805457115
1784240285.266351,-0.004647371,0.004359172,0.054200128,-0.000406375,0.001517378,0.001037843,-0.080139041,-0.067962281,9.815090179
1784240285.268381,-0.004642176,0.004361517,0.054201942,-0.000154556,0.001212699,0.001004589,-0.026287861,-0.031818248,9.801925659
1784240285.270354,-0.004636727,0.004359759,0.054202408,0.000661690,0.000966474,0.000890975,-0.036368467,-0.011152934,9.812359810
1784240285.272354,-0.004631841,0.004357862,0.054205276,0.001234944,0.000498902,0.000878776,-0.053514097,-0.018978691,9.809602737
1784240285.274355,-0.004634008,0.004361270,0.054205533,0.001023135,0.000471165,0.000852581,-0.047513247,-0.043566667,9.791069031
1784240285.276357,-0.004635971,0.004369280,0.054193839,0.000408374,0.001127981,-0.000156311,-0.052864004,-0.040800374,9.789736748
1784240285.278360,-0.004636111,0.004371421,0.054192483,0.000158684,0.001514996,-0.000999784,-0.026184810,-0.024520503,9.783590317
1784240285.280447,-0.004635720,0.004374280,0.054197781,0.000151879,0.001517972,-0.000460206,-0.041746225,-0.011436519,9.798902512
1784240285.282375,-0.004634274,0.004374544,0.054200672,0.000253337,0.001391228,0.000221151,-0.041743238,-0.048597597,9.795077324
1784240285.284376,-0.004633779,0.004371885,0.054192379,0.000361138,0.000890193,-0.000205353,-0.040164948,-0.029355703,9.795651436
1784240285.286371,-0.004625738,0.004367313,0.054189369,0.000889099,0.000198798,-0.000914301,-0.034821767,-0.030155640,9.835551262
1784240285.288375,-0.004628327,0.004363638,0.054194100,0.001017305,-0.000415530,-0.000547247,-0.028735828,-0.050019186,9.782528877
1784240285.290376,-0.004630554,0.004364359,0.054190896,0.000445709,-0.000495796,-0.000296915,-0.022639791,-0.064129546,9.802618027
1784240285.292377,-0.004626693,0.004366454,0.054192983,0.000467934,-0.000161910,-0.000292185,-0.048569169,-0.055748697,9.804888725
1784240285.294378,-0.004623183,0.004365264,0.054196119,0.000842914,-0.000087195,0.000144135,-0.047117885,-0.047235608,9.802254677
1784240285.296380,-0.004625000,0.004359999,0.054195005,0.000731480,-0.000531268,0.000241979,-0.065833382,-0.035836440,9.808137894
1784240285.298381,-0.004629724,0.004355548,0.054201860,0.000087091,-0.001048238,0.000564010,-0.029985551,-0.042351622,9.777644157
1784240285.300381,-0.004627148,0.004354557,0.054212451,-0.000055704,-0.001145251,0.001594963,-0.025372447,-0.030066516,9.805972099
1784240285.302381,-0.004629146,0.004356715,0.054214288,0.000026763,-0.000765851,0.002005821,-0.050275430,-0.048542414,9.802691460
1784240285.304384,-0.004631515,0.004358515,0.054209474,-0.000252590,-0.000335389,0.001258440,-0.063653529,-0.042041257,9.794650078
1784240285.306384,-0.004634591,0.004360693,0.054204937,-0.000527371,-0.000018377,0.000280644,-0.060797144,-0.064590849,9.810200691
1784240285.308402,-0.004633397,0.004362017,0.054209165,-0.000511876,0.000224474,0.000182500,-0.061062466,-0.050574291,9.792805672
1784240285.310393,-0.004632674,0.004359982,0.054216832,-0.000217020,0.000051255,0.000939886,-0.055662829,-0.011312343,9.806511879
1784240285.312396,-0.004634717,0.004359233,0.054212008,-0.000219256,-0.000212824,0.000876760,-0.049606569,-0.030194480,9.804602623
1784240285.314403,-0.004635247,0.004364364,0.054211996,-0.000340527,0.000121274,0.000310013,-0.043783054,-0.068745576,9.796739578
1784240285.316412,-0.004633790,0.004366490,0.054209843,-0.000192130,0.000558993,0.000079122,-0.059676934,-0.046633020,9.803142548
1784240285.318409,-0.004633712,0.004364923,0.054204203,-0.000033554,0.000447667,-0.000470485,-0.056522109,-0.046968602,9.781624794
1784240285.320403,-0.004628117,0.004366964,0.054200701,0.000388168,0.000237825,-0.000961358,-0.025292182,-0.060133353,9.812503815
1784240285.322409,-0.004624809,0.004367208,0.054202523,0.000912489,0.000205512,-0.000812487,-0.030519297,-0.047880385,9.800024033
1784240285.324412,-0.004624817,0.004369778,0.054203819,0.000879600,0.000346445,-0.000378845,-0.055415478,-0.027902195,9.807749748
1784240285.326411,-0.004629511,0.004369048,0.054205656,0.000312481,0.000382974,-0.000064174,-0.027097289,-0.025033275,9.794345856
1784240285.328413,-0.004628938,0.004363494,0.054203197,-0.000051857,-0.000147368,-0.000090690,-0.024174972,-0.042604413,9.802754402
1784240285.330417,-0.004627669,0.004353612,0.054201514,0.000093463,-0.001058683,-0.000346952,-0.038944054,-0.039682411,9.796482086
1784240285.332417,-0.004632381,0.004351025,0.054204661,-0.000161028,-0.001523015,-0.000154009,-0.064700067,-0.018180316,9.780456543
1784240285.334414,-0.004630439,0.004353897,0.054210495,-0.000448314,-0.001143308,0.000495837,-0.044616308,-0.029421842,9.749916077
1784240285.336414,-0.004627381,0.004356002,0.054210462,-0.000129269,-0.000547078,0.000755241,-0.017930089,-0.047434423,9.777622223
1784240285.338416,-0.004632839,0.004358731,0.054210719,-0.000257132,-0.000070523,0.000564789,-0.037590876,-0.040049050,9.782583237
1784240285.340421,-0.004634646,0.004365086,0.054206736,-0.000671742,0.000587755,0.000156492,-0.056350634,-0.032646567,9.783509254
1784240285.342418,-0.004629436,0.004369826,0.054202177,-0.000248267,0.001205466,-0.000463958,-0.056342229,-0.031769726,9.786205292
1784240285.344431,-0.004624317,0.004369337,0.054202393,0.000488372,0.001181096,-0.000629083,-0.019380976,-0.055944331,9.779808998
1784240285.346421,-0.004620152,0.004375677,0.054200258,0.000953467,0.001271113,-0.000586422,-0.038072996,-0.040307213,9.819792747
1784240285.348420,-0.004613393,0.004375626,0.054197010,0.001437677,0.001354560,-0.000789686,-0.053323410,-0.040473849,9.807671547
1784240285.350421,-0.004611284,0.004374553,0.054199088,0.001675400,0.000874843,-0.000652128,-0.057868376,-0.044521146,9.817953110
1784240285.352424,-0.004611771,0.004369275,0.054197952,0.001356191,0.000169815,-0.000410267,-0.049668897,-0.072734281,9.801192284
1784240285.354427,-0.004615342,0.004366507,0.054201629,0.000796987,-0.000430929,-0.000126767,-0.013801602,-0.075043298,9.809281349
1784240285.356427,-0.004614403,0.004368627,0.054207720,0.000484295,-0.000368596,0.000570094,-0.047535740,-0.044554807,9.804064751
1784240285.358426,-0.004612152,0.004370479,0.054205298,0.000568358,-0.000000018,0.000664855,-0.058241185,-0.040674154,9.781662941
1784240285.360433,-0.004607611,0.004366911,0.054199371,0.000879984,-0.000161213,-0.000080441,-0.030368753,0.001029435,9.789577484
1784240285.362434,-0.004608352,0.004362694,0.054198783,0.000903339,-0.000691202,-0.000499640,-0.045459732,-0.023310594,9.774164200
1784240285.364431,-0.004603127,0.004364394,0.054197941,0.000923622,-0.000701448,-0.000459939,-0.037343219,-0.055015579,9.807593346
1784240285.366436,-0.004595846,0.004364613,0.054187778,0.001485656,-0.000404842,-0.001078319,-0.055917174,-0.033583213,9.788434982
1784240285.368438,-0.004603451,0.004365772,0.054189362,0.001062856,-0.000198790,-0.001367713,-0.038835656,-0.068716601,9.783742905
1784240285.370442,-0.004608220,0.004368172,0.054198924,-0.000006135,0.000095326,-0.000243107,-0.028247541,-0.083249755,9.792178154
1784240285.372441,-0.004602754,0.004371581,0.054196756,0.000103366,0.000463551,0.000325700,-0.043255519,-0.026081162,9.781770706
1784240285.374441,-0.004594049,0.004372610,0.054191381,0.000997967,0.000621216,-0.000270153,-0.039302293,-0.030857349,9.816265106
1784240285.376441,-0.004596091,0.004372662,0.054182839,0.001141962,0.000510215,-0.001139533,-0.033817127,-0.025267810,9.776404381
1784240285.378451,-0.004599475,0.004370597,0.054180942,0.000466741,0.000238333,-0.001540499,-0.043172669,-0.055722293,9.791443825
1784240285.380482,-0.004605557,0.004369500,0.054189157,-0.000263892,-0.000054124,-0.000696239,-0.037509166,-0.032919828,9.788008690
1784240285.382487,-0.004611834,0.004370647,0.054188084,-0.000992814,-0.000049398,-0.000026148,-0.048767928,-0.037153963,9.773623466
1784240285.384466,-0.004611772,0.004366781,0.054182179,-0.001179772,-0.000205791,-0.000495083,-0.048519980,-0.053334005,9.780245781
1784240285.386462,-0.004603993,0.004362208,0.054181293,-0.000361901,-0.000708103,-0.000819294,-0.047166161,-0.051264074,9.801780701
1784240285.388465,-0.004594286,0.004362914,0.054183096,0.000922978,-0.000778685,-0.000529236,-0.049525257,-0.023068439,9.810477257
1784240285.390458,-0.004588267,0.004362579,0.054184895,0.001698580,-0.000577492,-0.000136260,-0.041963093,-0.027737997,9.823455811
1784240285.392457,-0.004587691,0.004356757,0.054185092,0.001644289,-0.000873563,0.000038257,-0.051057190,-0.077507876,9.781882286
1784240285.394459,-0.004582750,0.004354475,0.054181036,0.001712998,-0.001195974,-0.000232171,-0.045608658,-0.072207704,9.782817841
1784240285.396457,-0.004577581,0.004354970,0.054178864,0.002075470,-0.001001240,-0.000588752,-0.037682995,-0.048071016,9.776702881
1784240285.398458,-0.004576700,0.004352591,0.054179873,0.001922878,-0.000856988,-0.000506181,-0.046818323,-0.023391915,9.788061142
1784240285.400462,-0.004573895,0.004349017,0.054183006,0.001554618,-0.001039331,-0.000087003,-0.037182506,-0.042399537,9.797363281
1784240285.402467,-0.004570572,0.004350319,0.054186154,0.001451441,-0.000922842,0.000364429,-0.029839855,-0.031069919,9.766059875
1784240285.404470,-0.004573787,0.004349430,0.054178946,0.001055077,-0.000596213,-0.000009891,-0.042924147,-0.036739405,9.767804146
1784240285.406471,-0.004576912,0.004346834,0.054176237,0.000330457,-0.000621119,-0.000681876,-0.044180136,-0.028716089,9.775924683
1784240285.408468,-0.004568812,0.004347029,0.054176182,0.000579209,-0.000614628,-0.000682640,-0.068696029,-0.012931108,9.805592537
1784240285.410474,-0.004563601,0.004351649,0.054176431,0.001234685,-0.000184249,-0.000481501,-0.043941464,-0.044969264,9.792857170
1784240285.412471,-0.004560364,0.004345265,0.054178208,0.001381588,-0.000317912,-0.000211628,-0.020146314,-0.042732473,9.813518524
1784240285.414475,-0.004560761,0.004339106,0.054175485,0.001175106,-0.001022660,-0.000217480,-0.031898711,-0.049747195,9.813012123
1784240285.416482,-0.004563290,0.004342071,0.054174140,0.000634285,-0.000900551,-0.000435445,-0.040282577,-0.076384649,9.793555260
1784240285.418479,-0.004561607,0.004340482,0.054171968,0.000405658,-0.000561612,-0.000556471,-0.031807818,-0.082161583,9.771558762
1784240285.420481,-0.004560055,0.004335875,0.054168981,0.000613574,-0.000822050,-0.000755179,-0.020723918,-0.055091575,9.788331032
1784240285.422490,-0.004557290,0.004335865,0.054167077,0.000838482,-0.000904684,-0.000881171,-0.024073809,-0.034105875,9.804601669
1784240285.424478,-0.004560472,0.004335913,0.054169439,0.000553372,-0.000602271,-0.000610612,-0.023384415,-0.050348908,9.819293976
1784240285.426479,-0.004566228,0.004334122,0.054178454,-0.000236011,-0.000506226,0.000324996,-0.018076709,-0.059939172,9.772162437
1784240285.428496,-0.004569879,0.004330992,0.054181866,-0.000814165,-0.000706657,0.001077271,-0.057110343,-0.056980159,9.804423332
1784240285.430505,-0.004577984,0.004328407,0.054187153,-0.001379957,-0.000903557,0.001372058,-0.057372674,-0.042534731,9.789721489
1784240285.432496,-0.004581894,0.004326344,0.054187920,-0.001808995,-0.000973711,0.001406670,-0.078885518,-0.040441480,9.786127090
1784240285.434501,-0.004586031,0.004330050,0.054186314,-0.001881681,-0.000682541,0.000964826,-0.061984312,-0.014786929,9.802448273
1784240285.436492,-0.004587788,0.004330085,0.054187078,-0.001788437,-0.000328009,0.000643973,-0.055017702,-0.034388885,9.774084091
1784240285.438495,-0.004585779,0.004331922,0.054196618,-0.001288820,-0.000115038,0.001168844,-0.007225792,-0.052134681,9.789258957
1784240285.440500,-0.004582980,0.004332901,0.054206416,-0.000599344,0.000176829,0.002166248,-0.021219000,-0.060315091,9.767674446
1784240285.442498,-0.004579371,0.004335254,0.054213561,0.000012190,0.000425268,0.002730753,-0.054033529,-0.027636455,9.767851830
1784240285.444500,-0.004579787,0.004337859,0.054210357,0.000133996,0.000579168,0.002256785,-0.049335893,-0.008199872,9.798466682
1784240285.446500,-0.004577077,0.004334149,0.054200724,0.000166744,0.000284879,0.000771887,-0.044210244,-0.068164676,9.778809547
1784240285.448501,-0.004574053,0.004333073,0.054201208,0.000513471,-0.000114531,-0.000057638,-0.063018151,-0.063573964,9.797203064
1784240285.450509,-0.004578299,0.004337694,0.054206520,0.000352871,0.000060740,0.000350904,-0.039867181,-0.078274451,9.806546211
1784240285.452574,-0.004581864,0.004343320,0.054205462,-0.000210974,0.000643886,0.000542040,-0.035033654,-0.086439155,9.811879158
1784240285.454565,-0.004584075,0.004343808,0.054204628,-0.000423029,0.000961109,0.000265804,-0.001512062,-0.062067743,9.789649963
1784240285.456554,-0.004581832,0.004344332,0.054204851,-0.000183684,0.000845417,0.000153523,-0.000831635,-0.042007461,9.802780151
1784240285.458552,-0.004588156,0.004340969,0.054205086,-0.000410947,0.000423040,0.000141412,-0.031622913,-0.026091103,9.825269699
1784240285.460538,-0.004594814,0.004336398,0.054206643,-0.001231282,-0.000220135,0.000219939,-0.033631377,-0.010427867,9.768430710
1784240285.462527,-0.004599205,0.004338041,0.054214876,-0.001699931,-0.000351408,0.000820784,-0.056055024,-0.006807907,9.803850174
1784240285.464527,-0.004598576,0.004335951,0.054223076,-0.001606763,-0.000292499,0.001711339,-0.088905014,-0.014835883,9.794799805
1784240285.466520,-0.004596078,0.004334876,0.054225948,-0.001069910,-0.000432419,0.001998790,-0.045682814,-0.005313265,9.763968468
1784240285.468524,-0.004592000,0.004332460,0.054227747,-0.000334463,-0.000553406,0.001775392,-0.032695320,-0.044887241,9.761035919
1784240285.470521,-0.004589560,0.004330382,0.054227423,0.000182769,-0.000730011,0.001395505,-0.022166755,-0.063537896,9.781550407
1784240285.472522,-0.004588076,0.004334358,0.054229259,0.000383453,-0.000424786,0.001120899,-0.039275952,-0.030244047,9.792956352
1784240285.474524,-0.004590113,0.004337680,0.054233503,0.000225851,0.000194944,0.001229464,-0.047784608,-0.029597813,9.780398369
1784240285.476540,-0.004588941,0.004337683,0.054233998,0.000090253,0.000377200,0.001216760,-0.032127205,-0.032197826,9.802812576
1784240285.478541,-0.004588016,0.004339546,0.054234233,0.000207905,0.000401302,0.000936466,-0.042850371,-0.063210212,9.835781097
1784240285.480536,-0.004593197,0.004341656,0.054228891,-0.000119696,0.000569746,0.000335320,-0.050915856,-0.064234383,9.805280685
1784240285.482539,-0.004595487,0.004342232,0.054226741,-0.000575886,0.000605801,-0.000265904,-0.065757029,-0.029965252,9.801449776
1784240285.484538,-0.004594296,0.004347662,0.054233644,-0.000528793,0.000784878,0.000127948,-0.035705481,-0.030036030,9.820308685
1784240285.486538,-0.004597053,0.004353005,0.054238707,-0.000528308,0.001236695,0.000904001,-0.024935029,-0.032998141,9.776364326
1784240285.488538,-0.004598029,0.004351174,0.054241322,-0.000640414,0.001136842,0.001177949,-0.023858674,-0.053786941,9.799545288
1784240285.490540,-0.004593551,0.004351746,0.054238617,-0.000217721,0.000773884,0.000853200,-0.026518723,-0.052687999,9.775788307
1784240285.492575,-0.004595057,0.004351256,0.054234326,0.000056151,0.000602714,0.000147742,-0.045691267,-0.040133171,9.809025764
1784240285.494551,-0.004597375,0.004348475,0.054234806,-0.000235923,0.000212003,-0.000151818,-0.030138478,-0.016100585,9.803815842
1784240285.496542,-0.004595676,0.004348211,0.054233175,-0.000231983,-0.000058070,-0.000189101,-0.024871450,-0.028848838,9.759801865
1784240285.498545,-0.004593148,0.004351122,0.054230224,0.000119248,0.000138850,-0.000448188,-0.046202816,-0.046297122,9.794639587
1784240285.500552,-0.004592321,0.004355971,0.054228351,0.000306546,0.000625138,-0.000653181,-0.049583279,-0.066789947,9.784193993
1784240285.502552,-0.004591356,0.004361278,0.054230470,0.000335444,0.001140444,-0.000458806,-0.077717848,-0.090804644,9.809568405
1784240285.504553,-0.004591106,0.004363180,0.054226194,0.000444164,0.001227903,-0.000481136,-0.058420949,-0.054656330,9.795022964
1784240285.506555,-0.004592425,0.004354727,0.054225575,0.000369027,0.000358429,-0.000683366,-0.042793408,-0.024765287,9.784917831
1784240285.508554,-0.004595303,0.004350806,0.054219935,-0.000014234,-0.000576865,-0.000923152,-0.049421296,-0.052137602,9.802669525
1784240285.510553,-0.004595448,0.004354923,0.054215394,-0.000193226,-0.000411674,-0.001363735,-0.034038715,-0.043227591,9.782116890
1784240285.512559,-0.004595085,0.004354409,0.054213498,-0.000104741,-0.000061254,-0.001430340,-0.016411809,-0.031503126,9.802833557
1784240285.514568,-0.004596059,0.004349391,0.054208655,-0.000172641,-0.000344415,-0.001500123,-0.041331649,-0.050922647,9.806271553
1784240285.516583,-0.004593283,0.004349909,0.054208875,-0.000058959,-0.000481344,-0.001405899,-0.061783567,-0.036202598,9.789308548
1784240285.518569,-0.004591572,0.004349902,0.054212827,0.000260380,-0.000317309,-0.000739702,-0.044827353,-0.042435344,9.816185951
1784240285.520569,-0.004593945,0.004353751,0.054208301,0.000152629,0.000023841,-0.000578624,-0.047279797,-0.025108056,9.778185844
1784240285.522568,-0.004597588,0.004352753,0.054204274,-0.000286930,0.000207582,-0.001003769,-0.058118496,0.008826347,9.814260483
1784240285.524570,-0.004591075,0.004358771,0.054205596,-0.000209379,0.000424708,-0.000915246,-0.046404641,0.013915669,9.833582878
1784240285.526572,-0.004593261,0.004368355,0.054207209,-0.000055600,0.001299477,-0.000467524,-0.017783001,-0.032899715,9.812685966
1784240285.528579,-0.004592612,0.004369961,0.054203451,-0.000144156,0.001707013,-0.000485946,-0.035859883,-0.081407867,9.798907280
1784240285.530590,-0.004597777,0.004370561,0.054190934,-0.000320887,0.001452999,-0.001459359,-0.040825367,-0.085226834,9.777807236
1784240285.532578,-0.004602207,0.004371167,0.054183468,-0.000793312,0.001201212,-0.002422124,-0.048392814,-0.076951697,9.824926376
1784240285.534576,-0.004602510,0.004370466,0.054179166,-0.000796868,0.000866690,-0.002564183,-0.052468430,-0.082462721,9.788125992
1784240285.536618,-0.004606445,0.004366551,0.054177795,-0.000767613,0.000314118,-0.002254150,-0.041858375,-0.058827579,9.784700394
1784240285.538585,-0.004605828,0.004365776,0.054171357,-0.000782112,-0.000087152,-0.002172758,-0.041692946,-0.044553235,9.793309212
1784240285.540579,-0.004601295,0.004363907,0.054170761,-0.000230591,-0.000223874,-0.002057550,-0.026377801,-0.039417684,9.799634933
1784240285.542585,-0.004603320,0.004362609,0.054178175,-0.000012255,-0.000363250,-0.001035441,-0.043002628,-0.041006349,9.800953865
1784240285.544584,-0.004606358,0.004361733,0.054179743,-0.000395342,-0.000405827,-0.000146963,-0.046415079,-0.027403878,9.784449577
1784240285.546584,-0.004604157,0.004359080,0.054177027,-0.000384471,-0.000525759,-0.000185720,-0.013246798,-0.068132490,9.781529427
1784240285.548582,-0.004599240,0.004359833,0.054181505,0.000202678,-0.000512597,-0.000013904,-0.051215932,-0.051707990,9.808498383
1784240285.550635,-0.004592368,0.004359769,0.054183044,0.000957092,-0.000328310,0.000401583,-0.058387566,-0.050745513,9.812085152
1784240285.552621,-0.004594395,0.004360078,0.054180615,0.001037352,-0.000222119,0.000234013,-0.041472267,-0.059732798,9.848359108
1784240285.554605,-0.004600083,0.004362338,0.054181136,0.000284373,0.000044424,0.000039497,-0.044016495,-0.049614221,9.816140175
1784240285.556635,-0.004602079,0.004365563,0.054177936,-0.000261889,0.000436897,-0.000155253,-0.055098429,-0.038268283,9.815754890
1784240285.558614,-0.004593708,0.004366821,0.054174956,0.000243720,0.000624509,-0.000530912,-0.045719694,-0.042789135,9.804526329
1784240285.560616,-0.004590221,0.004368112,0.054179970,0.000970928,0.000627887,-0.000245142,-0.049894396,-0.054756030,9.793684959
1784240285.562608,-0.004586883,0.004371810,0.054177810,0.001158808,0.000795696,0.000017572,-0.051333647,-0.024773695,9.801497459
1784240285.564622,-0.004580709,0.004371004,0.054172434,0.001458134,0.000740515,-0.000495794,-0.011536626,-0.038933698,9.767819405
1784240285.566617,-0.004577982,0.004366479,0.054176353,0.001632990,0.000140262,-0.000457774,-0.019460566,-0.099430926,9.783563614
1784240285.568682,-0.004575466,0.004366994,0.054180041,0.001543307,-0.000172444,0.000184034,-0.063060053,-0.066741489,9.801665306
1784240285.570628,-0.004571652,0.004369705,0.054180272,0.001610205,0.000067856,0.000401678,-0.075089797,-0.060645115,9.785104752
1784240285.572606,-0.004572865,0.004371064,0.054179184,0.001407195,0.000301616,0.000235223,-0.077089563,-0.039644875,9.796894073
1784240285.574610,-0.004577762,0.004372894,0.054185823,0.000587963,0.000350496,0.000545463,-0.051763721,-0.026241828,9.756655693
1784240285.576608,-0.004576840,0.004374226,0.054186851,0.000135449,0.000383664,0.000916100,-0.019638177,-0.039837416,9.783498764
1784240285.578608,-0.004575168,0.004371040,0.054188926,0.000273868,0.000152673,0.000878546,-0.042494606,-0.036491148,9.795155525
1784240285.580609,-0.004577355,0.004367364,0.054192595,0.000135341,-0.000374112,0.001029329,-0.057576831,-0.059141085,9.794097900
1784240285.582615,-0.004576700,0.004369235,0.054190710,-0.000033537,-0.000413491,0.000870206,-0.009398934,-0.081845641,9.812829971
1784240285.584736,-0.004581040,0.004370784,0.054191757,-0.000205103,0.000045429,0.000576408,-0.007985970,-0.078498229,9.780570984
1784240285.586657,-0.004589478,0.004368502,0.054194130,-0.000948598,0.000096658,0.000648649,-0.034608882,-0.052285995,9.796854019
1784240285.588663,-0.004593925,0.004366447,0.054193560,-0.001566183,-0.000224522,0.000590846,-0.062276851,-0.038169935,9.814850807
1784240285.590739,-0.004592395,0.004364077,0.054193236,-0.001329028,-0.000500799,0.000369075,-0.056421261,0.001143497,9.820488930
1784240285.592703,-0.004587790,0.004361660,0.054192118,-0.000541674,-0.000726468,0.000172255,-0.069224417,-0.017201835,9.840086937
1784240285.594654,-0.004585568,0.004359358,0.054192331,-0.000022809,-0.000926495,0.000064691,-0.053309027,-0.038739242,9.815752983
1784240285.596662,-0.004583315,0.004361210,0.054190438,0.000195715,-0.000782173,-0.000066461,-0.024880257,-0.064481996,9.793198586
1784240285.598655,-0.004583315,0.004361210,0.054190438,0.000487831,-0.000137166,-0.000375406,-0.030361356,-0.073686637,9.774305344
1784240285.600649,-0.004600343,0.004359778,0.054212991,0.000410420,0.000388955,-0.000473819,-0.042151432,-0.045840491,9.786128044
1784240285.602638,-0.004600343,0.004359778,0.054212991,0.000076843,0.000412906,-0.000186484,-0.051876143,-0.031992558,9.809520721
1784240285.604635,-0.004600563,0.004360189,0.054212995,0.000155473,0.000084681,0.000057526,-0.059893310,-0.067388304,9.760866165
1784240285.606642,-0.004600563,0.004360189,0.054212995,0.000265716,-0.000350777,-0.000126761,-0.067838579,-0.055710960,9.771245956
1784240285.608641,-0.004600563,0.004360189,0.054212995,0.000272453,-0.000775426,-0.000225624,-0.046951130,-0.034571864,9.785299301
1784240285.610662,-0.004600610,0.004359898,0.054212991,0.000494981,-0.000927900,0.000154870,-0.064352117,-0.026681429,9.778160095
1784240285.612655,-0.004600610,0.004359898,0.054212991,0.000681364,-0.000428371,0.000616015,-0.044392936,-0.045795850,9.783885002
1784240285.614665,-0.004600533,0.004360124,0.054212995,0.000707887,-0.000135288,0.000951386,-0.043497369,-0.045416616,9.791957855
1784240285.616661,-0.004600533,0.004360124,0.054212995,0.000685827,-0.000337197,0.001500201,-0.052961249,-0.047646977,9.807625771
1784240285.618651,-0.004600533,0.004360124,0.054212995,0.000871447,-0.000269253,0.001702955,-0.035353415,-0.077715464,9.782793045
1784240285.620653,-0.004601804,0.004360009,0.054212991,0.001118246,-0.000125540,0.000966823,-0.030047936,-0.084081344,9.786343575
1784240285.622663,-0.004601804,0.004360009,0.054212991,0.001114149,-0.000394301,0.000012994,-0.028870754,-0.059594888,9.806227684
1784240285.624656,-0.004602241,0.004359401,0.054212991,0.000531389,-0.000639497,-0.000412280,-0.057361275,-0.041229002,9.795108795
1784240285.626654,-0.004602241,0.004359401,0.054212991,-0.000303687,-0.000240154,-0.000322380,-0.056177601,-0.017501742,9.795711517
1784240285.628652,-0.004602241,0.004359401,0.054212991,-0.000658270,0.000084689,-0.000364607,-0.034431074,-0.001539811,9.780142784
1784240285.630659,-0.004600924,0.004359445,0.054212991,-0.000483930,0.000138448,-0.000684529,-0.011325102,-0.021053405,9.773315430
1784240285.632668,-0.004600924,0.004359445,0.054212991,0.000370818,0.000583967,-0.000950273,-0.017299155,-0.069002107,9.785106659
1784240285.634668,-0.004602672,0.004358887,0.054212991,0.001046995,0.000801057,-0.001324896,-0.024910307,-0.104740649,9.783972740
1784240285.636667,-0.004602672,0.004358887,0.054212991,0.000988171,0.000119521,-0.001657515,-0.044910979,-0.088790581,9.782264709
1784240285.638662,-0.004602672,0.004358887,0.054212991,0.001104390,-0.000633000,-0.001521910,-0.042268697,-0.054466214,9.802213669
1784240285.640668,-0.004603700,0.004359124,0.054212991,0.001536890,-0.000648852,-0.000787792,-0.037527915,-0.032662649,9.814910889
1784240285.642667,-0.004603700,0.004359124,0.054212991,0.001839059,-0.000174504,-0.000214204,-0.048414152,-0.042367093,9.813044548
1784240285.644666,-0.004603363,0.004359730,0.054212991,0.001767927,-0.000110915,-0.000267731,-0.047511861,-0.043150507,9.795555115
1784240285.646669,-0.004603363,0.004359730,0.054212991,0.001244574,-0.000238281,-0.000507013,-0.048957169,-0.050805829,9.803574562
1784240285.648668,-0.004603363,0.004359730,0.054212991,0.000664228,-0.000364475,-0.000754036,-0.042139981,-0.045344837,9.779405594
1784240285.650671,-0.004603701,0.004359413,0.054212991,0.000585435,-0.000423895,-0.000969367,-0.046722405,-0.052524675,9.789219856
1784240285.652674,-0.004603701,0.004359413,0.054212991,0.001129028,-0.000042456,-0.000996548,-0.020431649,-0.027658215,9.836479187
1784240285.654672,-0.004602456,0.004358433,0.054212987,0.001270510,0.000182061,-0.000674067,-0.051595874,-0.046701532,9.798218727
1784240285.656719,-0.004602456,0.004358433,0.054212987,0.001009761,0.000151330,-0.000404700,-0.045329064,-0.048116367,9.796871185
1784240285.658686,-0.004602456,0.004358433,0.054212987,0.001396289,-0.000075043,-0.000244793,-0.060015973,-0.038872030,9.783465385
1784240285.660676,-0.004602630,0.004359602,0.054212991,0.001638244,-0.000493396,0.000177103,-0.044406340,-0.044280633,9.822899818
1784240285.662691,-0.004602630,0.004359602,0.054212991,0.001128121,-0.000771654,0.000302989,-0.045531135,-0.027926929,9.793413162
1784240285.664685,-0.004601160,0.004359577,0.054212995,0.000203001,-0.000548104,-0.000632762,-0.045091245,-0.031649541,9.749004364
1784240285.666692,-0.004601160,0.004359577,0.054212995,-0.000809528,0.000033489,-0.001493170,-0.052354444,-0.073052347,9.787736893
1784240285.668695,-0.004601160,0.004359577,0.054212995,-0.001187013,0.000467084,-0.001433372,-0.051120084,-0.082867511,9.779604912
1784240285.670703,-0.004602917,0.004360183,0.054212995,-0.000631855,0.000682678,-0.001172427,-0.038716204,-0.059668351,9.771246910
1784240285.672698,-0.004602917,0.004360183,0.054212995,-0.000080972,0.000947812,-0.001252274,-0.048405413,-0.043513838,9.785241127
1784240285.674695,-0.004602631,0.004360406,0.054212995,-0.000497172,0.000789680,-0.001295647,-0.016924452,-0.074049897,9.801215172
1784240285.676713,-0.004602631,0.004360406,0.054212995,-0.001221479,0.000210490,-0.001240238,-0.030615220,-0.056337595,9.792348862
1784240285.678703,-0.004602631,0.004360406,0.054212995,-0.000950693,0.000067492,-0.001124843,-0.022517854,-0.018282322,9.781840324
1784240285.680701,-0.004601827,0.004360000,0.054212991,0.000024587,0.000096489,-0.000641661,-0.037046999,-0.067167155,9.814690590
1784240285.682705,-0.004601827,0.004360000,0.054212991,0.000641660,-0.000116587,-0.000092552,-0.052628446,-0.058699131,9.786035538
1784240285.684699,-0.004602498,0.004360601,0.054212995,0.000982348,-0.000359084,0.000054084,-0.025328381,-0.064066432,9.798581123
1784240285.686699,-0.004602498,0.004360601,0.054212995,0.001376340,-0.000429317,0.000161731,-0.053822622,-0.006519057,9.822236061
1784240285.688710,-0.004602498,0.004360601,0.054212995,0.001249505,-0.000243467,0.000475488,-0.046284810,-0.017459702,9.771959305
1784240285.690709,-0.004601649,0.004360897,0.054212995,0.000378807,-0.000154458,0.000828924,-0.030947676,-0.009719062,9.789957047
1784240285.692709,-0.004601649,0.004360897,0.054212995,-0.000332050,-0.000484662,0.001066024,-0.036220655,-0.039065450,9.767795563
1784240285.694708,-0.004601449,0.004361137,0.054212995,-0.000434139,-0.000852369,0.000697146,-0.022419633,-0.045775864,9.804529190
1784240285.696710,-0.004601449,0.004361137,0.054212995,0.000165820,-0.000711205,0.000052685,-0.064596966,-0.046445772,9.785655022
1784240285.698709,-0.004601449,0.004361137,0.054212995,0.001035422,-0.000669022,-0.000091516,-0.045372624,-0.053323381,9.773076057
1784240285.700722,-0.004601954,0.004361504,0.054212995,0.001663502,-0.001107098,-0.000054771,-0.027569007,-0.061988659,9.825491905
1784240285.702713,-0.004601954,0.004361504,0.054212995,0.002273162,-0.000866244,-0.000620351,-0.056568481,-0.049361032,9.803129196
1784240285.704711,-0.004602210,0.004362000,0.054212995,0.002527559,0.000209672,-0.000774929,-0.050657157,-0.043955315,9.788373947
1784240285.706715,-0.004602210,0.004362000,0.054212995,0.001811449,0.001412186,-0.000074305,-0.047510717,-0.079920873,9.799802780
1784240285.708725,-0.004602210,0.004362000,0.054212995,0.000702112,0.001448690,0.000412429,-0.054471709,-0.063111231,9.779728889
1784240285.710717,-0.004602592,0.004362639,0.054212995,0.000170937,0.000390795,0.001014132,-0.041853257,-0.057166100,9.803092957
1784240285.712724,-0.004602592,0.004362639,0.054212995,0.000182764,-0.000206503,0.001833155,-0.014126419,-0.031201189,9.756211281
1784240285.714728,-0.004602124,0.004361319,0.054212991,0.000865213,-0.000321367,0.001855001,-0.033930250,-0.070235021,9.799428940
1784240285.716735,-0.004602124,0.004361319,0.054212991,0.001507983,-0.000421625,0.001383656,-0.050321225,-0.015771918,9.793935776
1784240285.718723,-0.004602124,0.004361319,0.054212991,0.001219242,-0.000270509,0.001040332,-0.057208270,-0.027863299,9.805507660
1784240285.720730,-0.004601589,0.004361950,0.054212991,0.000557847,-0.000135678,0.000482765,-0.057566982,-0.055821307,9.831331253
1784240285.722734,-0.004601589,0.004361950,0.054212991,-0.000270015,-0.000232712,0.000237412,-0.075571358,-0.063330308,9.785535812
1784240285.724730,-0.004601972,0.004363307,0.054212995,-0.000763244,-0.000091028,0.000457172,-0.055118222,-0.040450856,9.807670593
1784240285.726732,-0.004601972,0.004363307,0.054212995,-0.000489496,-0.000046423,0.000256908,-0.020802276,-0.023388695,9.803778648
1784240285.728738,-0.004601972,0.004363307,0.054212995,-0.000001106,-0.000087824,-0.000087505,-0.000884916,-0.046480712,9.801856041
1784240285.730742,-0.004602372,0.004361371,0.054212991,0.000321813,0.000205802,-0.000246395,-0.065804906,-0.033990543,9.800528526
1784240285.732741,-0.004602372,0.004361371,0.054212991,0.000723086,0.000688899,-0.000522848,-0.044147924,-0.025624875,9.782220840
1784240285.734736,-0.004601589,0.004361046,0.054212991,0.000994578,0.000806512,-0.000635320,-0.042090431,-0.039280057,9.808586121
1784240285.736738,-0.004601589,0.004361046,0.054212991,0.000606041,0.000266106,-0.000324535,-0.044606965,-0.024485102,9.811817169
1784240285.738739,-0.004601589,0.004361046,0.054212991,0.000542330,0.000121165,0.000048018,-0.037143786,-0.040067520,9.784377098
1784240285.740740,-0.004601640,0.004361340,0.054212991,0.001044711,0.000481070,-0.000236722,-0.050935589,-0.029637063,9.791603088
1784240285.742744,-0.004601640,0.004361340,0.054212991,0.001297214,0.000154159,-0.001043324,-0.018748946,-0.041129213,9.774524689
1784240285.744745,-0.004601240,0.004360640,0.054212987,0.000898568,-0.000315574,-0.001001328,-0.048420087,-0.044034928,9.795549393
1784240285.746750,-0.004601240,0.004360640,0.054212987,0.000138135,-0.000477579,-0.000176198,-0.050814871,-0.056142472,9.801297188
1784240285.748747,-0.004601240,0.004360640,0.054212987,-0.000111365,-0.000868759,0.000405811,-0.046731498,-0.052191187,9.805361748
1784240285.750746,-0.004601105,0.004361107,0.054212991,0.000034690,-0.001011167,0.000488129,-0.047863204,-0.035081457,9.795606613
1784240285.752755,-0.004601105,0.004361107,0.054212991,0.000057580,-0.000466370,0.000605733,-0.045428205,-0.056599010,9.792781830
1784240285.754752,-0.004601798,0.004360975,0.054212991,-0.000408819,0.000438699,0.000855936,-0.032226689,-0.038656879,9.829224586
1784240285.756754,-0.004601798,0.004360975,0.054212991,-0.001254786,0.001121046,0.001109738,-0.013270839,-0.032353442,9.790725708
1784240285.758757,-0.004601798,0.004360975,0.054212991,-0.001446085,0.000820697,0.001435277,-0.035293732,-0.034791294,9.795172691
1784240285.760755,-0.004601869,0.004360127,0.054212984,-0.000666362,0.000146875,0.000877074,-0.064367600,-0.027208881,9.789364815
1784240285.762764,-0.004601869,0.004360127,0.054212984,0.000122859,-0.000090520,-0.000159621,-0.028928107,0.009053229,9.792769432
1784240285.764761,-0.004599311,0.004358839,0.054212976,0.000047549,-0.000149892,-0.000680569,-0.042927712,-0.034741253,9.801890373
1784240285.766762,-0.004599311,0.004358839,0.054212976,-0.000113861,-0.000029560,-0.001131539,-0.056071043,-0.046145208,9.791044235
1784240285.768772,-0.004599311,0.004358839,0.054212976,0.000435408,-0.000129414,-0.001405896,-0.040001426,-0.054307368,9.775764465
1784240285.770766,-0.004600150,0.004358955,0.054212980,0.000961167,-0.000188390,-0.001136139,-0.043290399,-0.066377968,9.777926445
1784240285.772772,-0.004600150,0.004358955,0.054212980,0.001259194,0.000308433,-0.000756233,-0.049262725,-0.078344129,9.770221710
1784240285.774767,-0.004601413,0.004358925,0.054212976,0.001168046,0.000531353,-0.000751517,-0.050482295,-0.066791177,9.785985947
1784240285.776773,-0.004601413,0.004358925,0.054212976,0.000917887,0.000320624,-0.001219799,-0.035202242,-0.029205907,9.765617371
1784240285.778771,-0.004601413,0.004358925,0.054212976,0.001076426,-0.000053550,-0.001399160,-0.042512491,-0.037037689,9.809049606
1784240285.780855,-0.004600969,0.004359191,0.054212976,0.001280624,-0.000331406,-0.000825690,-0.036960110,-0.024433397,9.790754318
1784240285.782787,-0.004600969,0.004359191,0.054212976,0.001341189,-0.000212204,0.000135283,-0.034440000,-0.038389657,9.795598030
1784240285.784780,-0.004601171,0.004358483,0.054212976,0.000735018,-0.000081915,0.000762344,-0.022754759,-0.073952898,9.798071861
1784240285.786782,-0.004601171,0.004358483,0.054212976,-0.000234163,-0.000304744,0.001126283,-0.042670798,-0.052471489,9.774428368
1784240285.788783,-0.004601171,0.004358483,0.054212976,-0.000614601,-0.000470140,0.001319702,-0.038555648,-0.044622086,9.797347069
1784240285.790784,-0.004601275,0.004358707,0.054212976,-0.000272088,-0.000112108,0.001590619,-0.036478478,-0.019721430,9.820374489
1784240285.792785,-0.004601275,0.004358707,0.054212976,-0.000005859,0.000092545,0.002112625,-0.032418467,-0.018791400,9.808278084
1784240285.794791,-0.004600259,0.004358366,0.054212976,-0.000443820,0.000215657,0.001968250,-0.057106812,-0.017741432,9.831127167
1784240285.796791,-0.004600259,0.004358366,0.054212976,-0.000815027,0.000416225,0.001484521,-0.039229520,-0.063414805,9.794984818
1784240285.798788,-0.004600259,0.004358366,0.054212976,-0.001230884,0.000509354,0.001221862,-0.045013040,-0.058085363,9.812050819
1784240285.800795,-0.004601029,0.004358409,0.054212980,-0.001585903,0.000758304,0.000941186,-0.039097287,-0.052644666,9.792365074
1784240285.802797,-0.004601029,0.004358409,0.054212980,-0.001105162,0.000734362,0.000628435,-0.019727768,-0.046623606,9.792869568
1784240285.804795,-0.004601129,0.004357523,0.054212973,-0.000288372,0.000405461,0.000471814,-0.046683963,-0.048979141,9.794622421
1784240285.806797,-0.004601129,0.004357523,0.054212973,0.000002377,0.000457016,0.000376907,-0.048336431,-0.038916580,9.768682480
1784240285.808798,-0.004601129,0.004357523,0.054212973,0.000250301,0.000494074,0.000325875,-0.043281812,-0.027504535,9.792969704
1784240285.810797,-0.004600937,0.004357451,0.054212973,0.000714679,-0.000021080,0.000141714,-0.035719816,-0.032580715,9.800117493
1784240285.812802,-0.004600937,0.004357451,0.054212973,0.000853993,-0.000411997,-0.000028952,-0.055519626,-0.036829617,9.803209305
1784240285.814807,-0.004601119,0.004358390,0.054212980,0.000958796,-0.000425827,-0.000314232,-0.035172615,-0.061293524,9.804417610
1784240285.816834,-0.004601119,0.004358390,0.054212980,0.000948065,-0.000268985,-0.001171128,-0.022517521,-0.055059038,9.786984444
1784240285.818813,-0.004601119,0.004358390,0.054212980,0.000778073,0.000005914,-0.001289281,-0.030038944,-0.045204725,9.800938606
1784240285.820853,-0.004601072,0.004357260,0.054212973,0.000689630,0.000361366,-0.000327428,-0.030372040,-0.035775900,9.798757553
1784240285.822830,-0.004601072,0.004357260,0.054212973,0.000751019,0.000547067,0.000355012,-0.014517007,-0.061437164,9.787400246
1784240285.824823,-0.004602240,0.004355966,0.054212965,0.000940224,0.000627899,0.000671571,-0.040915567,-0.054022785,9.800424576
1784240285.826819,-0.004602240,0.004355966,0.054212965,0.001076346,0.000524920,0.000883224,-0.046075016,-0.035561953,9.796950340
1784240285.828820,-0.004602240,0.004355966,0.054212965,0.000701312,0.000006916,0.000727309,-0.052191179,-0.021610569,9.799275398
1784240285.830820,-0.004601420,0.004356230,0.054212965,0.000102634,-0.000402048,0.000468618,-0.037320655,-0.017247552,9.789007187
1784240285.832826,-0.004601420,0.004356230,0.054212965,-0.000240765,-0.000344975,0.000932155,-0.023807803,-0.049332768,9.803159714
1784240285.834831,-0.004601856,0.004355669,0.054212965,-0.000653643,-0.000231639,0.001594911,-0.046404187,-0.024481181,9.814507484
1784240285.836829,-0.004601856,0.004355669,0.054212965,-0.001007052,-0.000144412,0.001409747,-0.039686844,-0.026292494,9.805086136
1784240285.838823,-0.004601856,0.004355669,0.054212965,-0.000626895,0.000187115,0.000483084,-0.038762730,-0.022040598,9.835601807
1784240285.840833,-0.004599678,0.004354806,0.054212965,0.000483669,0.000512181,-0.000605382,-0.058167074,-0.034415413,9.783494949
1784240285.842828,-0.004599678,0.004354806,0.054212965,0.001393660,0.000151159,-0.000950194,-0.068700425,-0.051366121,9.791895866
1784240285.844828,-0.004600023,0.004355981,0.054212969,0.001075963,-0.000497360,-0.001187039,-0.050639320,-0.042598709,9.786589622
1784240285.846862,-0.004600023,0.004355981,0.054212969,0.000271272,-0.000530088,-0.001610765,-0.043329298,-0.069116615,9.785080910
1784240285.848834,-0.004600023,0.004355981,0.054212969,0.000065332,-0.000381470,-0.001358274,-0.049482189,-0.095071316,9.791633606
1784240285.850866,-0.004602755,0.004356064,0.054212965,0.000057362,-0.000508835,-0.001157372,-0.060754109,-0.063440546,9.774341583
1784240285.852844,-0.004602755,0.004356064,0.054212965,0.000109586,-0.000295040,-0.001207787,-0.033148397,-0.080479667,9.789502144
1784240285.854840,-0.004604741,0.004355540,0.054212965,-0.000102795,0.000115285,-0.001225441,-0.045795649,-0.048657145,9.810766220
1784240285.856838,-0.004604741,0.004355540,0.054212965,-0.000315282,0.000108285,-0.001149839,-0.058058374,-0.024236314,9.801047325
1784240285.858840,-0.004604741,0.004355540,0.054212965,-0.000252583,0.000189730,-0.000913418,-0.057929426,-0.015518376,9.771961212
1784240285.860843,-0.004602550,0.004357041,0.054212973,-0.000586205,0.000306597,-0.000651211,-0.042274218,-0.018540911,9.790785789
1784240285.862844,-0.004602550,0.004357041,0.054212973,-0.001359632,-0.000160634,-0.000446064,-0.083026722,-0.047280863,9.810289383
1784240285.864848,-0.004602452,0.004358807,0.054212980,-0.001923934,-0.000538213,-0.000098255,-0.038210578,-0.052335396,9.810299873
1784240285.866847,-0.004602452,0.004358807,0.054212980,-0.001499148,-0.000443972,0.000104350,-0.041388500,-0.056234587,9.797270775
1784240285.868890,-0.004602452,0.004358807,0.054212980,-0.000519742,-0.000327438,0.000072759,-0.035694614,-0.029950183,9.808204651
1784240285.870855,-0.004602971,0.004358717,0.054212980,0.000556566,-0.000155796,-0.000057506,-0.001486509,-0.023870835,9.773755074
1784240285.872854,-0.004602971,0.004358717,0.054212980,0.001356798,-0.000228369,-0.000243737,-0.036285672,-0.042820841,9.791980743
1784240285.874854,-0.004603033,0.004358458,0.054212980,0.001125214,-0.000362450,-0.000381151,-0.060125235,-0.046624098,9.802694321
1784240285.876854,-0.004603033,0.004358458,0.054212980,0.000579634,-0.000151406,-0.000263513,-0.049503352,-0.060080081,9.785581589
1784240285.878875,-0.004603033,0.004358458,0.054212980,0.000308542,0.000122986,0.000472923,-0.053345341,-0.043889012,9.783888817
1784240285.880868,-0.004602768,0.004359574,0.054212984,-0.000087015,0.000309560,0.000593829,-0.057246022,-0.032619167,9.781267166
1784240285.882864,-0.004602768,0.004359574,0.054212984,-0.000517205,0.000523654,-0.000076059,-0.023791336,-0.010802359,9.803406715
1784240285.884863,-0.004600760,0.004358070,0.054212976,-0.000758169,0.000731618,-0.000365090,-0.043968979,-0.049239025,9.763239861
1784240285.886926,-0.004600760,0.004358070,0.054212976,-0.001008757,0.000736944,-0.000089181,-0.024993386,-0.074696064,9.780579567
1784240285.888873,-0.004600760,0.004358070,0.054212976,-0.001215798,0.000129669,0.000018112,-0.037748069,-0.051016331,9.812998772
1784240285.890877,-0.004601642,0.004357666,0.054212980,-0.001098597,-0.000638715,-0.000049530,-0.049189057,-0.033688530,9.791131973
1784240285.892875,-0.004601642,0.004357666,0.054212980,-0.001280163,-0.000764723,0.000083704,-0.055595223,-0.041884381,9.821110725
1784240285.894873,-0.004601471,0.004358100,0.054212980,-0.001805021,-0.000419086,-0.000015994,-0.062894851,-0.052063692,9.816555023
1784240285.896875,-0.004601471,0.004358100,0.054212980,-0.001483125,-0.000264551,-0.000142200,-0.066097915,-0.059403501,9.783329010
1784240285.898873,-0.004601471,0.004358100,0.054212980,-0.000875830,-0.000716071,0.000106293,-0.061989732,-0.052824855,9.795928001
1784240285.900879,-0.004602227,0.004359020,0.054212987,-0.000489738,-0.001294720,0.000015061,-0.043386646,-0.035221618,9.807266235
1784240285.902883,-0.004602227,0.004359020,0.054212987,-0.000329221,-0.001315101,-0.000681172,-0.054682471,-0.077338256,9.827609062
1784240285.904876,-0.004603446,0.004359371,0.054212987,-0.000425816,-0.001003882,-0.001150789,-0.047748867,-0.024857840,9.806879997
1784240285.906877,-0.004603446,0.004359371,0.054212987,-0.000116913,-0.000677241,-0.000841876,-0.041180898,-0.040006239,9.783027649
1784240285.908883,-0.004603446,0.004359371,0.054212987,-0.000471936,-0.000506910,-0.000311253,-0.073932819,-0.038344409,9.797353745
1784240285.910891,-0.004603264,0.004360721,0.054212991,-0.001309819,-0.000500914,-0.000197055,-0.048746459,-0.070521861,9.803447723
1784240285.912897,-0.004603264,0.004360721,0.054212991,-0.001504383,-0.000501029,-0.000113228,-0.050541483,-0.032505460,9.816244125
1784240285.914896,-0.004602770,0.004360890,0.054212991,-0.001249808,-0.000509038,0.000544135,-0.043400928,-0.038576379,9.774965286
1784240285.916913,-0.004602770,0.004360890,0.054212991,-0.000558673,-0.000574213,0.001005438,-0.034506638,-0.044994615,9.779416084
1784240285.918897,-0.004602770,0.004360890,0.054212991,-0.000579162,-0.000702718,0.000798654,-0.030476717,-0.045923200,9.776723862
1784240285.920897,-0.004602892,0.004360238,0.054212991,-0.001389620,-0.000822867,0.000502187,-0.053451564,-0.052022271,9.793698311
1784240285.922896,-0.004602892,0.004360238,0.054212991,-0.001491996,-0.000968437,0.000088097,-0.063166253,-0.037284773,9.817994118
1784240285.924896,-0.004602430,0.004360962,0.054212991,-0.000857734,-0.000740031,-0.000228626,-0.030579541,-0.053624392,9.788780212
1784240285.926893,-0.004602430,0.004360962,0.054212991,0.000367333,-0.000257438,-0.000528588,-0.039497491,-0.049013894,9.786559105
1784240285.928909,-0.004602430,0.004360962,0.054212991,0.001544283,-0.000236137,-0.000224993,-0.037407704,-0.022797961,9.813629150
1784240285.930922,-0.004602240,0.004360827,0.054212991,0.002000183,-0.000418377,0.000662350,-0.030052971,-0.008536120,9.811037064
1784240285.932912,-0.004602240,0.004360827,0.054212991,0.001777149,-0.000059062,0.001292578,-0.042585626,-0.042883433,9.812150002
1784240285.934909,-0.004602389,0.004361128,0.054212991,0.001345389,0.000280473,0.001282350,-0.041990366,-0.032411203,9.787560463
1784240285.936914,-0.004602389,0.004361128,0.054212991,0.001191818,0.000294088,0.000948921,-0.032380793,-0.053652268,9.795950890
1784240285.938916,-0.004602389,0.004361128,0.054212991,0.001058896,0.000069137,0.000885197,-0.023058105,-0.025888730,9.781342506
1784240285.940910,-0.004601203,0.004360409,0.054212991,0.000869871,-0.000325851,0.000530460,-0.025125900,-0.049499564,9.765946388
1784240285.942911,-0.004601203,0.004360409,0.054212991,0.000577384,0.000073370,0.000058998,-0.043096360,-0.049041029,9.796867371
1784240285.944913,-0.004600755,0.004360253,0.054212991,0.000038229,0.000436059,0.000311134,-0.065060042,-0.010584667,9.784090996
1784240285.946928,-0.004600755,0.004360253,0.054212991,-0.000417335,-0.000038455,0.000725271,-0.071656115,-0.037705798,9.766426086
1784240285.948924,-0.004600755,0.004360253,0.054212991,-0.000385257,-0.000294519,0.000450385,-0.060405288,-0.032318562,9.807717323
1784240285.950980,-0.004599915,0.004360919,0.054212991,-0.000050143,-0.000105663,0.000126358,-0.044165589,-0.064164825,9.783318520
1784240285.952970,-0.004599915,0.004360919,0.054212991,0.000338747,0.000135695,0.000324359,-0.021785483,-0.032564983,9.772784233
1784240285.954940,-0.004598939,0.004360489,0.054212991,0.000635774,-0.000032272,0.000737484,-0.036445972,-0.017843734,9.808280945
1784240285.956931,-0.004598939,0.004360489,0.054212991,0.000166076,-0.000232362,0.000242638,-0.016855156,-0.030239342,9.814945221
1784240285.958926,-0.004598939,0.004360489,0.054212991,-0.000660637,-0.000153701,-0.000640873,-0.025130142,-0.046291076,9.818869591
1784240285.960934,-0.004598487,0.004359042,0.054212984,-0.000938199,-0.000101781,-0.000977135,-0.032517854,-0.064460568,9.803951263
1784240285.962931,-0.004598487,0.004359042,0.054212984,-0.000958048,0.000113072,-0.001058357,-0.054061830,-0.063828848,9.816936493
1784240285.964931,-0.004599531,0.004359545,0.054212984,-0.000500432,0.000497162,-0.000898886,-0.052181005,-0.057904344,9.799490929
1784240285.966928,-0.004599531,0.004359545,0.054212984,0.000557171,0.000824373,-0.000979868,-0.074128620,-0.053263851,9.816534996
1784240285.968935,-0.004599531,0.004359545,0.054212984,0.001700922,0.000482411,-0.000987348,-0.025703533,-0.020621791,9.801548958
1784240285.970939,-0.004598734,0.004358742,0.054212980,0.001987982,-0.000015461,-0.000561807,-0.029843710,-0.030695092,9.776373863
1784240285.972940,-0.004598734,0.004358742,0.054212980,0.001283612,0.000406103,-0.000321094,-0.041680064,-0.044451486,9.778964043
1784240285.974939,-0.004598936,0.004358743,0.054212980,0.000793485,0.001058043,-0.000649230,-0.036242228,-0.038830526,9.797836304
1784240285.976938,-0.004598936,0.004358743,0.054212980,0.000331836,0.001806526,-0.001284055,-0.033202425,-0.048179384,9.783880234
1784240285.978943,-0.004598936,0.004358743,0.054212980,-0.000151924,0.002206174,-0.001224062,-0.040517859,-0.059699409,9.778867722
1784240285.980940,-0.004600175,0.004358723,0.054212976,0.000153655,0.001569714,-0.000769289,-0.051779076,-0.025552580,9.785800934
1784240285.982947,-0.004600175,0.004358723,0.054212976,0.000540525,0.001020712,-0.001485210,-0.070820391,-0.040230554,9.804967880
1784240285.984940,-0.004600058,0.004360264,0.054212984,0.000409412,0.000860098,-0.002150489,-0.030945379,-0.045669809,9.804969788
1784240285.986943,-0.004600058,0.004360264,0.054212984,0.000333443,0.001166672,-0.001296913,-0.005128887,-0.027078219,9.790318489
1784240285.988944,-0.004600058,0.004360264,0.054212984,0.000064876,0.001646841,-0.001089191,-0.006930260,-0.028322795,9.779549599
1784240285.990945,-0.004598506,0.004358534,0.054212976,-0.000514698,0.001377337,-0.002006985,-0.023268819,-0.040925827,9.817111969
1784240285.992949,-0.004598506,0.004358534,0.054212976,-0.000907968,0.000584728,-0.002353931,-0.024784384,-0.055214714,9.812983513
1784240285.994948,-0.004599198,0.004357872,0.054212976,-0.000832356,0.000109751,-0.002334755,-0.051619574,-0.047699206,9.812559128
1784240285.996951,-0.004599198,0.004357872,0.054212976,-0.000159330,0.000150398,-0.001884406,-0.054644603,-0.074202523,9.827628136
1784240285.998955,-0.004599198,0.004357872,0.054212976,0.000581255,-0.000039897,-0.001358589,-0.076223634,-0.079521120,9.795292854
1784240286.000957,-0.004600297,0.004359131,0.054212984,0.000844985,-0.000712318,-0.001502452,-0.054517690,-0.103090443,9.794267654
1784240286.002959,-0.004600297,0.004359131,0.054212984,0.000750458,-0.000859860,-0.001154507,-0.062924720,-0.057162609,9.777517319
1784240286.004956,-0.004600588,0.004359625,0.054212984,0.000775044,-0.000558022,-0.000302895,-0.033795189,-0.021852646,9.800188065
1784240286.006959,-0.004600588,0.004359625,0.054212984,0.000589338,-0.000785588,0.000260524,-0.033087436,-0.000766070,9.794945717
1784240286.008962,-0.004600588,0.004359625,0.054212984,-0.000071590,-0.001054138,0.000741769,-0.036833860,-0.014521017,9.782747269
1784240286.010967,-0.004599545,0.004359362,0.054212987,-0.000498548,-0.001267143,0.000893770,-0.055851515,-0.027391251,9.799683571
1784240286.012966,-0.004599545,0.004359362,0.054212987,-0.000516608,-0.001153494,0.000681532,-0.050097466,-0.072569549,9.778775215
1784240286.014970,-0.004600463,0.004359843,0.054212984,-0.000416568,-0.000569827,0.000836770,-0.071294464,-0.043261960,9.791048050
1784240286.016965,-0.004600463,0.004359843,0.054212984,0.000193944,-0.000530071,0.001219344,-0.044099286,-0.020783156,9.794357300
1784240286.018989,-0.004600463,0.004359843,0.054212984,0.000727427,-0.000733842,0.001135852,-0.028782023,-0.017251860,9.774219513
1784240286.020974,-0.004599018,0.004359307,0.054212984,0.000938912,-0.000626065,0.000697088,-0.025546860,-0.045627512,9.789284706
1784240286.022976,-0.004599018,0.004359307,0.054212984,0.001491460,-0.000549965,0.000071191,-0.045268804,-0.042372361,9.808115959
1784240286.024977,-0.004598457,0.004359331,0.054212984,0.001805626,-0.000348363,-0.000582664,-0.024502836,-0.033134252,9.794745445
1784240286.026974,-0.004598457,0.004359331,0.054212984,0.001479298,0.000290467,-0.001057131,-0.016897580,-0.072216719,9.795397758
1784240286.028978,-0.004598457,0.004359331,0.054212984,0.000693879,0.000450675,-0.000574963,-0.071527906,-0.061720576,9.803931236
1784240286.030989,-0.004599088,0.004360316,0.054212991,-0.000176875,-0.000223241,0.000078293,-0.056628380,-0.054291781,9.803545952
1784240286.032990,-0.004599088,0.004360316,0.054212991,-0.000431606,-0.000840948,0.000012525,-0.038665392,-0.054404106,9.786973000
1784240286.034989,-0.004599540,0.004360102,0.054212991,-0.000123447,-0.000721952,0.000239346,-0.042050391,-0.038558643,9.770035744
1784240286.036989,-0.004599540,0.004360102,0.054212991,0.000036046,0.000084187,0.000607058,-0.022899300,-0.049661856,9.784777641
1784240286.038988,-0.004599540,0.004360102,0.054212991,0.000350329,0.000562316,0.000712172,-0.027066177,-0.061161716,9.771249771
1784240286.040988,-0.004600293,0.004359426,0.054212991,0.000196106,0.000590773,0.000786356,-0.031100627,-0.058647957,9.803092957
1784240286.042994,-0.004600293,0.004359426,0.054212991,-0.000480234,0.000311046,0.000928087,-0.014584723,-0.029244982,9.797021866
1784240286.044994,-0.004599383,0.004357854,0.054212984,-0.000653598,-0.000524267,0.000721445,-0.020217329,-0.050182473,9.790156364
1784240286.046999,-0.004599383,0.004357854,0.054212984,-0.001066171,-0.000877044,0.000463568,-0.049008716,-0.019296542,9.783153534
1784240286.048995,-0.004599383,0.004357854,0.054212984,-0.001306662,-0.000542263,0.000531824,-0.035160694,-0.024014790,9.791654587
1784240286.051000,-0.004598561,0.004357487,0.054212984,-0.000936576,-0.000016824,0.000674243,-0.024941243,-0.033452455,9.777256966
1784240286.053012,-0.004598561,0.004357487,0.054212984,-0.000360990,0.000341666,0.001265743,-0.025079288,-0.044673748,9.780324936
1784240286.055006,-0.004598745,0.004356671,0.054212976,0.000432092,0.000058705,0.001712258,-0.048790365,-0.073705286,9.810153961
1784240286.057006,-0.004598745,0.004356671,0.054212976,0.000899076,-0.000502124,0.001367471,-0.058078453,-0.025205372,9.811351776
1784240286.059004,-0.004598745,0.004356671,0.054212976,0.000753683,-0.000653900,0.001189164,-0.046761468,-0.018079974,9.797061920
1784240286.061005,-0.004597089,0.004356980,0.054212980,0.000686545,-0.000495672,0.001187191,-0.051276330,-0.017431805,9.840102196
1784240286.063007,-0.004597089,0.004356980,0.054212980,0.001013534,-0.000779112,0.000967507,-0.084304243,-0.042669531,9.794178009
1784240286.065010,-0.004596582,0.004358714,0.054212984,0.001069694,-0.001161852,0.000517370,-0.061860550,-0.041673519,9.802724838
1784240286.067010,-0.004596582,0.004358714,0.054212984,0.000753263,-0.000970945,0.000534484,-0.049499046,-0.061261799,9.762709618
1784240286.069011,-0.004596582,0.004358714,0.054212984,0.000795709,-0.000515255,0.001271221,-0.036832552,-0.050884750,9.792826653
1784240286.071024,-0.004596879,0.004359034,0.054212987,0.001116182,-0.000238197,0.001447044,-0.023649218,-0.035112474,9.819391251
1784240286.073020,-0.004596879,0.004359034,0.054212987,0.000684327,0.000277573,0.001449458,-0.036117483,-0.030551011,9.767401695
1784240286.075019,-0.004596187,0.004358757,0.054212984,0.000099054,0.000727557,0.001559512,-0.033542871,-0.002434515,9.778345108
1784240286.077019,-0.004596187,0.004358757,0.054212984,0.000119908,0.000583338,0.001511403,-0.041382972,-0.019816801,9.779570580
1784240286.079025,-0.004596187,0.004358757,0.054212984,-0.000101686,0.000353840,0.001637753,-0.061696675,0.006531158,9.765373230
1784240286.081024,-0.004594742,0.004359876,0.054212991,-0.000482641,-0.000150087,0.001258225,-0.039527748,-0.051279139,9.790130615
1784240286.083029,-0.004594742,0.004359876,0.054212991,-0.000705380,-0.000603905,0.000349534,-0.037220847,-0.085155174,9.761221886
1784240286.085036,-0.004596014,0.004359861,0.054212991,-0.001152299,-0.000517124,-0.000364720,-0.034364339,-0.068898104,9.801230431
1784240286.087027,-0.004596014,0.004359861,0.054212991,-0.001149330,-0.000099456,-0.000557618,-0.045418698,-0.054092482,9.818351746
1784240286.089031,-0.004596014,0.004359861,0.054212991,-0.000655257,0.000559159,-0.000641230,-0.037477970,-0.029431531,9.801482201
1784240286.091031,-0.004596093,0.004359733,0.054212991,-0.000751776,0.000682452,-0.000470179,-0.039183699,-0.021005385,9.816776276
1784240286.093034,-0.004596093,0.004359733,0.054212991,-0.001861993,0.000041973,0.000226367,-0.052455589,-0.043960933,9.792407036
1784240286.095042,-0.004596282,0.004360212,0.054212991,-0.002449965,-0.000172123,0.000266204,-0.076365471,-0.053587675,9.803082466
1784240286.097041,-0.004596282,0.004360212,0.054212991,-0.001495837,0.000291071,-0.000367046,-0.046761125,-0.054856692,9.802206039
1784240286.099064,-0.004596282,0.004360212,0.054212991,-0.000386871,0.000531609,-0.000431105,-0.047790121,-0.028425636,9.804615974
1784240286.101114,-0.004595783,0.004360199,0.054212991,-0.000072477,0.000453530,0.000603143,-0.066734537,-0.037070256,9.794231415
1784240286.103043,-0.004595783,0.004360199,0.054212991,-0.000424018,0.000222697,0.001390793,-0.049334064,-0.046180569,9.783877373
1784240286.105069,-0.004595871,0.004359575,0.054212991,-0.000877876,-0.000028014,0.001097327,-0.018922262,-0.055060521,9.780710220
1784240286.107053,-0.004595871,0.004359575,0.054212991,-0.000752775,0.000091525,0.000705430,0.006799230,-0.043703079,9.775429726
1784240286.109046,-0.004595871,0.004359575,0.054212991,-0.000314840,0.000463298,0.000349866,-0.004325393,-0.035531025,9.780402184
1784240286.111047,-0.004595371,0.004357491,0.054212980,-0.000432095,0.000487731,-0.000055638,-0.041160177,-0.039437450,9.765995026
1784240286.113055,-0.004595371,0.004357491,0.054212980,-0.000755186,0.000221323,-0.000551575,-0.068735644,-0.054886214,9.782906532
1784240286.115059,-0.004595618,0.004359026,0.054212987,-0.000879345,0.000103026,-0.001724592,-0.026334707,-0.036240626,9.793827057
1784240286.117055,-0.004595618,0.004359026,0.054212987,-0.000482931,-0.000079171,-0.002452522,-0.042055972,-0.036576394,9.806363106
1784240286.119053,-0.004595618,0.004359026,0.054212987,0.000218812,-0.000223658,-0.001790801,-0.057733502,-0.034135360,9.806364059
1784240286.121058,-0.004595511,0.004360005,0.054212995,0.000352132,-0.000075286,-0.000910791,-0.033020467,-0.030937832,9.816269875
1784240286.123059,-0.004595511,0.004360005,0.054212995,-0.000002902,0.000002232,-0.000360862,-0.029654745,-0.050582826,9.800455093
1784240286.125066,-0.004596446,0.004360415,0.054212995,-0.000170296,0.000007374,-0.000556094,-0.046136174,-0.039692175,9.810821533
1784240286.127059,-0.004596446,0.004360415,0.054212995,-0.000290722,0.000049980,-0.001167447,-0.049729425,-0.039674792,9.814854622
1784240286.129063,-0.004596446,0.004360415,0.054212995,-0.000488293,-0.000008790,-0.001451020,-0.042580850,-0.042035207,9.818879128
1784240286.131075,-0.004596612,0.004360592,0.054212995,-0.000254160,-0.000129780,-0.001314451,-0.047353491,-0.028526776,9.818066597
1784240286.133067,-0.004596612,0.004360592,0.054212995,0.000402183,-0.000386699,-0.000962404,-0.034007292,-0.040142741,9.789310455
1784240286.135103,-0.004596225,0.004360139,0.054212991,0.000898184,-0.000574609,-0.000615659,-0.047581263,-0.050587781,9.770401001
1784240286.137074,-0.004596225,0.004360139,0.054212991,0.000920797,-0.000328093,-0.000650289,-0.041118063,-0.071426496,9.790897369
1784240286.139075,-0.004596225,0.004360139,0.054212991,0.000794457,-0.000037313,-0.000945902,-0.044442061,-0.049020603,9.796418190
1784240286.141070,-0.004596824,0.004360105,0.054212995,0.000935301,0.000149026,-0.000348693,-0.023819545,-0.051451739,9.786109924
1784240286.143074,-0.004596824,0.004360105,0.054212995,0.001324011,0.000028591,0.000265912,-0.032556124,-0.032846343,9.768735886
1784240286.145075,-0.004596704,0.004359451,0.054212991,0.001352212,-0.000376175,0.000025506,-0.052066896,-0.047277287,9.817044258
1784240286.147084,-0.004596704,0.004359451,0.054212991,0.001049735,-0.000538909,-0.000582648,-0.025004659,-0.040031973,9.757489204
1784240286.149076,-0.004596704,0.004359451,0.054212991,0.000831289,-0.000442596,-0.000843964,-0.044225667,-0.069502197,9.777904510
1784240286.151077,-0.004596980,0.004359224,0.054212991,0.000783811,0.000002022,-0.000652978,-0.051085602,-0.042573880,9.783899307
1784240286.153079,-0.004596980,0.004359224,0.054212991,0.001145951,0.000231536,-0.000495690,-0.052504659,-0.010405792,9.799345970
1784240286.155084,-0.004595413,0.004359898,0.054212995,0.001241291,-0.000104200,-0.000257815,-0.051007681,-0.033043064,9.829690933
1784240286.157090,-0.004595413,0.004359898,0.054212995,0.001185295,-0.000257099,-0.000138369,-0.017643938,-0.059665482,9.795926094
1784240286.159086,-0.004595413,0.004359898,0.054212995,0.001148510,-0.000060771,-0.000338462,-0.062726595,-0.075357072,9.815508842
1784240286.161087,-0.004596662,0.004359874,0.054212991,0.000432227,-0.000056631,-0.000107009,-0.048044905,-0.047052771,9.841259956
1784240286.163087,-0.004596662,0.004359874,0.054212991,-0.000510516,-0.000447162,0.000401724,-0.027206998,0.005611517,9.832651138
1784240286.165096,-0.004595031,0.004359102,0.054212991,-0.000924846,-0.000661383,0.000574586,-0.036313809,-0.043853484,9.811252594
1784240286.167153,-0.004595031,0.004359102,0.054212991,-0.000660284,-0.000388358,0.000180302,-0.054761469,-0.013318820,9.771978378
1784240286.169152,-0.004595031,0.004359102,0.054212991,-0.000306353,-0.000405088,-0.000450859,-0.057982422,-0.018368309,9.794807434
1784240286.171124,-0.004593711,0.004359465,0.054212991,0.000401882,-0.000478674,-0.000495088,-0.048198666,-0.026481774,9.784005165
1784240286.173100,-0.004593711,0.004359465,0.054212991,0.001123670,0.000148361,-0.000342671,-0.028320972,-0.090718828,9.771507263
1784240286.175149,-0.004595414,0.004359002,0.054212991,0.000438148,0.000600655,-0.000305794,-0.020235004,-0.088722415,9.791254044
1784240286.177106,-0.004595414,0.004359002,0.054212991,-0.000718322,0.000413816,-0.000048177,-0.041943651,-0.029205518,9.777716637
1784240286.179105,-0.004595414,0.004359002,0.054212991,-0.001057827,0.000053967,0.000518135,-0.065737650,-0.030622702,9.767821312
1784240286.181106,-0.004594488,0.004359620,0.054212995,-0.000692969,-0.000431213,0.001002625,-0.065174393,-0.058398247,9.766299248
1784240286.183111,-0.004594488,0.004359620,0.054212995,-0.000610326,-0.001086237,0.000956460,-0.082938284,-0.041314282,9.790153503
1784240286.185107,-0.004594803,0.004360565,0.054213002,-0.000979388,-0.001196922,0.000617308,-0.031864364,-0.048260223,9.792847633
1784240286.187105,-0.004594803,0.004360565,0.054213002,-0.001003188,-0.000292011,0.000664949,-0.050610311,-0.039532933,9.796472549
1784240286.189114,-0.004594803,0.004360565,0.054213002,-0.000693951,0.000524129,0.000953773,-0.040240780,-0.034007013,9.819831848
1784240286.191112,-0.004594412,0.004360642,0.054213002,-0.000294119,0.000505820,0.000998575,-0.029807175,-0.063538730,9.795441628
1784240286.193114,-0.004594412,0.004360642,0.054213002,-0.000331023,0.000191472,0.000794341,-0.064206608,-0.088149443,9.789870262
1784240286.195113,-0.004595576,0.004361293,0.054213002,-0.000665710,-0.000122875,0.000427972,-0.064744189,-0.055713426,9.829082489
1784240286.197114,-0.004595576,0.004361293,0.054213002,-0.000800380,-0.000263829,0.000288103,-0.017925080,-0.046989638,9.778074265
1784240286.199118,-0.004595576,0.004361293,0.054213002,-0.000590833,-0.000334053,0.000222983,-0.046817690,-0.023792181,9.781333923
1784240286.201126,-0.004594446,0.004360901,0.054213002,-0.000459098,-0.000619749,0.000300566,-0.053937998,-0.019182429,9.775976181
1784240286.203123,-0.004594446,0.004360901,0.054213002,-0.000903409,-0.000624170,0.000375413,-0.042734079,-0.020244339,9.779119492
1784240286.205125,-0.004593244,0.004361081,0.054213002,-0.001060641,-0.000409653,-0.000146242,-0.052266158,-0.027065592,9.810449600
1784240286.207128,-0.004593244,0.004361081,0.054213002,-0.000653396,-0.000475439,-0.000454463,-0.068011031,-0.032856017,9.770943642
1784240286.209142,-0.004593244,0.004361081,0.054213002,-0.000539053,-0.000647834,-0.000607775,-0.038077664,-0.042775586,9.788841248
1784240286.211146,-0.004592693,0.004361113,0.054213002,-0.000575575,-0.000142380,-0.000680032,-0.032345813,-0.052565563,9.769057274
1784240286.213172,-0.004592693,0.004361113,0.054213002,-0.000022323,0.000415474,-0.000387708,-0.059313916,-0.051773015,9.832252502
1784240286.215150,-0.004592706,0.004361643,0.054213002,0.000300907,0.000033528,-0.000630567,-0.051433537,0.003517200,9.792712212
1784240286.217144,-0.004592706,0.004361643,0.054213002,-0.000459912,-0.000536417,-0.001388354,-0.031084683,-0.021337431,9.785848618
1784240286.219138,-0.004592706,0.004361643,0.054213002,-0.001373734,-0.000680076,-0.001560364,-0.050310068,-0.051652711,9.799084663
1784240286.221142,-0.004592544,0.004361743,0.054213002,-0.001458547,-0.000487442,-0.001285952,-0.068740293,-0.054517739,9.794116974
1784240286.223163,-0.004592544,0.004361743,0.054213002,-0.000942142,-0.000319227,-0.000778091,-0.077260166,-0.051933780,9.824164391
1784240286.225148,-0.004592808,0.004363074,0.054213010,-0.000494910,-0.000218217,0.000043168,-0.048023570,-0.046884250,9.817500114
1784240286.227144,-0.004592808,0.004363074,0.054213010,-0.000422713,-0.000230675,0.000441995,-0.028732724,-0.051210441,9.760999680
1784240286.229181,-0.004592808,0.004363074,0.054213010,-0.000844557,-0.000630839,0.000765706,-0.033085730,-0.074716583,9.798056602
1784240286.231162,-0.004593412,0.004362400,0.054213010,-0.001385511,-0.000811287,0.000911516,-0.031960167,-0.055500738,9.803112030
1784240286.233151,-0.004593412,0.004362400,0.054213010,-0.001051648,-0.000658397,0.000334508,-0.062250841,-0.035533048,9.822042465
1784240286.235184,-0.004593178,0.004363204,0.054213017,-0.000172255,-0.000247670,-0.000119261,-0.073009066,-0.037742600,9.774044991
1784240286.237173,-0.004593178,0.004363204,0.054213017,-0.000000043,0.000235808,-0.000323182,-0.066186629,-0.029403433,9.786211014
1784240286.239159,-0.004593178,0.004363204,0.054213017,-0.000101333,-0.000204602,0.000028939,-0.044371303,-0.044004004,9.783896446
1784240286.241160,-0.004592795,0.004363028,0.054213013,0.000344062,-0.000859115,0.000952337,-0.032683682,-0.041148122,9.802307129
1784240286.243160,-0.004592795,0.004363028,0.054213013,0.000838176,-0.000795007,0.001177011,-0.033759061,-0.054699462,9.819705009
1784240286.245159,-0.004593531,0.004362221,0.054213010,0.000803447,-0.000648741,0.000474125,-0.018360669,-0.047285583,9.757448196
1784240286.247165,-0.004593531,0.004362221,0.054213010,0.000395515,-0.000878165,-0.000347281,-0.016426491,-0.034861058,9.770979881
1784240286.249164,-0.004593531,0.004362221,0.054213010,0.000347659,-0.001320188,-0.000585766,-0.020725114,-0.017511148,9.796195030
1784240286.251163,-0.004592365,0.004361322,0.054213006,0.000658816,-0.001394494,-0.000667311,-0.041724131,-0.045204692,9.821999550
1784240286.253165,-0.004592365,0.004361322,0.054213006,0.000637840,-0.000976979,-0.000886947,-0.034479246,-0.041941557,9.791091919
1784240286.255167,-0.004592251,0.004361012,0.054213006,0.000551562,-0.000546175,-0.001028306,-0.028924104,-0.066094905,9.775251389
1784240286.257172,-0.004592251,0.004361012,0.054213006,0.000651319,-0.000356876,-0.001655222,-0.047225263,-0.059025303,9.759139061
1784240286.259170,-0.004592251,0.004361012,0.054213006,0.000648464,-0.000401362,-0.001589557,-0.042133946,-0.045297146,9.772681236
1784240286.261167,-0.004592464,0.004361016,0.054213006,0.000284189,-0.000361408,-0.000964236,-0.062201649,-0.033118352,9.797399521
1784240286.263176,-0.004592464,0.004361016,0.054213006,-0.000247451,-0.000054353,-0.001337953,-0.028923798,-0.026881626,9.805541039
1784240286.265182,-0.004591912,0.004360595,0.054213002,-0.000469799,0.000365768,-0.001644949,-0.034498408,-0.044524390,9.776280403
1784240286.267177,-0.004591912,0.004360595,0.054213002,-0.000112937,0.000232254,-0.001545285,-0.026534606,-0.053218633,9.787440300
1784240286.269177,-0.004591912,0.004360595,0.054213002,0.000596979,-0.000015072,-0.001274232,-0.037480161,-0.029854057,9.797892570
1784240286.271176,-0.004591479,0.004360437,0.054213002,0.000813338,0.000454751,-0.000875059,-0.043314725,-0.029385407,9.805511475
1784240286.273187,-0.004591479,0.004360437,0.054213002,0.000627424,0.000783159,-0.000657097,-0.021711765,-0.023472585,9.817226410
1784240286.275185,-0.004590994,0.004359860,0.054212995,0.000542154,0.000661433,-0.000428037,-0.043627411,-0.055764243,9.798168182
1784240286.277187,-0.004590994,0.004359860,0.054212995,0.000421055,0.000088743,-0.000480582,-0.049654905,-0.071002841,9.809721947
1784240286.279185,-0.004590994,0.004359860,0.054212995,0.000186098,-0.000454750,-0.000212916,-0.043551285,-0.049489606,9.797760963
1784240286.281260,-0.004591453,0.004359656,0.054212995,-0.000037099,-0.000459448,0.000850660,-0.048256606,-0.030586559,9.794290543
1784240286.283190,-0.004591453,0.004359656,0.054212995,-0.000145477,-0.000551016,0.001227919,-0.011908279,-0.031430252,9.784455299
1784240286.285196,-0.004590982,0.004358467,0.054212991,-0.000350332,-0.000684710,0.000906465,-0.024861317,-0.026742579,9.778645515
1784240286.287193,-0.004590982,0.004358467,0.054212991,-0.000787039,-0.000546897,0.000980024,-0.017292986,-0.030147744,9.802841187
1784240286.289200,-0.004590982,0.004358467,0.054212991,-0.001068542,-0.000340672,0.001323087,-0.054616511,-0.034769833,9.826985359
1784240286.291200,-0.004590654,0.004358678,0.054212991,-0.000840878,-0.000373106,0.001247743,-0.065848507,-0.035550643,9.831005096
1784240286.293201,-0.004590654,0.004358678,0.054212991,-0.000402190,-0.000290462,0.000995311,-0.064691260,-0.052053422,9.818346024
1784240286.295199,-0.004590958,0.004359631,0.054212995,0.000207481,-0.000126275,0.000956871,-0.054746620,-0.047144223,9.803144455
1784240286.297200,-0.004590958,0.004359631,0.054212995,0.000557326,-0.000400635,0.000764057,-0.050669637,-0.044053875,9.802270889
1784240286.299202,-0.004590958,0.004359631,0.054212995,0.000467940,-0.000668678,0.000604616,-0.053010684,-0.052495059,9.796386719
1784240286.301206,-0.004591396,0.004360335,0.054213002,0.000477630,-0.000595870,0.000670595,-0.035934512,-0.051296514,9.786098480
1784240286.303208,-0.004591396,0.004360335,0.054213002,0.000561427,-0.000182345,0.000504169,-0.027377451,-0.011944446,9.781428337
1784240286.305206,-0.004589974,0.004360097,0.054213002,0.000351757,0.000228047,0.000671936,-0.043135386,-0.052996367,9.786081314
1784240286.307208,-0.004589974,0.004360097,0.054213002,-0.000147396,0.000348321,0.001189746,-0.049753133,-0.043509312,9.787033081
1784240286.309217,-0.004589974,0.004360097,0.054213002,-0.000531376,0.000167831,0.001294663,-0.033225894,-0.049580492,9.791940689
1784240286.311213,-0.004589721,0.004360131,0.054213002,-0.000451289,-0.000217087,0.000973113,-0.043462861,-0.081112996,9.771106720
1784240286.313224,-0.004589721,0.004360131,0.054213002,-0.000028196,-0.000248334,0.000560317,-0.008441915,-0.075712875,9.830802917
1784240286.315220,-0.004591453,0.004358555,0.054212995,0.000249213,0.000215435,0.000226158,-0.024560038,-0.074012570,9.809725761
1784240286.317227,-0.004591453,0.004358555,0.054212995,0.000214364,0.000445963,0.000288632,-0.038890243,-0.033989288,9.814901352
1784240286.319221,-0.004591453,0.004358555,0.054212995,0.000252930,-0.000038191,0.000890219,-0.025755489,-0.023868807,9.817220688
1784240286.321220,-0.004590345,0.004358334,0.054212995,0.000604006,-0.000663146,0.001128895,-0.012034805,-0.040129114,9.810851097
1784240286.323225,-0.004590345,0.004358334,0.054212995,0.000665053,-0.000895680,0.000545524,-0.049455065,-0.053214766,9.828216553
1784240286.325228,-0.004591313,0.004358368,0.054212991,0.000462414,-0.000539553,-0.000021335,-0.063442521,-0.060133971,9.818296432
1784240286.327239,-0.004591313,0.004358368,0.054212991,0.000516498,0.000197488,0.000579597,-0.057597011,-0.023736870,9.792980194
1784240286.329231,-0.004591313,0.004358368,0.054212991,0.000969922,0.000637851,0.001360473,-0.053576358,-0.024738587,9.800600052
1784240286.331238,-0.004590691,0.004358641,0.054212991,0.001428855,0.000980023,0.001153430,-0.058269203,-0.040490102,9.818876266
1784240286.333236,-0.004590691,0.004358641,0.054212991,0.001564265,0.001266328,0.001183009,-0.044565670,-0.059317347,9.795454979
1784240286.335237,-0.004591542,0.004358964,0.054212995,0.001279433,0.001084268,0.001003201,-0.043615974,-0.092858545,9.784928322
1784240286.337232,-0.004591542,0.004358964,0.054212995,0.000728108,0.000762005,0.000112435,-0.043615974,-0.092858545,9.784928322
1784240286.339244,-0.004591542,0.004358964,0.054212995,0.000339223,0.000093461,-0.000268099,-0.049330432,-0.046151947,9.779842377
1784240286.341232,-0.004591542,0.004358964,0.054212995,0.000068673,-0.000827345,-0.000276933,-0.049330432,-0.046151947,9.779842377
1784240286.343244,-0.004592082,0.004359145,0.054212995,0.000223427,-0.000728081,-0.000260467,-0.022828126,-0.044642080,9.771808624
1784240286.345243,-0.004592082,0.004359145,0.054212995,0.000688009,0.000114292,-0.000225571,-0.022828126,-0.044642080,9.771808624
1784240286.347248,-0.004592422,0.004358149,0.054212991,0.000699530,0.000605151,-0.000147198,-0.058421932,-0.055069320,9.790088654
1784240286.349250,-0.004592422,0.004358149,0.054212991,0.000381000,0.000839934,-0.000037152,-0.058421932,-0.055069320,9.790088654
1784240286.351246,-0.004593602,0.004358829,0.054212991,0.000364564,0.000830205,-0.000210374,-0.035165589,-0.060832843,9.802627563
1784240286.353251,-0.004592180,0.004358996,0.054212991,0.000328685,0.000265953,-0.000429966,-0.039527390,0.021877207,9.772666931
1784240286.355250,-0.004592180,0.004358996,0.054212991,0.000192294,-0.000218452,-0.000175329,-0.051422164,-0.032767043,9.791583061
1784240286.357261,-0.004592180,0.004358996,0.054212991,0.000061433,-0.000156572,-0.000059775,-0.049169224,-0.069906004,9.780587196
1784240286.359258,-0.004592869,0.004358853,0.054212995,-0.000269382,-0.000232624,-0.000355732,-0.051950045,-0.076244704,9.794890404
1784240286.361256,-0.004592869,0.004358853,0.054212995,-0.000892210,-0.000464455,-0.000482664,-0.047015343,-0.038320895,9.808588028
1784240286.363262,-0.004592238,0.004358297,0.054212991,-0.001669823,-0.000468410,-0.000484470,-0.037218008,-0.044706110,9.806763649
1784240286.365268,-0.004592238,0.004358297,0.054212991,-0.001823929,-0.000677050,0.000055278,-0.040249705,-0.036103733,9.799642563
1784240286.367270,-0.004592238,0.004358297,0.054212991,-0.001595069,-0.001048821,0.000465848,-0.025925944,-0.041424770,9.765996933
1784240286.369269,-0.004592185,0.004357499,0.054212984,-0.001044258,-0.001102492,-0.000099723,-0.027267726,-0.039752401,9.785284042
1784240286.371273,-0.004592185,0.004357499,0.054212984,0.000156069,-0.000878557,-0.000779777,-0.049721487,-0.040827904,9.787946701
1784240286.373271,-0.004592200,0.004358035,0.054212987,0.001196389,-0.000306551,-0.000731094,-0.047089107,-0.043766379,9.818417549
1784240286.375271,-0.004592200,0.004358035,0.054212987,0.001392055,0.000111784,0.000025560,-0.044217315,-0.030225316,9.799228668
1784240286.377272,-0.004592200,0.004358035,0.054212987,0.001275832,-0.000102650,0.000573470,-0.036809124,-0.048673563,9.796875000
1784240286.379273,-0.004591730,0.004357565,0.054212984,0.000825573,-0.000702687,0.000608527,-0.043775238,-0.068278536,9.794053078
1784240286.381273,-0.004591730,0.004357565,0.054212984,0.000353775,-0.001083596,0.000525840,-0.064332440,-0.060468685,9.803946495
1784240286.383299,-0.004592327,0.004358374,0.054212987,0.000011679,-0.001251999,0.000285695,-0.032182515,-0.074276954,9.797611237
1784240286.385300,-0.004592327,0.004358374,0.054212987,-0.000850669,-0.001329081,-0.000377367,-0.051397700,-0.030952938,9.788456917
1784240286.387306,-0.004592327,0.004358374,0.054212987,-0.001601517,-0.000971368,-0.000623616,-0.044999972,-0.019987030,9.810053825
1784240286.389289,-0.004590735,0.004359106,0.054212995,-0.001624117,-0.000576202,-0.000187661,-0.049656112,-0.033422425,9.817584038
1784240286.391322,-0.004590735,0.004359106,0.054212995,-0.001245565,-0.000544576,0.000129127,-0.060680505,-0.020811722,9.765199661
1784240286.393298,-0.004590181,0.004359967,0.054212995,-0.001095807,-0.000501293,0.000215402,-0.024291150,-0.052437309,9.799552917
1784240286.395294,-0.004590181,0.004359967,0.054212995,-0.000906917,0.000126008,-0.000151545,-0.047209550,-0.056064457,9.783816338
1784240286.397289,-0.004590181,0.004359967,0.054212995,-0.000570330,0.000528618,-0.000707677,-0.048211962,-0.064176671,9.792282104
1784240286.399296,-0.004591092,0.004360065,0.054212995,-0.000442143,0.000136330,-0.000647473,-0.045921676,-0.096562944,9.805973053
1784240286.401298,-0.004591092,0.004360065,0.054212995,-0.000799705,-0.000001920,-0.000386887,-0.020899244,-0.034285653,9.761116028
1784240286.403293,-0.004589857,0.004358192,0.054212987,-0.001236818,0.000224915,-0.000466286,-0.022277791,-0.034119334,9.803258896
1784240286.405291,-0.004589857,0.004358192,0.054212987,-0.000636236,0.000092487,-0.000560429,-0.064917170,-0.036915191,9.769126892
1784240286.407294,-0.004589857,0.004358192,0.054212987,0.000234577,0.000024795,-0.000212971,-0.028349791,-0.055788010,9.773972511
1784240286.409296,-0.004589604,0.004357710,0.054212987,0.000219614,0.000161369,0.000220670,-0.019055180,-0.064620316,9.802169800
1784240286.411301,-0.004589604,0.004357710,0.054212987,-0.000169673,0.000355712,0.000410138,-0.029019091,-0.035739090,9.791137695
1784240286.413302,-0.004589300,0.004356722,0.054212980,-0.000467986,0.000768542,0.000369133,-0.046191875,-0.044184502,9.812586784
1784240286.415298,-0.004589300,0.004356722,0.054212980,-0.000523410,0.000890424,-0.000130824,-0.037686735,-0.046479486,9.804957390
