time_sec,roll_rad,pitch_rad,yaw_rad,gyro_x,gyro_y,gyro_z,acc_x,acc_y,acc_z
1784241266.522122,-0.005209885,0.001366534,-0.060623057,-0.000008993,-0.001820132,-0.001240950,-0.041256092,-0.045057815,9.800480843
1784241266.523980,-0.005204959,0.001366448,-0.060623426,0.000891271,-0.001932188,-0.001226231,-0.036014486,-0.057196319,9.796821594
1784241266.525996,-0.005206764,0.001369268,-0.060623769,0.000903589,-0.001270573,-0.000941612,0.008268187,-0.068993136,9.800823212
1784241266.527950,-0.005204168,0.001375308,-0.060626756,0.000754766,-0.000371804,-0.000912717,-0.011802959,-0.018846380,9.841924667
1784241266.529963,-0.005203998,0.001378985,-0.060626302,0.000737787,0.000389617,-0.000836773,0.003542485,-0.052682474,9.783885956
1784241266.531944,-0.005202807,0.001381001,-0.060628790,0.000596436,0.000729483,-0.000746746,-0.005077509,-0.058994137,9.804910660
1784241266.533941,-0.005199176,0.001384114,-0.060632586,0.000728800,0.000940306,-0.000969822,0.009020193,-0.043909881,9.800536156
1784241266.535954,-0.005195657,0.001385130,-0.060634539,0.001005737,0.001073722,-0.001096053,0.014980936,-0.071246043,9.790503502
1784241266.537955,-0.005194446,0.001386148,-0.060638081,0.001043166,0.001028580,-0.001171013,-0.073764354,-0.062041223,9.790028572
1784241266.539943,-0.005194881,0.001383989,-0.060629416,0.000812076,0.000670069,-0.000505773,-0.050928123,-0.067573249,9.770738602
1784241266.541947,-0.005193101,0.001385240,-0.060617805,0.000783938,0.000221086,0.001006977,-0.016309572,-0.061801709,9.778877258
1784241266.543939,-0.005195338,0.001387622,-0.060622938,0.000642457,0.000207053,0.001171857,0.009289701,-0.025571730,9.741475105
1784241266.545948,-0.005202638,0.001389360,-0.060625434,-0.000287033,0.000481594,0.000335498,-0.002208357,-0.045068707,9.794689178
1784241266.547940,-0.005210209,0.001391794,-0.060624186,-0.001326785,0.000682849,0.000158894,-0.026508933,-0.048558146,9.825130463
1784241266.549942,-0.005213524,0.001393125,-0.060627732,-0.001705174,0.000753819,-0.000041787,-0.018057019,-0.056136459,9.804467201
1784241266.551930,-0.005214863,0.001392608,-0.060630500,-0.001529947,0.000640325,-0.000458962,-0.001029002,-0.057749689,9.811645508
1784241266.554020,-0.005215559,0.001389933,-0.060633536,-0.001224513,0.000285520,-0.000728000,0.005689680,-0.058334760,9.818821907
1784241266.555958,-0.005219065,0.001387035,-0.060632579,-0.001202853,-0.000098330,-0.000672283,0.001485480,-0.034160502,9.829284668
1784241266.557953,-0.005216266,0.001387503,-0.060633741,-0.000950007,-0.000165302,-0.000503770,-0.002833585,-0.021429732,9.810979843
1784241266.559952,-0.005209499,0.001385540,-0.060633320,-0.000042551,-0.000221668,-0.000416007,-0.001486979,-0.060653914,9.779796600
1784241266.561958,-0.005215589,0.001384030,-0.060631298,0.000055981,-0.000401985,-0.000137120,-0.003927896,-0.037967358,9.807287216
1784241266.563958,-0.005215435,0.001386643,-0.060627654,-0.000321430,-0.000223844,0.000283678,-0.030302947,-0.067551911,9.793622017
1784241266.566053,-0.005212013,0.001388436,-0.060620040,0.000019949,0.000130951,0.000971547,0.007400645,-0.066719577,9.797698975
1784241266.568009,-0.005209211,0.001389432,-0.060617737,0.000448481,0.000280034,0.001382069,-0.031440523,-0.050083250,9.796422958
1784241266.569977,-0.005206967,0.001387784,-0.060619157,0.000669208,0.000159399,0.001065946,-0.011069870,-0.075576246,9.753239632
1784241266.572018,-0.005212650,0.001387901,-0.060620859,0.000305185,-0.000029158,0.000563481,0.001980314,-0.068960339,9.807541847
1784241266.573978,-0.005216240,0.001388702,-0.060621481,-0.000356122,-0.000000588,0.000251892,-0.016610332,-0.048064973,9.800932884
1784241266.575978,-0.005217261,0.001386902,-0.060615472,-0.000587001,-0.000075685,0.000548269,-0.019662514,-0.040434822,9.804565430
1784241266.577985,-0.005213992,0.001382580,-0.060604416,-0.000290745,-0.000482256,0.001557234,-0.017516417,-0.047716800,9.816625595
1784241266.579974,-0.005208801,0.001383019,-0.060601585,0.000361253,-0.000619820,0.002077209,-0.017928293,-0.044178233,9.823822975
1784241266.581971,-0.005209862,0.001384355,-0.060605939,0.000553375,-0.000350581,0.001410610,-0.003189875,-0.049368665,9.834114075
1784241266.583973,-0.005211068,0.001384070,-0.060606305,0.000259366,-0.000202433,0.000707421,-0.014322393,-0.043690417,9.811723709
1784241266.585981,-0.005207565,0.001380189,-0.060606953,0.000276488,-0.000386540,0.000446620,0.011065369,-0.022503883,9.810987473
1784241266.587983,-0.005208571,0.001373800,-0.060604695,0.000302123,-0.000935891,0.000434856,-0.021358756,-0.032338988,9.803271294
1784241266.590065,-0.005205839,0.001368956,-0.060596045,0.000336189,-0.001448122,0.001057499,0.001742953,-0.054317776,9.765044212
1784241266.592003,-0.005200618,0.001369067,-0.060590822,0.000763536,-0.001340857,0.001712974,0.020193204,-0.084426731,9.807459831
1784241266.593994,-0.005201556,0.001369042,-0.060588796,0.000826338,-0.000933283,0.001740626,-0.026895437,-0.044819266,9.804081917
1784241266.595989,-0.005204117,0.001371023,-0.060586758,0.000330814,-0.000575207,0.001543629,-0.012300821,-0.062492196,9.805776596
1784241266.597990,-0.005202149,0.001369109,-0.060582880,0.000167035,-0.000443249,0.001526077,-0.004579376,-0.054151803,9.816149712
1784241266.599993,-0.005196160,0.001369010,-0.060582180,0.000661468,-0.000461178,0.001423371,0.011798131,-0.074373327,9.794963837
1784241266.601988,-0.005197727,0.001367619,-0.060580689,0.000860503,-0.000363510,0.001186445,0.013429020,-0.049447846,9.815299988
1784241266.603987,-0.005196875,0.001360680,-0.060578700,0.000656705,-0.000757133,0.001100963,-0.012278957,-0.061103795,9.799509048
1784241266.606002,-0.005195515,0.001362453,-0.060575325,0.000672599,-0.000866437,0.001166302,-0.007557282,-0.077446267,9.820929527
1784241266.608000,-0.005194826,0.001364537,-0.060579136,0.000673682,-0.000331544,0.000820169,-0.003441788,-0.034030486,9.819866180
1784241266.609992,-0.005196547,0.001365584,-0.060580820,0.000421210,-0.000027043,0.000224153,0.014734782,-0.054646663,9.787919998
1784241266.611990,-0.005199263,0.001368030,-0.060574524,0.000038519,0.000354712,0.000476506,-0.004875365,-0.042403672,9.802774429
1784241266.613999,-0.005209979,0.001375533,-0.060570594,-0.000851198,0.001069061,0.001040890,0.000224107,-0.067822032,9.776612282
1784241266.615992,-0.005221763,0.001383523,-0.060573038,-0.002091608,0.001869483,0.000856947,-0.004615746,-0.058491513,9.796395302
1784241266.618001,-0.005217619,0.001385562,-0.060568608,-0.001986778,0.002081502,0.000758585,-0.006335168,-0.050173465,9.826931953
1784241266.619996,-0.005209837,0.001379604,-0.060560759,-0.000638999,0.001245974,0.001387454,-0.008958217,-0.045135085,9.816202164
1784241266.622002,-0.005210746,0.001376025,-0.060558215,0.000014017,0.000299635,0.001716813,-0.008663666,-0.021736179,9.801558495
1784241266.624006,-0.005209795,0.001378102,-0.060557775,0.000026733,0.000158305,0.001453614,0.014237802,-0.058669381,9.787445068
1784241266.626015,-0.005208101,0.001374967,-0.060552038,0.000234933,0.000105871,0.001479096,0.001738990,-0.052322797,9.799578667
1784241266.628004,-0.005206632,0.001374923,-0.060558245,0.000422289,-0.000073938,0.001045632,-0.004203298,-0.061620265,9.794581413
1784241266.630007,-0.005214182,0.001378950,-0.060560454,-0.000104373,0.000219526,0.000189614,-0.000433855,-0.045657307,9.811275482
1784241266.632013,-0.005222868,0.001380221,-0.060560010,-0.001211909,0.000474348,0.000016389,0.021982267,-0.048120979,9.802314758
1784241266.634007,-0.005223814,0.001379137,-0.060560655,-0.001570719,0.000312504,-0.000002718,0.012362904,-0.028172923,9.786742210
1784241266.636024,-0.005217692,0.001377995,-0.060556229,-0.000947456,0.000129405,0.000255183,-0.002034518,-0.029917516,9.805996895
1784241266.638029,-0.005217018,0.001378489,-0.060561381,-0.000383031,0.000104705,0.000136961,-0.008046548,-0.044628672,9.806344032
1784241266.640045,-0.005216038,0.001382955,-0.060563579,-0.000166132,0.000415560,-0.000398935,-0.016523734,-0.041707665,9.788869858
1784241266.642048,-0.005210981,0.001389531,-0.060568161,0.000303623,0.001052412,-0.000750443,-0.019910170,-0.025468299,9.779555321
1784241266.644022,-0.005209227,0.001391867,-0.060569309,0.000698338,0.001371351,-0.000935031,-0.011386102,-0.062366966,9.786499977
1784241266.646025,-0.005205068,0.001387206,-0.060573161,0.000941213,0.000829878,-0.001019728,0.004347023,-0.058695517,9.808954239
1784241266.648038,-0.005207363,0.001384285,-0.060578067,0.000843664,0.000079946,-0.001336570,0.001057247,-0.036019366,9.776371002
1784241266.650023,-0.005208562,0.001384529,-0.060577370,0.000377821,-0.000122012,-0.001259215,0.015403064,-0.036708526,9.784449577
1784241266.652037,-0.005203035,0.001384405,-0.060579598,0.000456970,0.000013231,-0.001020106,-0.007436101,-0.032415468,9.788938522
1784241266.654029,-0.005208454,0.001387884,-0.060586851,0.000229002,0.000334144,-0.001386687,-0.011630582,-0.043728091,9.812174797
1784241266.656034,-0.005202329,0.001386763,-0.060590420,0.000151594,0.000387532,-0.001744860,-0.002331662,-0.053742122,9.817499161
1784241266.658032,-0.005201194,0.001381937,-0.060582560,0.000538668,-0.000142641,-0.000979299,-0.023024740,-0.059567872,9.791887283
1784241266.660028,-0.005201613,0.001380318,-0.060583204,0.000440310,-0.000543983,-0.000223714,-0.023326246,-0.046647567,9.802728653
1784241266.662030,-0.005200678,0.001381847,-0.060589146,0.000357318,-0.000416496,-0.000609651,-0.020626318,-0.009841757,9.788621902
1784241266.664031,-0.005195268,0.001377513,-0.060590602,0.000692786,-0.000507552,-0.000945353,0.014806665,-0.010410411,9.804791451
1784241266.666041,-0.005191266,0.001375351,-0.060587518,0.001006843,-0.000686396,-0.000576664,0.011919849,-0.025285821,9.822627068
1784241266.668038,-0.005187900,0.001379257,-0.060585193,0.001096432,-0.000258757,-0.000052464,-0.027511237,-0.058290508,9.809374809
1784241266.670037,-0.005186638,0.001385047,-0.060588717,0.001113028,0.000470048,-0.000119638,-0.007935210,-0.037670787,9.772764206
1784241266.672034,-0.005189218,0.001387189,-0.060595453,0.000637283,0.000902002,-0.000783662,0.000896993,-0.049442295,9.774042130
1784241266.674041,-0.005189367,0.001386095,-0.060594231,0.000194462,0.000747743,-0.000945229,-0.009939238,-0.053888850,9.788797379
1784241266.676041,-0.005180636,0.001392585,-0.060596157,0.000705273,0.000858378,-0.000735430,-0.014325778,-0.006532517,9.815998077
1784241266.678045,-0.005171429,0.001394049,-0.060601827,0.001713248,0.001114988,-0.001049950,-0.003121586,-0.046397906,9.794231415
1784241266.680042,-0.005170530,0.001390303,-0.060612053,0.001935654,0.000662905,-0.001843054,0.000578682,-0.073028810,9.815136909
1784241266.682046,-0.005170963,0.001385646,-0.060621750,0.001515693,-0.000036480,-0.002694585,-0.002499047,-0.066005602,9.841182709
1784241266.684046,-0.005175098,0.001385130,-0.060624775,0.000867416,-0.000329282,-0.002826855,-0.017421242,-0.040076021,9.813089371
1784241266.686059,-0.005174360,0.001386245,-0.060623005,0.000361026,-0.000186992,-0.002145057,0.002513503,-0.023414575,9.828459740
1784241266.688055,-0.005174492,0.001386217,-0.060627628,0.000263966,-0.000049605,-0.001756065,-0.036492482,-0.059042830,9.805328369
1784241266.690061,-0.005178868,0.001387564,-0.060635962,-0.000112439,0.000057983,-0.002159102,-0.018036764,-0.054760784,9.799992561
1784241266.692053,-0.005182324,0.001391053,-0.060638178,-0.000602040,0.000317679,-0.002289575,-0.001113465,-0.028121270,9.803766251
1784241266.694056,-0.005183246,0.001392879,-0.060631618,-0.000725719,0.000534152,-0.001373200,-0.002450325,-0.065620854,9.786936760
1784241266.696059,-0.005186287,0.001390926,-0.060622424,-0.000766372,0.000416570,0.000069142,0.010719533,-0.053196982,9.780302048
1784241266.698057,-0.005186458,0.001387976,-0.060620140,-0.000744563,0.000008143,0.000829328,0.005914940,-0.043993272,9.754802704
1784241266.700060,-0.005181703,0.001396905,-0.060618594,-0.000231672,0.000410428,0.000864301,-0.005295932,-0.041365281,9.783501625
1784241266.702065,-0.005180416,0.001406384,-0.060619973,0.000224247,0.001568112,0.000642002,-0.022274693,-0.035310593,9.781730652
1784241266.704066,-0.005185639,0.001404020,-0.060619816,-0.000120722,0.001645361,0.000384455,-0.023241945,-0.039092641,9.811297417
1784241266.706063,-0.005194889,0.001400381,-0.060617283,-0.001069831,0.000771542,0.000461322,-0.021818610,0.003547554,9.798121452
1784241266.708064,-0.005195544,0.001401942,-0.060614180,-0.001451452,0.000400405,0.000717860,-0.019092575,-0.030972980,9.796109200
1784241266.710065,-0.005191408,0.001403187,-0.060610808,-0.000821723,0.000479899,0.000962292,-0.016976917,-0.040926818,9.805910110
1784241266.712072,-0.005188352,0.001406792,-0.060615946,-0.000143700,0.000628873,0.000581607,0.010532311,-0.029242983,9.814529419
1784241266.714240,-0.005184263,0.001402743,-0.060622975,0.000348028,0.000381756,-0.000401723,0.002036067,-0.065278083,9.793668747
1784241266.716465,-0.005186104,0.001398192,-0.060622837,0.000392766,-0.000283079,-0.000760231,-0.011046144,-0.034151778,9.787577629
1784241266.718119,-0.005192408,0.001394249,-0.060623761,-0.000280736,-0.000762336,-0.000607303,0.006766201,-0.046800654,9.770030022
1784241266.720097,-0.005191527,0.001389438,-0.060628410,-0.000572110,-0.001147625,-0.000820714,-0.001226663,-0.075115234,9.796739578
1784241266.722126,-0.005186339,0.001391223,-0.060638070,0.000017229,-0.001001314,-0.001568239,-0.012905009,-0.077897988,9.768016815
1784241266.724105,-0.005191772,0.001393638,-0.060642403,0.000017872,-0.000404238,-0.002092699,-0.037135731,-0.074757054,9.811054230
1784241266.726106,-0.005194722,0.001392756,-0.060641974,-0.000510535,-0.000237765,-0.001791130,-0.000696772,-0.069211639,9.784672737
1784241266.728095,-0.005198066,0.001392223,-0.060636222,-0.000754633,-0.000320207,-0.000886383,0.000586736,-0.038212083,9.770525932
1784241266.730100,-0.005198467,0.001392983,-0.060630202,-0.000805058,-0.000221971,0.000152888,-0.002579896,-0.039185409,9.787106514
1784241266.732106,-0.005197976,0.001389735,-0.060632709,-0.000661601,-0.000328910,0.000349672,0.000846702,-0.053486660,9.775809288
1784241266.734097,-0.005195473,0.001387817,-0.060630161,-0.000359607,-0.000587497,0.000257660,0.001813791,-0.047274400,9.782573700
1784241266.736125,-0.005185231,0.001385370,-0.060622822,0.000582934,-0.000697765,0.000860131,-0.023133431,-0.032157008,9.780854225
1784241266.738108,-0.005180029,0.001386603,-0.060620256,0.001452698,-0.000564078,0.001300508,0.007916322,-0.062143967,9.783381462
1784241266.740104,-0.005180389,0.001390814,-0.060617141,0.001386397,-0.000043390,0.001333736,0.009565103,-0.036671948,9.789823532
1784241266.742103,-0.005172493,0.001390345,-0.060618576,0.001392597,0.000300999,0.001087056,0.004979335,-0.079847045,9.820924759
1784241266.744100,-0.005169992,0.001388161,-0.060616031,0.001591395,0.000118029,0.000869141,-0.020394551,-0.062928878,9.818767548
1784241266.746106,-0.005171789,0.001392887,-0.060611051,0.001231683,0.000239510,0.001144253,-0.005127679,-0.027068682,9.788974762
1784241266.748113,-0.005174329,0.001392875,-0.060605828,0.000627255,0.000474586,0.001525460,-0.018606074,-0.064622894,9.801721573
1784241266.750107,-0.005178231,0.001389699,-0.060602762,0.000018871,0.000126448,0.001673642,-0.041062593,-0.066530719,9.795411110
1784241266.752109,-0.005188048,0.001390213,-0.060602318,-0.000858037,-0.000174496,0.001455705,-0.011276432,-0.054611724,9.766822815
1784241266.754110,-0.005192979,0.001390231,-0.060601085,-0.001566529,-0.000176214,0.001171679,0.017879616,-0.053034965,9.807659149
1784241266.756111,-0.005194248,0.001384057,-0.060596172,-0.001579905,-0.000436758,0.001271004,-0.016408585,-0.031477690,9.799247742
1784241266.758111,-0.005190125,0.001383452,-0.060600262,-0.000974473,-0.000666980,0.000983078,-0.027948720,-0.057385657,9.808933258
1784241266.760112,-0.005181164,0.001386774,-0.060604591,0.000179039,-0.000298526,0.000145632,-0.025380109,-0.067716897,9.807971954
1784241266.762156,-0.005178011,0.001387389,-0.060597766,0.000999696,-0.000016437,0.000275731,-0.023079513,-0.062837154,9.810694695
1784241266.764125,-0.005179780,0.001384193,-0.060597889,0.000868794,-0.000254832,0.000655704,-0.025787499,-0.064953431,9.798127174
1784241266.766127,-0.005180983,0.001383685,-0.060603838,0.000503937,-0.000456280,0.000065441,-0.001169862,-0.034240108,9.782207489
1784241266.768125,-0.005179539,0.001382306,-0.060600225,0.000455852,-0.000480935,-0.000110808,0.020742325,-0.039160416,9.804613113
1784241266.770123,-0.005172522,0.001378751,-0.060601406,0.000906232,-0.000686115,0.000085458,0.024060635,-0.060800754,9.817479134
1784241266.772121,-0.005175682,0.001379339,-0.060605489,0.000967518,-0.000541513,-0.000293853,0.001774535,-0.088416263,9.771551132
1784241266.774123,-0.005181157,0.001378041,-0.060608529,0.000164299,-0.000282262,-0.000697030,-0.015351006,-0.092436112,9.800650597
1784241266.776125,-0.005181719,0.001380579,-0.060608085,-0.000168856,-0.000133997,-0.000683684,0.000595942,-0.072082005,9.807970047
1784241266.778125,-0.005184225,0.001384274,-0.060596198,-0.000211411,0.000307641,0.000339116,-0.012421029,-0.072356880,9.807058334
1784241266.780126,-0.005182496,0.001384748,-0.060591772,-0.000208270,0.000501346,0.001354333,-0.008056439,-0.044301536,9.823382378
1784241266.782135,-0.005179416,0.001389480,-0.060593966,0.000140803,0.000734582,0.001138226,-0.008443348,-0.040565837,9.802783012
1784241266.784131,-0.005187531,0.001391119,-0.060588464,-0.000273231,0.000983252,0.001052379,-0.009591335,-0.023989927,9.805130005
1784241266.786134,-0.005188350,0.001383664,-0.060581952,-0.000874519,0.000336021,0.001580459,0.016594673,-0.048887502,9.793786049
1784241266.788134,-0.005183746,0.001378543,-0.060582343,-0.000448662,-0.000592341,0.001566847,-0.000863057,-0.045092311,9.795588493
1784241266.790146,-0.005183070,0.001380089,-0.060577907,0.000031066,-0.000675611,0.001416089,0.001377748,-0.046763457,9.774507523
1784241266.792138,-0.005180301,0.001379343,-0.060571097,0.000220555,-0.000377552,0.001795407,-0.015185800,-0.043005202,9.779895782
1784241266.794143,-0.005180466,0.001377710,-0.060560290,0.000300976,-0.000378445,0.002503673,0.004549342,-0.041698441,9.812650681
1784241266.796142,-0.005180765,0.001382341,-0.060556114,0.000164828,-0.000033904,0.002840734,-0.013347773,-0.038634446,9.792030334
1784241266.798143,-0.005180313,0.001387867,-0.060551930,0.000108153,0.000705377,0.002637771,0.001294717,-0.052282076,9.794647217
1784241266.800148,-0.005179933,0.001387027,-0.060544584,0.000134179,0.000827900,0.002704326,-0.026699519,-0.066273093,9.796322823
1784241266.802148,-0.005178350,0.001387688,-0.060541485,0.000239420,0.000520688,0.002678532,0.003539667,-0.052704725,9.787024498
1784241266.804147,-0.005180404,0.001382114,-0.060548276,0.000152165,-0.000019465,0.001700972,0.001244319,-0.054706294,9.820633888
1784241266.806153,-0.005176794,0.001377445,-0.060549721,0.000267208,-0.000682993,0.000680728,-0.017900908,-0.043962020,9.793335915
1784241266.808157,-0.005177218,0.001376348,-0.060541581,0.000460374,-0.000867758,0.000950230,-0.002385067,-0.059432074,9.798632622
1784241266.810154,-0.005176342,0.001371530,-0.060540374,0.000365237,-0.001036919,0.001326510,0.007945030,-0.060701516,9.769494057
1784241266.812152,-0.005178990,0.001367846,-0.060541298,0.000169878,-0.001245026,0.000986192,-0.004113358,-0.054020829,9.796872139
1784241266.814178,-0.005186590,0.001367364,-0.060541920,-0.000547555,-0.001101666,0.000612640,-0.028893476,-0.060179569,9.825503349
1784241266.816209,-0.005193957,0.001367325,-0.060539894,-0.001376854,-0.000887146,0.000539208,-0.010852294,-0.054811429,9.794170380
1784241266.818164,-0.005198631,0.001367597,-0.060528550,-0.001783487,-0.000683982,0.001298619,-0.005797048,-0.043799650,9.811730385
1784241266.820158,-0.005197150,0.001369140,-0.060529981,-0.001516936,-0.000378616,0.001618940,-0.014547838,-0.026522236,9.792105675
1784241266.822163,-0.005188592,0.001367841,-0.060539920,-0.000452255,-0.000228689,0.000409125,0.002347600,-0.039718866,9.790245056
1784241266.824162,-0.005185808,0.001366720,-0.060542691,0.000412019,-0.000299863,-0.000563336,0.033755898,-0.074070722,9.838923454
1784241266.826173,-0.005188665,0.001360103,-0.060539901,0.000367884,-0.000601750,-0.000407740,-0.000495084,-0.051814295,9.795095444
1784241266.828166,-0.005184249,0.001362671,-0.060537055,0.000446025,-0.000573198,0.000086257,-0.020986412,-0.038215928,9.809958458
1784241266.830166,-0.005176838,0.001369989,-0.060544562,0.001128113,0.000255143,-0.000252399,-0.023871157,-0.053885508,9.813442230
1784241266.832167,-0.005176197,0.001370560,-0.060548369,0.001443544,0.000701311,-0.000951566,0.004977682,-0.006706596,9.805702209
1784241266.834176,-0.005177720,0.001366292,-0.060539730,0.001065488,0.000234177,-0.000365121,-0.000861379,-0.043052822,9.823845863
1784241266.836183,-0.005179227,0.001364435,-0.060540631,0.000535321,-0.000212591,0.000259670,-0.033809297,-0.059553899,9.809361458
1784241266.838180,-0.005181426,0.001369739,-0.060551874,0.000105136,0.000118690,-0.000635473,-0.013727203,-0.069998078,9.792726517
1784241266.840177,-0.005180460,0.001372617,-0.060557801,-0.000005433,0.000647928,-0.001628633,0.005256855,-0.057798378,9.807168007
1784241266.842176,-0.005174355,0.001369938,-0.060558438,0.000485363,0.000518906,-0.001632027,0.006529305,-0.064881258,9.792778015
1784241266.844183,-0.005181450,0.001366537,-0.060561754,0.000295409,-0.000002269,-0.001457231,0.003344781,-0.066401109,9.823252678
1784241266.846185,-0.005194364,0.001362057,-0.060565338,-0.001073446,-0.000511448,-0.001531140,-0.025245288,-0.056521051,9.808492661
1784241266.848183,-0.005195567,0.001361773,-0.060567293,-0.001670776,-0.000671255,-0.001492912,-0.028263191,-0.084183827,9.797552109
1784241266.850185,-0.005190110,0.001361156,-0.060573518,-0.000927606,-0.000547281,-0.001642369,-0.006203415,-0.079023242,9.788191795
1784241266.852185,-0.005188072,0.001358185,-0.060582139,-0.000025882,-0.000674077,-0.002203180,0.022085361,-0.079223275,9.765353203
1784241266.854191,-0.005187972,0.001354973,-0.060586508,0.000267174,-0.000943289,-0.002486925,-0.007846146,-0.066857599,9.781542778
1784241266.856190,-0.005188913,0.001360259,-0.060589235,0.000142438,-0.000562221,-0.002293813,0.003858674,-0.027491722,9.769252777
1784241266.858187,-0.005186589,0.001365246,-0.060597554,0.000202899,0.000273386,-0.002420560,-0.019705731,-0.044828586,9.792432785
1784241266.860187,-0.005188538,0.001369744,-0.060600556,0.000174280,0.000847013,-0.002531257,-0.006453027,-0.062045842,9.795474052
1784241266.862192,-0.005189976,0.001368914,-0.060600922,-0.000122765,0.000922567,-0.002072690,-0.020049488,-0.073479012,9.789559364
1784241266.864188,-0.005190692,0.001364382,-0.060602639,-0.000255608,0.000364180,-0.001651655,0.009622464,-0.067730099,9.809798241
1784241266.866197,-0.005191798,0.001360155,-0.060606223,-0.000263804,-0.000258217,-0.001562617,0.003552899,-0.051789731,9.784340858
1784241266.868205,-0.005194299,0.001363067,-0.060607903,-0.000390872,-0.000206343,-0.001495132,-0.015785713,-0.053108975,9.815698624
1784241266.870221,-0.005192270,0.001365932,-0.060611978,-0.000316155,0.000243844,-0.001479510,0.007312100,-0.036312886,9.806411743
1784241266.872225,-0.005185393,0.001363801,-0.060607836,0.000349288,0.000310789,-0.001071472,0.013590710,-0.036418810,9.810004234
1784241266.874209,-0.005196406,0.001368390,-0.060603641,-0.000052007,0.000473676,-0.000215388,-0.008392358,-0.034894962,9.824338913
1784241266.876209,-0.005205581,0.001371594,-0.060600542,-0.001444282,0.000856629,0.000335779,-0.025444614,-0.038336128,9.771845818
1784241266.878207,-0.005208902,0.001372132,-0.060606491,-0.001935514,0.000864184,0.000050648,-0.018119266,-0.024306396,9.801980019
1784241266.880206,-0.005207438,0.001372084,-0.060607918,-0.001535444,0.000665406,-0.000463882,0.003959726,-0.017373031,9.795322418
1784241266.882219,-0.005203487,0.001371361,-0.060613070,-0.000845993,0.000551972,-0.000783749,-0.017246896,-0.026541799,9.799726486
1784241266.884213,-0.005204462,0.001367890,-0.060612131,-0.000509373,0.000236137,-0.000855864,-0.031866267,-0.049896274,9.770869255
1784241266.886216,-0.005199897,0.001369106,-0.060606912,-0.000122378,-0.000107785,-0.000204788,-0.027090922,-0.064599141,9.750604630
1784241266.888219,-0.005197625,0.001369584,-0.060613912,0.000380722,-0.000087405,-0.000270180,-0.001401708,-0.090275973,9.786779404
1784241266.890222,-0.005201503,0.001369056,-0.060607098,0.000168427,-0.000066981,-0.000210395,-0.018138675,-0.064075753,9.786931038
1784241266.892263,-0.005204381,0.001369305,-0.060609326,-0.000312633,-0.000068575,0.000157481,-0.008031998,-0.080077395,9.813737869
1784241266.894227,-0.005209296,0.001370389,-0.060614463,-0.000732274,0.000043986,-0.000386334,-0.005163529,-0.030188505,9.786712646
1784241266.896223,-0.005211660,0.001370420,-0.060606588,-0.001129829,0.000140770,-0.000096592,-0.018165544,-0.031155810,9.757104874
1784241266.898225,-0.005211611,0.001363223,-0.060603797,-0.001083281,-0.000353645,0.000653423,0.012794748,-0.029122289,9.793461800
1784241266.900223,-0.005205434,0.001355962,-0.060602348,-0.000366969,-0.001240501,0.000764708,0.000992517,-0.040988270,9.782166481
1784241266.902225,-0.005202837,0.001356014,-0.060599785,0.000288280,-0.001257922,0.000831440,-0.005100125,-0.061198961,9.799962997
1784241266.904234,-0.005208516,0.001360816,-0.060600653,-0.000038786,-0.000450980,0.000720876,0.008009145,-0.052495494,9.812584877
1784241266.906239,-0.005207837,0.001362814,-0.060606588,-0.000383746,0.000177559,0.000062730,0.036613010,-0.063887596,9.787881851
1784241266.908235,-0.005210616,0.001364404,-0.060609870,-0.000438121,0.000418326,-0.000580085,-0.010264111,-0.078742936,9.819123268
1784241266.910236,-0.005211554,0.001364117,-0.060611837,-0.000570926,0.000395075,-0.000778847,-0.002644400,-0.044557761,9.786623955
1784241266.912237,-0.005215374,0.001358723,-0.060613293,-0.000708814,-0.000054175,-0.000799754,-0.025061732,-0.042103622,9.796928406
1784241266.914245,-0.005221403,0.001356888,-0.060601957,-0.001156112,-0.000491239,0.000086443,-0.024931353,-0.068532720,9.795863152
1784241266.916247,-0.005225189,0.001353433,-0.060596764,-0.001427837,-0.000722990,0.001183892,-0.009819167,-0.082830831,9.763057709
1784241266.918244,-0.005227228,0.001349710,-0.060598217,-0.001353877,-0.001015431,0.001116629,-0.029066283,-0.075727850,9.807022095
1784241266.920248,-0.005231863,0.001352379,-0.060598832,-0.001439193,-0.000810554,0.000672596,-0.064311214,-0.058680017,9.804405212
1784241266.922257,-0.005235365,0.001355757,-0.060595188,-0.001589058,-0.000338473,0.000693766,-0.044801585,-0.076984979,9.823138237
1784241266.924250,-0.005236067,0.001352813,-0.060593981,-0.001431441,-0.000376202,0.000833848,-0.037751585,-0.052665100,9.792813301
1784241266.926255,-0.005234426,0.001351809,-0.060590893,-0.001012107,-0.000676736,0.000898756,0.000642729,-0.032096427,9.792533875
1784241266.928251,-0.005239905,0.001351296,-0.060581695,-0.001031603,-0.000733496,0.001487982,0.003798438,-0.030398883,9.800168991
1784241266.930259,-0.005247761,0.001352928,-0.060570080,-0.001658577,-0.000465793,0.002495633,0.004006662,-0.052160770,9.772681236
1784241266.932290,-0.005247774,0.001352956,-0.060566459,-0.001769538,-0.000146184,0.002851852,0.003697278,-0.038897425,9.798321724
1784241266.934258,-0.005241450,0.001359217,-0.060565196,-0.000886965,0.000404562,0.002410635,-0.014718156,-0.040024664,9.800986290
1784241266.936264,-0.005241642,0.001360067,-0.060560770,-0.000281088,0.000733845,0.002142909,-0.022444611,-0.048809838,9.790163040
1784241266.938258,-0.005249043,0.001353746,-0.060556117,-0.000771680,0.000118374,0.002176300,-0.002673686,-0.046410009,9.795128822
1784241266.940259,-0.005248458,0.001346810,-0.060554385,-0.001025426,-0.000815981,0.002017565,0.024352359,-0.075014062,9.799454689
1784241266.942260,-0.005250144,0.001344409,-0.060560882,-0.000696774,-0.000993561,0.001147370,0.011054310,-0.060586330,9.810742378
1784241266.944254,-0.005257746,0.001344189,-0.060557522,-0.001013201,-0.000667617,0.000623407,-0.013185800,-0.061572053,9.803987503
1784241266.946262,-0.005261294,0.001345373,-0.060553096,-0.001516879,-0.000449761,0.000981286,-0.008563843,-0.052053835,9.780292511
1784241266.948266,-0.005256362,0.001345817,-0.060554251,-0.001032752,-0.000244353,0.000936729,0.003840139,-0.065227956,9.783357620
1784241266.950264,-0.005254082,0.001347878,-0.060551677,-0.000262968,-0.000008442,0.000779051,-0.006826000,-0.055768639,9.795514107
1784241266.952263,-0.005257403,0.001350753,-0.060553361,-0.000187710,0.000402862,0.000628643,-0.022407960,-0.045683656,9.791528702
1784241266.954273,-0.005261534,0.001350501,-0.060556658,-0.000567588,0.000547622,0.000120379,-0.009877380,-0.048132129,9.798249245
1784241266.956274,-0.005260054,0.001345489,-0.060553592,-0.000706709,0.000073627,0.000072036,-0.003850452,-0.033303332,9.781314850
1784241266.958269,-0.005254598,0.001345923,-0.060548909,-0.000157919,-0.000228006,0.000579650,-0.009182643,-0.065953963,9.782892227
1784241266.960273,-0.005251261,0.001347702,-0.060540475,0.000480710,-0.000020550,0.001313237,-0.025476085,-0.040610902,9.776762962
1784241266.962270,-0.005244474,0.001347045,-0.060532335,0.000998254,0.000002582,0.002081691,-0.008554225,-0.048330620,9.823804855
1784241266.964273,-0.005242679,0.001353092,-0.060533725,0.001271529,0.000312635,0.001975054,-0.024971794,-0.034504186,9.799219131
1784241266.966279,-0.005243640,0.001360756,-0.060530074,0.000898655,0.001086530,0.001592633,-0.046257816,-0.049162950,9.819726944
1784241266.968278,-0.005246453,0.001359691,-0.060529117,0.000314018,0.001166705,0.001473318,-0.020274691,-0.053877443,9.805824280
1784241266.970275,-0.005243113,0.001360947,-0.060529470,0.000264536,0.000862729,0.001114201,-0.003304325,-0.023219004,9.811417580
1784241266.972280,-0.005241880,0.001364270,-0.060531676,0.000395817,0.001018792,0.000638335,-0.005560896,-0.023698635,9.819930077
1784241266.974298,-0.005246498,0.001368003,-0.060537081,-0.000048346,0.001302399,-0.000051224,-0.022118984,-0.057892460,9.806693077
1784241266.976287,-0.005254676,0.001365656,-0.060539056,-0.000829010,0.001045843,-0.000538816,0.001385800,-0.081452988,9.801184654
1784241266.978284,-0.005251080,0.001365851,-0.060540475,-0.000840442,0.000617285,-0.000623704,0.006463418,-0.070669785,9.787809372
1784241266.980289,-0.005247672,0.001372943,-0.060544260,-0.000136355,0.000946149,-0.000807204,0.022497877,-0.080325261,9.793591499
1784241266.982291,-0.005245239,0.001368034,-0.060543321,0.000409798,0.000950378,-0.000779674,0.027918730,-0.076864623,9.801239967
1784241266.984288,-0.005248071,0.001365377,-0.060540777,0.000383585,0.000289405,-0.000330749,-0.022433337,-0.048720818,9.777610779
1784241266.986291,-0.005254710,0.001367596,-0.060539272,-0.000446047,0.000104399,0.000032757,0.010448575,-0.039224949,9.769185066
1784241266.988302,-0.005258288,0.001370509,-0.060529511,-0.001101742,0.000345173,0.000786976,0.016660091,-0.045128934,9.769152641
1784241266.990301,-0.005255780,0.001368856,-0.060528021,-0.000876265,0.000332999,0.001336489,0.004223826,-0.034235962,9.771900177
1784241266.992293,-0.005251808,0.001369282,-0.060530245,-0.000277123,0.000234427,0.000924663,-0.003145462,-0.047802206,9.802742004
1784241266.994298,-0.005254850,0.001371140,-0.060534053,-0.000216917,0.000402878,0.000264357,0.001543530,-0.031675864,9.794778824
1784241266.996302,-0.005257431,0.001372025,-0.060540274,-0.000606116,0.000549921,-0.000487999,-0.003151895,-0.010263111,9.816432953
1784241266.998306,-0.005258374,0.001371207,-0.060541704,-0.000747348,0.000474518,-0.000874407,-0.010942114,-0.061194170,9.809822083
1784241267.000301,-0.005253117,0.001377217,-0.060542829,-0.000251322,0.000699014,-0.000810408,-0.010611884,-0.069835193,9.827250481
1784241267.002302,-0.005249424,0.001381629,-0.060549550,0.000494850,0.001256603,-0.001122015,0.004717998,-0.062151790,9.853318214
1784241267.004311,-0.005250122,0.001378689,-0.060552858,0.000634402,0.001056070,-0.001497454,-0.003381096,-0.066683345,9.812035561
1784241267.006315,-0.005254315,0.001377958,-0.060548171,0.000223687,0.000514767,-0.000997746,-0.017871907,-0.075649373,9.838863373
1784241267.008307,-0.005251492,0.001380283,-0.060551725,0.000163459,0.000477951,-0.000649394,-0.012109614,-0.048014358,9.785696030
1784241267.010309,-0.005247912,0.001378361,-0.060559269,0.000554704,0.000379534,-0.001225714,0.004116344,-0.041568685,9.795166016
1784241267.012315,-0.005246185,0.001374784,-0.060567100,0.000727653,-0.000085165,-0.001936754,0.018046541,-0.039964605,9.796535492
1784241267.014313,-0.005243390,0.001374195,-0.060573321,0.000800164,-0.000333674,-0.002364063,-0.004221199,-0.065003633,9.766315460
1784241267.016321,-0.005242827,0.001375431,-0.060574997,0.000819534,-0.000174910,-0.002258322,0.008052634,-0.052152101,9.764167786
1784241267.018322,-0.005245093,0.001375686,-0.060574565,0.000489637,-0.000004313,-0.001730235,-0.009583469,-0.061922930,9.783813477
1784241267.020317,-0.005241023,0.001370571,-0.060574699,0.000479207,-0.000333158,-0.001239379,-0.032687724,-0.078769885,9.800271988
1784241267.022323,-0.005230437,0.001366386,-0.060574815,0.001390038,-0.000924383,-0.000918398,-0.006310147,-0.050786402,9.787028313
1784241267.024324,-0.005228445,0.001365540,-0.060580499,0.001912965,-0.001063258,-0.001062253,-0.004251332,-0.028462220,9.794345856
1784241267.026326,-0.005232762,0.001367029,-0.060589358,0.001197184,-0.000716967,-0.001762009,-0.016220441,-0.054208633,9.782063484
1784241267.028323,-0.005237377,0.001371552,-0.060588639,0.000226619,-0.000102528,-0.001837226,-0.001171996,-0.070225827,9.802151680
1784241267.030332,-0.005240448,0.001371548,-0.060585011,-0.000357082,0.000230557,-0.001044028,0.006363414,-0.043595579,9.761081696
1784241267.032327,-0.005238999,0.001370140,-0.060583260,-0.000370746,0.000090342,-0.000395463,0.001581165,-0.028136689,9.801078796
1784241267.034332,-0.005241841,0.001366424,-0.060582586,-0.000364872,-0.000262744,-0.000122934,-0.008629668,-0.055815592,9.805374146
1784241267.036341,-0.005246484,0.001364341,-0.060585093,-0.000722264,-0.000586290,-0.000214172,-0.000976754,-0.052879348,9.819747925
1784241267.038355,-0.005250397,0.001360107,-0.060584683,-0.001055285,-0.000857095,-0.000299001,-0.020613603,-0.044899758,9.804088593
1784241267.040347,-0.005248155,0.001358720,-0.060581066,-0.000882477,-0.001007400,0.000055315,-0.028876107,-0.060852922,9.794115067
1784241267.042351,-0.005249015,0.001359211,-0.060580637,-0.000536321,-0.000813284,0.000315473,-0.023337524,-0.046736598,9.815281868
1784241267.044347,-0.005249457,0.001355470,-0.060580488,-0.000466134,-0.000830465,0.000269148,-0.026103569,-0.054174352,9.795057297
1784241267.046352,-0.005242995,0.001356947,-0.060586434,0.000092649,-0.000809799,-0.000196851,-0.003008238,-0.074177243,9.794054031
1784241267.048351,-0.005238289,0.001360581,-0.060594223,0.000849985,-0.000291223,-0.001074518,-0.016290180,-0.059622314,9.787409782
1784241267.050358,-0.005241365,0.001359785,-0.060594324,0.000730636,-0.000016640,-0.001318391,-0.026445303,-0.045218930,9.796459198
1784241267.052354,-0.005248103,0.001357390,-0.060587786,-0.000158821,-0.000245914,-0.000524919,-0.016493464,-0.039442424,9.785296440
1784241267.054431,-0.005254099,0.001357421,-0.060587887,-0.001005070,-0.000356802,0.000053114,-0.006031256,-0.065911539,9.771239281
1784241267.056354,-0.005255826,0.001358317,-0.060587451,-0.001237964,-0.000169185,0.000061119,-0.022567116,-0.057476904,9.812075615
1784241267.058352,-0.005262370,0.001357290,-0.060583830,-0.001445172,-0.000105649,0.000319208,-0.021333054,-0.068915389,9.780172348
1784241267.060360,-0.005263868,0.001354884,-0.060581286,-0.001599197,-0.000312206,0.000650225,-0.021661254,-0.057421628,9.802661896
1784241267.062387,-0.005265327,0.001357235,-0.060580041,-0.001329202,-0.000267813,0.000730593,0.006718444,-0.049609251,9.787047386
1784241267.064362,-0.005264892,0.001360646,-0.060581975,-0.001000931,0.000160972,0.000484678,-0.009872845,-0.084470436,9.804741859
1784241267.066365,-0.005266037,0.001362863,-0.060574614,-0.000636039,0.000487434,0.000721001,-0.028074564,-0.067294851,9.816492081
1784241267.068359,-0.005266947,0.001366014,-0.060565650,-0.000462591,0.000703718,0.001633018,-0.014424586,-0.051791873,9.817050934
1784241267.070358,-0.005263589,0.001369123,-0.060562808,-0.000172004,0.000933385,0.001991194,-0.004967892,-0.050428823,9.797343254
1784241267.072366,-0.005265389,0.001371936,-0.060557831,-0.000049865,0.001121321,0.001981318,-0.034660492,-0.054719757,9.824185371
1784241267.074361,-0.005272990,0.001371978,-0.060551014,-0.000705131,0.001048604,0.002242549,-0.010719714,-0.043228038,9.803212166
1784241267.076368,-0.005272468,0.001370970,-0.060544737,-0.001058876,0.000741755,0.002521895,0.026922150,-0.009345760,9.822294235
1784241267.078367,-0.005273969,0.001368297,-0.060540866,-0.000902222,0.000334976,0.002526462,0.028433144,-0.071488477,9.800377846
1784241267.080369,-0.005274174,0.001362691,-0.060534075,-0.000774009,-0.000321715,0.002563908,-0.017674888,-0.060720384,9.818335533
1784241267.082373,-0.005276723,0.001360062,-0.060530204,-0.000680606,-0.000800108,0.002591187,-0.034496330,-0.042481728,9.804089546
1784241267.084368,-0.005278149,0.001363758,-0.060532410,-0.000694662,-0.000513991,0.002000703,-0.011452273,-0.066941969,9.799920082
1784241267.086377,-0.005284266,0.001362362,-0.060529593,-0.000956278,-0.000158412,0.001498755,-0.002531272,-0.034343679,9.799242020
1784241267.088377,-0.005284181,0.001358348,-0.060528383,-0.001044605,-0.000423895,0.001365005,-0.000700153,-0.032053743,9.788946152
1784241267.090380,-0.005285394,0.001358057,-0.060521562,-0.000838217,-0.000603877,0.001538851,-0.015160191,-0.040371489,9.787533760
1784241267.092381,-0.005292326,0.001358742,-0.060521126,-0.001262568,-0.000386478,0.001612370,-0.022679318,-0.031714797,9.780857086
1784241267.094382,-0.005288645,0.001366363,-0.060526766,-0.001238387,0.000313478,0.000821039,-0.014206968,-0.034673963,9.803711891
1784241267.096387,-0.005280580,0.001369731,-0.060530834,-0.000151598,0.000975735,-0.000059770,0.009301914,-0.056175925,9.823771477
1784241267.098388,-0.005281315,0.001363869,-0.060528565,0.000339602,0.000540143,-0.000165468,0.003607784,-0.084893733,9.776954651
1784241267.100381,-0.005288137,0.001362048,-0.060522564,-0.000266317,-0.000130979,0.000439998,-0.012508082,-0.077907294,9.831680298
1784241267.102385,-0.005296197,0.001368960,-0.060516767,-0.001151498,0.000193426,0.001119573,0.006219102,-0.089214243,9.812796593
1784241267.104383,-0.005295480,0.001374482,-0.060511257,-0.001284577,0.000928433,0.001582125,0.018401440,-0.084784925,9.798041344
1784241267.106397,-0.005288302,0.001374526,-0.060510013,-0.000299145,0.001166100,0.001612269,-0.018321535,-0.076866671,9.821819305
1784241267.108386,-0.005291661,0.001372142,-0.060510401,0.000142648,0.000804673,0.001233672,-0.014615444,-0.030703336,9.813152313
1784241267.110389,-0.005292619,0.001370525,-0.060505986,-0.000189420,0.000313111,0.001172178,-0.015357358,-0.015280286,9.850910187
1784241267.112400,-0.005286159,0.001373043,-0.060496490,0.000076991,0.000287422,0.001797958,-0.000591573,-0.023091342,9.788555145
1784241267.114401,-0.005282810,0.001376409,-0.060482208,0.000562435,0.000603455,0.002924076,-0.015270437,-0.013783413,9.766184807
1784241267.116402,-0.005281491,0.001377397,-0.060476985,0.000608253,0.000730777,0.003454551,-0.015485804,-0.028452031,9.813164711
1784241267.118397,-0.005281054,0.001380809,-0.060479984,0.000445581,0.000832838,0.002667368,-0.002687847,-0.048548076,9.780768394
1784241267.120395,-0.005278781,0.001382075,-0.060479287,0.000508803,0.000925109,0.001787422,-0.005539336,-0.061523531,9.783372879
1784241267.122399,-0.005279236,0.001382661,-0.060470343,0.000460560,0.000808372,0.001957547,0.001264276,-0.054953944,9.792387962
1784241267.124401,-0.005279895,0.001383695,-0.060469635,0.000226348,0.000707477,0.002081077,-0.001589331,-0.031572029,9.785810471
1784241267.126410,-0.005279763,0.001387357,-0.060472377,0.000059977,0.000854791,0.001378024,-0.013783872,-0.037313424,9.796072960
1784241267.128404,-0.005282552,0.001387889,-0.060477529,-0.000205292,0.000930098,0.000468311,-0.003577537,-0.046449397,9.802301407
1784241267.130404,-0.005282726,0.001384148,-0.060481373,-0.000349778,0.000462898,-0.000269444,-0.023318071,-0.045367278,9.811704636
1784241267.132409,-0.005276155,0.001378850,-0.060480714,0.000136144,-0.000300243,-0.000411167,-0.003115436,-0.082723491,9.798930168
1784241267.134419,-0.005273608,0.001381172,-0.060476545,0.000674108,-0.000447505,0.000029712,0.007317956,-0.074261785,9.787338257
1784241267.136421,-0.005270569,0.001381609,-0.060475569,0.000908709,-0.000049222,0.000371507,0.001177627,-0.060501181,9.816562653
1784241267.138421,-0.005268046,0.001381282,-0.060474336,0.001078142,0.000062164,0.000420933,0.043334112,-0.064453594,9.792367935
1784241267.140416,-0.005267937,0.001379128,-0.060477104,0.000964224,-0.000122573,0.000202355,0.003685868,-0.077793114,9.786416054
1784241267.142447,-0.005270192,0.001376801,-0.060476951,0.000645988,-0.000290171,-0.000029641,-0.020620635,-0.048197281,9.763716698
1784241267.144429,-0.005277783,0.001376853,-0.060481299,-0.000108324,-0.000261973,-0.000306952,-0.031989057,-0.022596687,9.775527000
1784241267.146427,-0.005282278,0.001375299,-0.060485400,-0.000965851,-0.000362333,-0.000798962,-0.027906310,-0.018245131,9.786318779
1784241267.148431,-0.005284820,0.001374235,-0.060489219,-0.001247909,-0.000511356,-0.001121161,0.001256334,-0.056637682,9.777133942
1784241267.150430,-0.005283582,0.001377640,-0.060494363,-0.000996744,-0.000210418,-0.001425080,-0.014979626,-0.061136071,9.808921814
1784241267.152426,-0.005285249,0.001380843,-0.060500558,-0.000755831,0.000315170,-0.001807149,-0.011610381,-0.041542340,9.819809914
1784241267.154429,-0.005290410,0.001384311,-0.060499839,-0.001015187,0.000700310,-0.001689021,-0.006378024,-0.016164010,9.832979202
1784241267.156435,-0.005290024,0.001385393,-0.060495146,-0.001153617,0.000795805,-0.000863792,0.002293576,-0.042171706,9.820266724
1784241267.158430,-0.005285401,0.001381865,-0.060498457,-0.000589943,0.000391889,-0.000534981,-0.000063925,-0.051553331,9.820653915
1784241267.160430,-0.005286297,0.001385290,-0.060501184,-0.000176147,0.000280697,-0.000799872,-0.029791286,-0.060171254,9.825949669
1784241267.162440,-0.005286020,0.001389260,-0.060504463,-0.000159292,0.000634745,-0.000990870,-0.013240118,-0.065648220,9.810238838
1784241267.164442,-0.005278962,0.001388889,-0.060509618,0.000393028,0.000635849,-0.001293049,-0.011757283,-0.052833576,9.832739830
1784241267.166445,-0.005276366,0.001390047,-0.060511041,0.000938354,0.000508343,-0.001387308,-0.009187299,-0.065585501,9.794103622
1784241267.168442,-0.005277595,0.001387903,-0.060507957,0.000772448,0.000292104,-0.000897951,-0.007607586,-0.084327467,9.780534744
1784241267.170441,-0.005278037,0.001383899,-0.060511541,0.000449358,-0.000204344,-0.000688084,0.025319502,-0.069611870,9.794111252
1784241267.172445,-0.005276549,0.001383617,-0.060518555,0.000452815,-0.000366379,-0.001219675,0.034461040,-0.093836658,9.781859398
1784241267.174447,-0.005273419,0.001390179,-0.060518090,0.000697512,0.000231276,-0.001331784,-0.018812366,-0.082461849,9.790399551
1784241267.176447,-0.005278526,0.001398244,-0.060518932,0.000481705,0.001100346,-0.000996473,-0.041407488,-0.058410797,9.788290024
1784241267.178455,-0.005286328,0.001403337,-0.060523797,-0.000417063,0.001635669,-0.001114961,-0.011928754,-0.032402493,9.795209885
1784241267.180452,-0.005286435,0.001405957,-0.060525201,-0.000840001,0.001717382,-0.001238731,0.003594279,-0.047005236,9.804545403
1784241267.182456,-0.005280108,0.001403627,-0.060523722,-0.000231977,0.001314394,-0.000896774,0.010473901,-0.035377722,9.795212746
1784241267.184455,-0.005275199,0.001402214,-0.060521968,0.000551024,0.000745838,-0.000432032,0.029264903,-0.040101975,9.795648575
1784241267.186458,-0.005273789,0.001397419,-0.060525544,0.000850288,0.000264681,-0.000437261,0.016460132,-0.096049987,9.810521126
1784241267.188461,-0.005271544,0.001395772,-0.060527507,0.000887918,-0.000100343,-0.000694163,-0.001057027,-0.060402486,9.806697845
1784241267.190460,-0.005273781,0.001398415,-0.060528923,0.000647692,-0.000004275,-0.000735307,-0.000618456,-0.062514491,9.787855148
1784241267.192459,-0.005278612,0.001393781,-0.060533829,0.000019820,-0.000054185,-0.000965238,-0.001399911,-0.052266661,9.797334671
1784241267.194463,-0.005279887,0.001386606,-0.060539298,-0.000371823,-0.000755563,-0.001407117,-0.012796811,-0.028511962,9.816752434
1784241267.196465,-0.005281645,0.001387541,-0.060540453,-0.000563637,-0.000927083,-0.001474257,-0.010889295,-0.058750872,9.781144142
1784241267.198469,-0.005288388,0.001391828,-0.060546912,-0.001074481,-0.000273623,-0.001591628,-0.018710911,-0.072339982,9.816019058
1784241267.200466,-0.005283201,0.001391211,-0.060549669,-0.000887466,0.000053056,-0.001785386,-0.009694683,-0.067664117,9.835335732
1784241267.202468,-0.005281274,0.001391885,-0.060547646,-0.000068527,0.000010148,-0.001349359,-0.015831573,-0.057118360,9.812533379
1784241267.204471,-0.005283287,0.001391075,-0.060545087,0.000038856,-0.000036048,-0.000671542,-0.008212842,-0.058099296,9.810740471
1784241267.206475,-0.005279914,0.001387245,-0.060546536,0.000097230,-0.000284039,-0.000413659,0.014113744,-0.068159238,9.799041748
1784241267.208475,-0.005273912,0.001388209,-0.060548220,0.000684193,-0.000342803,-0.000513078,-0.000211186,-0.066494651,9.779759407
1784241267.210476,-0.005266013,0.001392596,-0.060545634,0.001442025,0.000113144,-0.000311424,-0.022104315,-0.057371370,9.796386719
1784241267.212477,-0.005266564,0.001394334,-0.060542259,0.001523211,0.000448272,0.000177732,-0.013312053,-0.074321270,9.769833565
1784241267.214477,-0.005267760,0.001394582,-0.060545824,0.000965536,0.000413618,0.000116352,-0.007722882,-0.054537263,9.813004494
1784241267.216476,-0.005264575,0.001391602,-0.060548056,0.000828648,0.000135805,-0.000308429,-0.020790426,-0.022889858,9.796607971
1784241267.218477,-0.005266073,0.001388932,-0.060547110,0.000707965,-0.000266227,-0.000312143,-0.007601763,-0.046286367,9.786607742
1784241267.220481,-0.005265404,0.001389422,-0.060547203,0.000459327,-0.000342264,-0.000169482,-0.034624025,-0.054837044,9.777559280
1784241267.222487,-0.005260349,0.001395935,-0.060551524,0.000755170,0.000157390,-0.000422740,0.003479940,-0.057228860,9.793272018
1784241267.224483,-0.005260935,0.001403860,-0.060548384,0.000885229,0.001024953,-0.000387945,0.024340170,-0.073489308,9.837124825
1784241267.226489,-0.005266377,0.001401310,-0.060541049,0.000286568,0.001245588,0.000428289,0.013608711,-0.072245546,9.807531357
1784241267.228485,-0.005264903,0.001402847,-0.060536616,-0.000009813,0.000972277,0.001110970,-0.023122732,-0.067230910,9.798562050
1784241267.230492,-0.005261549,0.001404904,-0.060542282,0.000320734,0.000952696,0.000725626,-0.027622642,-0.067275174,9.812904358
1784241267.232486,-0.005261753,0.001405626,-0.060547706,0.000489263,0.000799313,-0.000223901,-0.018468609,-0.053811420,9.793272972
1784241267.234490,-0.005266729,0.001401404,-0.060548883,0.000046159,0.000259815,-0.000612022,0.005344890,-0.051834982,9.787480354
1784241267.236498,-0.005270915,0.001393838,-0.060546640,-0.000608393,-0.000600816,-0.000374395,-0.009972562,-0.058609750,9.759624481
1784241267.238501,-0.005265735,0.001392951,-0.060544875,-0.000396156,-0.001002435,-0.000000365,0.027924782,-0.039226964,9.801033020
1784241267.240506,-0.005258588,0.001401064,-0.060548924,0.000548411,-0.000238919,-0.000153993,-0.007115656,-0.042349488,9.799186707
1784241267.242503,-0.005257329,0.001402517,-0.060552467,0.000932573,0.000556775,-0.000626094,-0.010992808,-0.065241724,9.812036514
1784241267.244500,-0.005252951,0.001401899,-0.060545653,0.001023424,0.000539956,-0.000233514,0.010949191,-0.032336771,9.807785988
1784241267.246503,-0.005245076,0.001396027,-0.060542047,0.001516686,-0.000001867,0.000537603,-0.033422351,-0.066936515,9.775689125
1784241267.248505,-0.005242851,0.001393575,-0.060532857,0.001729633,-0.000521992,0.001260889,-0.026103165,-0.054171178,9.794609070
1784241267.250505,-0.005242703,0.001395657,-0.060528155,0.001419790,-0.000410349,0.001861997,0.006047921,-0.067159832,9.799039841
1784241267.252501,-0.005247854,0.001396839,-0.060531966,0.000747530,-0.000012793,0.001416411,0.002479537,-0.065325163,9.799495697
1784241267.254512,-0.005253331,0.001395278,-0.060537659,-0.000122905,0.000033254,0.000385824,0.002378779,-0.073820531,9.797199249
1784241267.256514,-0.005259368,0.001393597,-0.060536973,-0.000778556,-0.000186838,-0.000059514,-0.007587318,-0.045361821,9.782577515
1784241267.258508,-0.005263184,0.001399165,-0.060527202,-0.001144970,0.000131186,0.000665908,-0.006321425,-0.050875429,9.799581528
1784241267.260513,-0.005265436,0.001401270,-0.060519315,-0.001247629,0.000610093,0.001683408,-0.022979466,-0.093558267,9.783149719
1784241267.262517,-0.005273240,0.001400540,-0.060518097,-0.001398802,0.000459359,0.001844084,0.001810100,-0.084082916,9.792201996
1784241267.264513,-0.005275771,0.001400799,-0.060518455,-0.001527028,0.000227184,0.001400817,-0.001202076,-0.034494478,9.818072319
1784241267.266523,-0.005276226,0.001400935,-0.060513780,-0.001402687,0.000180254,0.001313603,-0.017898211,-0.045156457,9.772256851
1784241267.268519,-0.005277155,0.001402493,-0.060502153,-0.001204609,0.000229922,0.002063037,-0.030678680,-0.059270199,9.826851845
1784241267.270526,-0.005276524,0.001400062,-0.060497493,-0.000899351,0.000102377,0.002608336,-0.032688290,-0.041589722,9.801407814
1784241267.272521,-0.005276624,0.001398865,-0.060495198,-0.000696067,-0.000220448,0.002372456,-0.020725874,-0.055917546,9.778462410
1784241267.274524,-0.005283429,0.001397319,-0.060502216,-0.001051702,-0.000391323,0.001405898,0.020758713,-0.074999869,9.803935051
1784241267.276526,-0.005283114,0.001393595,-0.060501803,-0.001111603,-0.000517178,0.000575716,0.016677013,-0.042158544,9.792485237
1784241267.278527,-0.005282974,0.001394882,-0.060496572,-0.000685031,-0.000421032,0.000803115,-0.002440928,-0.026741063,9.801083565
1784241267.280535,-0.005284709,0.001394867,-0.060496669,-0.000607858,-0.000222257,0.000933015,0.010908726,-0.073488168,9.798106194
1784241267.282532,-0.005287367,0.001393579,-0.060497839,-0.000696206,-0.000163233,0.000593695,0.022172146,-0.069622509,9.801280022
1784241267.284531,-0.005285390,0.001392196,-0.060495026,-0.000508908,-0.000214162,0.000544950,0.002016056,-0.029467249,9.798380852
1784241267.286538,-0.005282569,0.001387401,-0.060492493,-0.000140964,-0.000525297,0.000761006,-0.016425913,-0.034451254,9.776362419
1784241267.288533,-0.005284036,0.001387910,-0.060488604,-0.000106760,-0.000623883,0.000990950,-0.017920762,-0.045334518,9.797363281
1784241267.290539,-0.005283632,0.001388929,-0.060484961,-0.000150630,-0.000353418,0.001232467,-0.018008513,-0.052511442,9.798662186
1784241267.292539,-0.005283352,0.001387609,-0.060492776,-0.000055683,-0.000296879,0.000613548,0.010267610,-0.053216673,9.783890724
1784241267.294538,-0.005279485,0.001388066,-0.060495269,0.000249125,-0.000291684,-0.000252345,0.019806253,-0.042291000,9.805489540
1784241267.296545,-0.005278724,0.001386356,-0.060488202,0.000451444,-0.000221889,0.000128099,-0.009838311,-0.044986859,9.796924591
1784241267.298542,-0.005275470,0.001380183,-0.060483269,0.000556583,-0.000623668,0.000908110,-0.020911204,-0.033164348,9.792505264
1784241267.300542,-0.005274078,0.001374031,-0.060478352,0.000719826,-0.001294391,0.001329957,-0.016991656,-0.043474678,9.786167145
1784241267.302545,-0.005269862,0.001376668,-0.060474172,0.000881470,-0.001189162,0.001586489,-0.028361399,-0.053853448,9.817024231
1784241267.304544,-0.005265473,0.001376586,-0.060472414,0.001203102,-0.000699391,0.001559373,-0.038494948,-0.039684981,9.796034813
1784241267.306553,-0.005262016,0.001377347,-0.060478892,0.001328525,-0.000534988,0.000816303,-0.033166572,-0.045059554,9.786142349
1784241267.308547,-0.005264523,0.001379728,-0.060480300,0.000952108,-0.000246857,0.000058557,-0.013341668,-0.036559977,9.815357208
1784241267.310551,-0.005259619,0.001378048,-0.060477756,0.000856234,-0.000132639,0.000120059,0.010715855,-0.052415524,9.796448708
1784241267.312549,-0.005252995,0.001370450,-0.060470723,0.001429229,-0.000671879,0.000740073,0.027958445,-0.036529653,9.799705505
1784241267.314559,-0.005251048,0.001365890,-0.060472704,0.001646371,-0.001258659,0.000883468,0.011502893,-0.061808769,9.792801857
1784241267.316561,-0.005255947,0.001360848,-0.060476292,0.001139112,-0.001512528,0.000265767,-0.003352330,-0.066050954,9.786035538
1784241267.318555,-0.005253473,0.001355488,-0.060480937,0.000805587,-0.001750747,-0.000364979,-0.022308061,-0.036384579,9.806831360
1784241267.320555,-0.005246694,0.001353796,-0.060487702,0.001215943,-0.001750012,-0.001039084,-0.002760688,-0.052770503,9.807641029
1784241267.322558,-0.005247968,0.001355610,-0.060493913,0.001212670,-0.001295574,-0.001636425,0.002930197,-0.064504959,9.809364319
1784241267.324565,-0.005252372,0.001354830,-0.060496144,0.000450800,-0.000904215,-0.001765571,-0.002429143,-0.063022122,9.799506187
1784241267.326585,-0.005255603,0.001358347,-0.060491711,-0.000212283,-0.000424385,-0.001136667,0.027005393,-0.041820560,9.789359093
1784241267.328592,-0.005258150,0.001356753,-0.060495540,-0.000569100,-0.000129529,-0.000786932,0.002869961,-0.032658983,9.804637909
1784241267.330575,-0.005255101,0.001355627,-0.060497519,-0.000379912,-0.000276901,-0.000966701,0.002703719,-0.046939693,9.796924591
1784241267.332611,-0.005247181,0.001353827,-0.060493361,0.000535187,-0.000287966,-0.000554336,0.010495253,-0.032372355,9.813613892
1784241267.334593,-0.005246209,0.001358287,-0.060488652,0.001060201,0.000080716,0.000199237,0.014699641,-0.018550020,9.815499306
1784241267.336586,-0.005242236,0.001355000,-0.060487166,0.000917439,0.000230072,0.000566191,-0.018216522,-0.033989839,9.777709007
1784241267.338580,-0.005238929,0.001352812,-0.060490459,0.000972582,-0.000109499,0.000289713,-0.054169200,-0.035191748,9.822500229
1784241267.340578,-0.005237165,0.001355680,-0.060494535,0.001053332,-0.000031000,-0.000288906,-0.031415083,-0.047856167,9.798230171
1784241267.342584,-0.005238254,0.001362666,-0.060495395,0.000755250,0.000497018,-0.000545902,-0.003249386,-0.057133079,9.791921616
1784241267.344582,-0.005238596,0.001368206,-0.060496531,0.000394937,0.001061991,-0.000533773,-0.000619837,-0.062930651,9.783368111
1784241267.346599,-0.005234136,0.001370042,-0.060500074,0.000673707,0.001324845,-0.000705425,0.026516641,-0.045373060,9.785749435
1784241267.348602,-0.005237186,0.001371107,-0.060504951,0.000693288,0.001213873,-0.001085173,0.040483609,-0.077016056,9.799905777
1784241267.350607,-0.005242934,0.001368755,-0.060512774,-0.000090949,0.000801426,-0.001653760,-0.001441825,-0.095860988,9.753119469
1784241267.352602,-0.005250301,0.001363202,-0.060514241,-0.000611315,0.000246985,-0.001834631,-0.042527933,-0.075965174,9.801626205
1784241267.354600,-0.005247290,0.001358891,-0.060511965,-0.000396793,-0.000293521,-0.001280243,-0.016673625,-0.053427789,9.799106598
1784241267.356602,-0.005248504,0.001360977,-0.060516305,-0.000146912,-0.000435076,-0.001073393,-0.015211569,-0.043208703,9.808588028
1784241267.358609,-0.005251289,0.001362300,-0.060517196,-0.000358008,-0.000154647,-0.001137814,-0.043644842,-0.057117656,9.799505234
1784241267.360605,-0.005253326,0.001359105,-0.060515985,-0.000588137,-0.000239845,-0.000807390,-0.019932220,-0.064853296,9.773474693
1784241267.362643,-0.005257180,0.001358328,-0.060513966,-0.000758211,-0.000483094,-0.000369124,-0.005433856,-0.051369861,9.804509163
1784241267.364648,-0.005258897,0.001359905,-0.060515646,-0.000860043,-0.000335334,-0.000246575,0.010782319,-0.046217199,9.806799889
1784241267.366629,-0.005249987,0.001357843,-0.060513377,-0.000246279,-0.000145225,-0.000137696,0.004848325,-0.018264556,9.793075562
1784241267.368634,-0.005248232,0.001360442,-0.060512654,0.000436262,0.000061729,0.000104844,0.019332118,-0.044512331,9.803681374
1784241267.370610,-0.005254548,0.001355440,-0.060514640,0.000008431,-0.000117747,-0.000010608,-0.013790610,-0.038987618,9.779475212
1784241267.372606,-0.005260186,0.001349352,-0.060516100,-0.000887473,-0.000799284,-0.000243124,-0.049427908,-0.052595105,9.804011345
1784241267.374605,-0.005256577,0.001350344,-0.060520973,-0.000866233,-0.000887843,-0.000607736,-0.055471346,-0.032801155,9.803685188
1784241267.376611,-0.005252960,0.001354050,-0.060526375,-0.000248227,-0.000471215,-0.001140492,-0.007628338,-0.046496224,9.816195488
1784241267.378610,-0.005256326,0.001351397,-0.060522508,-0.000272240,-0.000418233,-0.000935038,-0.003239144,-0.056646958,9.786543846
1784241267.380613,-0.005256727,0.001352157,-0.060516216,-0.000454942,-0.000436723,0.000008332,0.005171533,-0.027366253,9.812294960
1784241267.382616,-0.005250419,0.001355632,-0.060513906,-0.000003976,0.000030151,0.000590861,0.010389491,-0.041312501,9.810866356
1784241267.384617,-0.005247290,0.001361666,-0.060516626,0.000564955,0.000731420,0.000403859,-0.021689221,-0.060884494,9.785603523
1784241267.386619,-0.005247639,0.001365265,-0.060519636,0.000599448,0.001140602,-0.000094576,-0.006271657,-0.048050940,9.780321121
1784241267.388626,-0.005245384,0.001364676,-0.060518932,0.000564900,0.000987912,-0.000225614,0.000262492,-0.063466422,9.794126511
1784241267.390620,-0.005241786,0.001364873,-0.060524084,0.000809319,0.000694665,-0.000466073,0.002303282,-0.080495432,9.790879250
1784241267.392622,-0.005243360,0.001367709,-0.060528155,0.000828562,0.000772730,-0.000964805,0.014392258,-0.042860743,9.832379341
1784241267.394623,-0.005243173,0.001372188,-0.060535677,0.000611059,0.001121078,-0.001489337,-0.003597734,-0.048635144,9.794666290
1784241267.396672,-0.005239108,0.001370734,-0.060538970,0.000738240,0.001047449,-0.001818667,-0.017721675,-0.065952845,9.798128128
1784241267.398660,-0.005236073,0.001368545,-0.060536951,0.001023326,0.000537771,-0.001410951,-0.000654359,-0.064824253,9.797703743
1784241267.400655,-0.005234615,0.001367967,-0.060538922,0.001050387,0.000203870,-0.001023753,-0.035813443,-0.076988675,9.807454109
1784241267.402664,-0.005235090,0.001369226,-0.060542993,0.000964377,0.000126304,-0.001156120,-0.040211964,-0.068937831,9.817365646
1784241267.404643,-0.005233936,0.001365729,-0.060539920,0.000880671,-0.000130068,-0.000910711,-0.023365317,-0.049792834,9.804054260
1784241267.406636,-0.005233296,0.001366148,-0.060530979,0.000745053,-0.000339451,0.000152361,-0.006246903,-0.044613510,9.800966263
1784241267.408667,-0.005239539,0.001368037,-0.060530268,0.000144324,-0.000125591,0.000765576,0.017464291,-0.049118392,9.824721336
1784241267.410643,-0.005234321,0.001370335,-0.060532209,0.000035663,0.000193187,0.000473603,-0.013954422,-0.050412402,9.811232567
1784241267.412642,-0.005234415,0.001374624,-0.060532283,0.000392487,0.000601036,0.000208419,-0.014500995,-0.022099862,9.800205231
1784241267.414646,-0.005233507,0.001372724,-0.060531337,0.000359564,0.000612104,0.000211746,-0.013385059,-0.041360363,9.797392845
1784241267.416657,-0.005233551,0.001371183,-0.060524788,0.000293657,0.000185870,0.000662979,-0.010553714,-0.066133857,9.810687065
1784241267.418644,-0.005233681,0.001372470,-0.060517438,0.000174625,0.000089464,0.001426021,-0.022056041,-0.053342894,9.796859741
1784241267.420645,-0.005228213,0.001373175,-0.060520459,0.000489169,0.000198882,0.001333663,-0.035181765,-0.062986799,9.790508270
1784241267.422660,-0.005222431,0.001371814,-0.060530134,0.001170928,0.000082805,0.000110693,-0.044547778,-0.058770820,9.781559944
1784241267.424645,-0.005225187,0.001376052,-0.060529158,0.001109006,0.000236596,-0.000509010,0.000340460,-0.057582512,9.785644531
1784241267.426696,-0.005228373,0.001375381,-0.060526602,0.000430488,0.000476364,-0.000130369,0.011273824,-0.079422340,9.812864304
1784241267.428667,-0.005223758,0.001371847,-0.060522199,0.000436197,0.000122225,0.000377989,-0.035848375,-0.078885451,9.822237015
1784241267.430654,-0.005217536,0.001368828,-0.060520716,0.001052887,-0.000357913,0.000675851,-0.018203864,-0.068237774,9.805286407
1784241267.432656,-0.005213609,0.001365181,-0.060522962,0.001574762,-0.000777702,0.000441270,0.004709815,-0.066268913,9.802182198
1784241267.434656,-0.005209442,0.001368554,-0.060528096,0.001816072,-0.000647268,-0.000178705,0.015292805,-0.082463548,9.792224884
1784241267.436672,-0.005212095,0.001371938,-0.060526311,0.001581820,0.000044486,-0.000356900,0.016351901,-0.069446012,9.786929131
1784241267.438675,-0.005218874,0.001374094,-0.060520552,0.000667161,0.000461910,0.000251747,0.004882430,-0.053964112,9.772670746
1784241267.440661,-0.005222730,0.001376212,-0.060508132,-0.000237485,0.000620147,0.001416021,0.003463148,-0.021392573,9.794399261
1784241267.442664,-0.005214634,0.001378936,-0.060505819,0.000009386,0.000853086,0.002031604,-0.002959144,-0.032552451,9.800149918
1784241267.444666,-0.005204631,0.001380123,-0.060508840,0.001131287,0.000965043,0.001434220,0.000024392,-0.046803448,9.782577515
1784241267.446683,-0.005201743,0.001376133,-0.060511630,0.001690642,0.000529511,0.000652756,-0.027614815,-0.066808127,9.810217857
1784241267.448681,-0.005206899,0.001380394,-0.060508244,0.001068706,0.000418665,0.000516226,-0.028628454,-0.075819448,9.819126129
1784241267.450670,-0.005209974,0.001380123,-0.060502227,0.000218989,0.000572528,0.001013152,0.003504404,-0.052577913,9.832306862
1784241267.452668,-0.005209484,0.001378511,-0.060499404,-0.000006478,0.000284612,0.001337451,0.000460449,-0.044477548,9.832804680
1784241267.454675,-0.005206430,0.001377651,-0.060501635,0.000246053,0.000037806,0.001014549,-0.026283085,-0.030970022,9.808654785
1784241267.456673,-0.005206858,0.001375784,-0.060499880,0.000321521,-0.000158375,0.000706847,-0.011394724,-0.060003527,9.832245827
1784241267.458672,-0.005202486,0.001374373,-0.060494401,0.000465247,-0.000341457,0.001006109,0.007278092,-0.039823439,9.796076775
1784241267.460674,-0.005195658,0.001378241,-0.060492612,0.001098540,-0.000084547,0.001227132,-0.001104031,-0.027641514,9.799285889
1784241267.462681,-0.005193371,0.001382108,-0.060490828,0.001365911,0.000502232,0.001137339,0.030846469,-0.021644704,9.780525208
1784241267.464680,-0.005189774,0.001382565,-0.060489599,0.001341289,0.000698292,0.001034184,-0.010239202,-0.042982589,9.767795563
1784241267.466682,-0.005184700,0.001384339,-0.060490478,0.001502045,0.000606311,0.000777494,-0.028273080,-0.049103573,9.778946877
1784241267.468679,-0.005181125,0.001382676,-0.060490318,0.001617769,0.000395767,0.000517489,-0.024142636,-0.041133352,9.784832001
1784241267.470688,-0.005177061,0.001376505,-0.060496036,0.001697591,-0.000241549,0.000000442,-0.000273035,-0.069414534,9.812468529
1784241267.472680,-0.005177824,0.001369951,-0.060498554,0.001463981,-0.000971563,-0.000558684,-0.008824163,-0.072345637,9.798991203
1784241267.474683,-0.005181460,0.001366772,-0.060496286,0.000770340,-0.001303056,-0.000424162,0.002966721,-0.065432295,9.750628471
1784241267.476696,-0.005184599,0.001367409,-0.060497180,0.000089240,-0.001057336,-0.000215419,0.021637021,-0.040814310,9.783531189
1784241267.478690,-0.005183405,0.001367099,-0.060499404,-0.000078625,-0.000681998,-0.000368616,0.013707400,-0.028202889,9.788536072
1784241267.480694,-0.005180572,0.001370745,-0.060497090,0.000215951,-0.000270399,-0.000262165,0.006098669,-0.063922361,9.784712791
1784241267.482691,-0.005183727,0.001375087,-0.060493190,0.000144372,0.000407970,0.000232229,-0.005250539,-0.039385833,9.757064819
1784241267.484695,-0.005186254,0.001376138,-0.060489561,-0.000271525,0.000725531,0.000681087,0.003721611,-0.038300015,9.777254105
1784241267.486704,-0.005179903,0.001374664,-0.060487807,0.000036059,0.000537191,0.000862293,-0.000030557,-0.050479341,9.795554161
1784241267.488713,-0.005172338,0.001372690,-0.060484987,0.000945131,0.000194942,0.000940090,-0.023724264,-0.045431115,9.758352280
1784241267.490700,-0.005168494,0.001371289,-0.060485095,0.001462660,-0.000088046,0.000869984,-0.015160996,-0.040377844,9.788431168
1784241267.492697,-0.005173589,0.001371665,-0.060489710,0.000992331,-0.000173968,0.000312785,0.005124745,-0.032598704,9.792087555
1784241267.494746,-0.005174501,0.001374026,-0.060487676,0.000326656,0.000018025,0.000052192,-0.020079929,-0.076150887,9.787299156
1784241267.496737,-0.005173148,0.001374648,-0.060492281,0.000402371,0.000169844,-0.000136690,-0.024441216,-0.064564057,9.803958893
1784241267.498713,-0.005175645,0.001377564,-0.060497958,0.000350702,0.000320803,-0.000797737,0.023471063,-0.074875370,9.781521797
1784241267.500709,-0.005177115,0.001377019,-0.060501255,-0.000012974,0.000397738,-0.001189745,0.000106853,-0.038857792,9.799216270
1784241267.502715,-0.005177967,0.001372038,-0.060504574,-0.000155837,0.000073487,-0.001314777,-0.014934343,-0.022783361,9.771058083
1784241267.504724,-0.005175431,0.001373300,-0.060500935,0.000011514,-0.000042536,-0.000935414,-0.012796822,-0.031348802,9.774593353
1784241267.506724,-0.005172058,0.001376232,-0.060504206,0.000318705,0.000284927,-0.000656462,-0.012827197,-0.031993903,9.802385330
1784241267.508722,-0.005172492,0.001372761,-0.060509898,0.000341629,0.000205533,-0.001087153,0.008201723,-0.075191461,9.790472031
1784241267.510723,-0.005170534,0.001369786,-0.060506560,0.000352565,-0.000286990,-0.000952042,0.000305480,-0.058669217,9.812538147
1784241267.512714,-0.005162639,0.001369517,-0.060505863,0.000959031,-0.000384910,-0.000417967,0.000163064,-0.070735559,9.808425903
1784241267.514722,-0.005160635,0.001369996,-0.060510751,0.001404716,-0.000218865,-0.000587177,0.023993943,-0.066595629,9.813406944
1784241267.516766,-0.005162158,0.001365842,-0.060507685,0.001112160,-0.000290235,-0.000550030,-0.002768394,-0.052020844,9.828269958
1784241267.518743,-0.005165996,0.001369025,-0.060501114,0.000501372,-0.000162708,0.000253627,-0.002157890,-0.040617708,9.798752785
1784241267.520755,-0.005175431,0.001371741,-0.060496941,-0.000536666,0.000278131,0.000912286,-0.007627412,-0.010520035,9.797595978
1784241267.522758,-0.005182498,0.001369717,-0.060502108,-0.001656051,0.000284078,0.000595499,-0.002076932,-0.034304917,9.792965889
1784241267.524795,-0.005183980,0.001367586,-0.060510729,-0.001930556,-0.000036095,-0.000502712,0.004915984,-0.049646661,9.795563698
1784241267.526758,-0.005174510,0.001363294,-0.060520682,-0.000883249,-0.000370791,-0.001626263,-0.012038722,-0.041781057,9.791114807
1784241267.528750,-0.005178920,0.001361983,-0.060521852,-0.000319801,-0.000561565,-0.001939329,-0.008175850,-0.056996707,9.781605721
1784241267.530744,-0.005188114,0.001362048,-0.060522217,-0.001156227,-0.000493090,-0.001518355,0.010998382,-0.064675212,9.818786621
1784241267.532744,-0.005192908,0.001362976,-0.060528960,-0.001744030,-0.000207126,-0.001589418,-0.032646250,-0.078442380,9.754096031
1784241267.534741,-0.005194305,0.001369062,-0.060535673,-0.001642412,0.000412121,-0.002071298,-0.038264211,-0.057621889,9.797712326
1784241267.536750,-0.005197755,0.001371152,-0.060529642,-0.001498736,0.000803175,-0.001556081,-0.017945966,-0.047965057,9.789277077
1784241267.538749,-0.005204312,0.001369063,-0.060524963,-0.001745487,0.000529109,-0.000408194,-0.008045230,-0.046239275,9.780778885
1784241267.540748,-0.005211356,0.001370433,-0.060527448,-0.002195043,0.000335905,-0.000150022,-0.034932256,-0.040754087,9.813964844
1784241267.542746,-0.005205314,0.001372339,-0.060533125,-0.001686663,0.000424452,-0.000663361,-0.025432022,-0.074610829,9.769371986
1784241267.544746,-0.005197985,0.001373285,-0.060530294,-0.000341093,0.000458230,-0.000674909,-0.015462918,-0.065050684,9.793205261
1784241267.546752,-0.005194674,0.001380975,-0.060530875,0.000516243,0.000896040,-0.000338230,0.040005960,-0.043296196,9.784430504
1784241267.548753,-0.005196574,0.001390243,-0.060531188,0.000514592,0.001781036,-0.000307426,0.029667515,-0.043713674,9.798764229
1784241267.550756,-0.005198067,0.001388366,-0.060526773,0.000144154,0.001797652,0.000053913,-0.002131760,-0.036764119,9.823884010
1784241267.552750,-0.005195908,0.001380137,-0.060529582,0.000115514,0.000674202,0.000148735,-0.007514534,-0.040329326,9.767815590
1784241267.554849,-0.005198191,0.001378537,-0.060529962,0.000041389,-0.000123653,-0.000107091,-0.025118290,-0.045792241,9.811698914
1784241267.556780,-0.005202083,0.001381702,-0.060528185,-0.000385801,-0.000036770,0.000016552,0.002992342,-0.059961744,9.800426483
1784241267.558782,-0.005208031,0.001385452,-0.060536508,-0.000944914,0.000392502,-0.000433284,-0.032270372,-0.045080595,9.787487030
1784241267.560778,-0.005208434,0.001385423,-0.060537145,-0.001118555,0.000541706,-0.000923991,-0.014305131,-0.042743620,9.804555893
1784241267.562767,-0.005206199,0.001389021,-0.060534559,-0.000722724,0.000622230,-0.000540668,0.003430508,-0.062076937,9.782033920
1784241267.564767,-0.005206533,0.001396143,-0.060526643,-0.000430492,0.001163286,0.000318930,-0.010139077,-0.068840094,9.812462807
1784241267.566772,-0.005204776,0.001394333,-0.060526483,-0.000130521,0.001215512,0.000780905,-0.000379441,-0.080791257,9.774288177
1784241267.568775,-0.005206848,0.001387167,-0.060532734,-0.000028697,0.000288725,0.000155142,-0.000727092,-0.070666812,9.800356865
1784241267.570778,-0.005216056,0.001386168,-0.060528051,-0.000786516,-0.000343341,0.000005079,-0.020237878,-0.053181477,9.770858765
1784241267.572774,-0.005224391,0.001388978,-0.060525741,-0.001784740,-0.000136555,0.000476427,-0.019176928,-0.037717827,9.799652100
1784241267.574776,-0.005229584,0.001389004,-0.060530365,-0.002238445,0.000087008,0.000188826,-0.025633378,-0.012368079,9.837916374
1784241267.576774,-0.005230533,0.001386811,-0.060531542,-0.002174359,-0.000094930,-0.000256656,0.004221530,-0.033038344,9.792531013
1784241267.578783,-0.005226182,0.001383018,-0.060531136,-0.001480370,-0.000488540,-0.000238626,-0.007469060,-0.033486266,9.813589096
1784241267.580779,-0.005228473,0.001380362,-0.060536560,-0.000938148,-0.000791906,-0.000514355,-0.008824497,-0.035568919,9.793848038
1784241267.582780,-0.005238312,0.001380427,-0.060543571,-0.001532978,-0.000693146,-0.001220463,-0.007053632,-0.039022986,9.772307396
1784241267.584778,-0.005240564,0.001381745,-0.060546059,-0.001963859,-0.000352456,-0.001534784,0.000097297,-0.075307369,9.821398735
1784241267.586786,-0.005236088,0.001379215,-0.060542718,-0.001232793,-0.000299844,-0.001059172,-0.032860342,-0.056321569,9.794139862
1784241267.588791,-0.005227751,0.001374584,-0.060543112,0.000018317,-0.000666132,-0.000569392,0.009650426,-0.067104071,9.784695625
1784241267.590784,-0.005225672,0.001382482,-0.060541298,0.000720260,-0.000264076,-0.000317510,0.013091826,-0.042077575,9.787550926
1784241267.592791,-0.005221065,0.001387359,-0.060537376,0.000930982,0.000714258,0.000158155,0.024437804,-0.069476373,9.776625633
1784241267.594791,-0.005215873,0.001387795,-0.060532417,0.001295464,0.000919383,0.000718800,-0.019628679,-0.037330892,9.809068680
1784241267.596793,-0.005213727,0.001391383,-0.060529575,0.001396690,0.000909036,0.001053865,-0.013225150,-0.028750677,9.788058281
1784241267.598800,-0.005217028,0.001394039,-0.060532853,0.000894800,0.001055130,0.000738293,-0.024901783,-0.067893982,9.768966675
1784241267.600792,-0.005220888,0.001394315,-0.060536139,0.000166446,0.000970025,0.000091566,-0.034756362,-0.063987046,9.804400444
1784241267.602794,-0.005215930,0.001395597,-0.060533836,0.000229409,0.000701311,-0.000000688,-0.023124339,-0.032490499,9.764712334
1784241267.604801,-0.005206163,0.001400493,-0.060529925,0.001199659,0.000816586,0.000422706,-0.008655142,-0.019642642,9.822195053
1784241267.606801,-0.005201297,0.001404050,-0.060527876,0.001764810,0.001172189,0.000714381,0.018094014,-0.035942487,9.797905922
1784241267.608803,-0.005199100,0.001397633,-0.060533062,0.001663389,0.000666572,0.000308026,0.009449098,-0.046098206,9.792452812
1784241267.610797,-0.005201433,0.001391527,-0.060534790,0.001203235,-0.000362020,-0.000245018,-0.011081602,-0.074858397,9.778351784
1784241267.612805,-0.005200851,0.001390674,-0.060531694,0.000798642,-0.000718040,-0.000086217,-0.000706958,-0.070507832,9.777939796
1784241267.614802,-0.005197205,0.001396163,-0.060525116,0.000908877,-0.000193229,0.000594087,-0.030889001,-0.077140950,9.820011139
1784241267.616815,-0.005203195,0.001399319,-0.060524665,0.000593625,0.000356455,0.000909467,-0.026445474,-0.045625549,9.790627480
1784241267.618808,-0.005202798,0.001399545,-0.060523972,0.000144071,0.000401716,0.000739749,-0.051138423,-0.045017183,9.812576294
1784241267.620814,-0.005200522,0.001401076,-0.060521662,0.000286139,0.000410852,0.000743088,-0.009527822,-0.056620527,9.794160843
1784241267.622814,-0.005203996,0.001400303,-0.060529478,0.000155213,0.000351580,0.000167123,0.001053960,-0.072824694,9.785549164
1784241267.624824,-0.005212921,0.001400105,-0.060534623,-0.000699646,0.000193695,-0.000759759,-0.016462797,-0.071927130,9.816920280
1784241267.626828,-0.005220553,0.001398359,-0.060535260,-0.001559581,-0.000011750,-0.000948464,0.005828181,-0.047920369,9.803198814
1784241267.628815,-0.005222599,0.001394631,-0.060530864,-0.001720070,-0.000404413,-0.000436682,-0.018678514,-0.034089018,9.792502403
1784241267.630821,-0.005224308,0.001397002,-0.060530957,-0.001508329,-0.000388242,-0.000025544,-0.010113240,-0.031856697,9.778180122
1784241267.632819,-0.005224377,0.001394573,-0.060524147,-0.001263682,-0.000342433,0.000436765,0.009510771,-0.043584954,9.753911972
1784241267.634820,-0.005227494,0.001389800,-0.060524274,-0.001181119,-0.000794009,0.000770698,-0.012877610,-0.072008103,9.821855545
1784241267.636940,-0.005230930,0.001391882,-0.060530737,-0.001241653,-0.000774158,0.000113126,-0.030396163,-0.074366711,9.807027817
1784241267.638866,-0.005235325,0.001392686,-0.060524713,-0.001373054,-0.000383317,0.000051242,-0.021496622,-0.043153644,9.812169075
1784241267.640839,-0.005238889,0.001396399,-0.060520276,-0.001541511,0.000023648,0.000746849,-0.030279931,-0.065343894,9.798119545
1784241267.642842,-0.005238391,0.001399113,-0.060522486,-0.001318793,0.000373821,0.000694834,-0.008180331,-0.056221608,9.798647881
1784241267.644840,-0.005236967,0.001395355,-0.060526587,-0.000817106,0.000124824,0.000077014,-0.005317451,-0.041940425,9.801432610
1784241267.646839,-0.005243679,0.001400907,-0.060518403,-0.000992586,0.000232935,0.000331713,-0.008947304,-0.083449274,9.785470963
1784241267.648838,-0.005246948,0.001407267,-0.060511567,-0.001440222,0.000994572,0.001260679,-0.014648888,-0.071394056,9.801682472
1784241267.650842,-0.005248681,0.001407516,-0.060511135,-0.001389489,0.001170580,0.001412407,0.002932264,-0.065299131,9.795014381
1784241267.652843,-0.005251608,0.001405208,-0.060507521,-0.001303425,0.000777622,0.001303492,-0.004252956,-0.066064909,9.789622307
1784241267.654840,-0.005258108,0.001408423,-0.060502548,-0.001564750,0.000690959,0.001531626,-0.001632191,-0.032315694,9.827500343
1784241267.656843,-0.005256527,0.001408377,-0.060499985,-0.001572595,0.000770294,0.001626696,-0.021928992,-0.043424159,9.787957191
1784241267.658842,-0.005254777,0.001410183,-0.060502466,-0.001017610,0.000735146,0.001190876,-0.042395737,-0.026794991,9.817633629
1784241267.660847,-0.005254907,0.001410156,-0.060508419,-0.000630583,0.000659271,0.000295420,-0.014034109,-0.019935757,9.810082436
1784241267.662888,-0.005255310,0.001407806,-0.060506418,-0.000624074,0.000281100,-0.000052266,0.018772939,-0.017515063,9.788610458
1784241267.664847,-0.005256968,0.001414950,-0.060505677,-0.000723630,0.000489943,0.000148276,0.002717234,-0.081991330,9.811494827
1784241267.666853,-0.005254297,0.001422778,-0.060509726,-0.000352676,0.001431811,-0.000115718,-0.012347167,-0.106121510,9.766490936
1784241267.668852,-0.005252026,0.001423253,-0.060513545,0.000184613,0.001666973,-0.000617004,-0.012601535,-0.087155491,9.809205055
1784241267.670857,-0.005252428,0.001423751,-0.060509380,0.000261285,0.001280274,-0.000426188,-0.005378277,-0.048094239,9.784804344
1784241267.672850,-0.005254790,0.001423928,-0.060508683,0.000027522,0.001035806,0.000019447,-0.009530012,-0.057043049,9.790570259
1784241267.674856,-0.005250369,0.001426237,-0.060513303,0.000185454,0.000983823,-0.000250398,-0.037867349,-0.024904836,9.795681953
1784241267.676860,-0.005242796,0.001430454,-0.060516566,0.000844902,0.001067738,-0.000716211,-0.010784623,-0.048603572,9.803176880
1784241267.678860,-0.005237057,0.001431948,-0.060514528,0.001414029,0.001071149,-0.000604436,0.003535181,-0.051929634,9.804066658
1784241267.680866,-0.005238535,0.001431397,-0.060511183,0.001318792,0.000842374,-0.000073813,0.005344019,-0.053868111,9.758325577
1784241267.682861,-0.005239180,0.001429179,-0.060514491,0.000832312,0.000484433,-0.000050024,0.041282557,-0.049130578,9.783496857
1784241267.684862,-0.005237393,0.001434431,-0.060515609,0.000699895,0.000619148,-0.000337019,0.014573493,-0.067672513,9.792767525
1784241267.686875,-0.005238552,0.001433602,-0.060513329,0.000603883,0.000840950,-0.000166314,0.002059663,-0.062660269,9.803546906
1784241267.688880,-0.005237968,0.001426139,-0.060515586,0.000452439,0.000139891,-0.000119100,-0.038716245,-0.021268317,9.789875984
1784241267.690871,-0.005240578,0.001419239,-0.060515996,0.000192454,-0.000872080,-0.000268253,-0.026938884,-0.048809584,9.798228264
1784241267.692868,-0.005239510,0.001421137,-0.060513433,0.000008515,-0.001035367,-0.000048771,-0.021378616,-0.071301453,9.800780296
1784241267.694875,-0.005238048,0.001420562,-0.060519114,0.000151254,-0.000723109,-0.000247075,-0.036478266,-0.057714842,9.807577133
1784241267.696881,-0.005243260,0.001418533,-0.060527734,-0.000107644,-0.000775058,-0.001151847,-0.019057311,-0.065852918,9.786471367
1784241267.698877,-0.005247164,0.001415093,-0.060526803,-0.000661065,-0.001009726,-0.001361344,-0.005386789,-0.047350936,9.806328773
1784241267.700884,-0.005250261,0.001412177,-0.060527980,-0.000956772,-0.001166939,-0.001008263,0.003369801,-0.067014046,9.783346176
1784241267.702879,-0.005247919,0.001409010,-0.060532879,-0.000700589,-0.001230119,-0.001147152,0.009613889,-0.069013566,9.801272392
1784241267.704881,-0.005246509,0.001403662,-0.060538858,-0.000207587,-0.001439449,-0.001573686,-0.022230444,-0.066067047,9.822332382
1784241267.706881,-0.005248599,0.001402427,-0.060538962,-0.000119632,-0.001519015,-0.001559504,-0.019890092,-0.059252366,9.804892540
1784241267.708878,-0.005247416,0.001401581,-0.060534813,-0.000071973,-0.001275020,-0.000861547,-0.036608987,-0.029262159,9.839143753
1784241267.710883,-0.005247297,0.001401012,-0.060530394,0.000035104,-0.001027937,-0.000045711,-0.030585920,-0.051648501,9.826002121
1784241267.712882,-0.005248616,0.001397050,-0.060530782,-0.000033712,-0.001114463,0.000240018,-0.041747373,-0.047009252,9.823781013
1784241267.714888,-0.005251734,0.001392277,-0.060532231,-0.000302959,-0.001460686,0.000049103,-0.007630300,-0.047322188,9.806327820
1784241267.716887,-0.005246353,0.001390686,-0.060526226,-0.000081591,-0.001468075,0.000345294,0.000964088,-0.043644242,9.777666092
1784241267.718889,-0.005240136,0.001387401,-0.060522884,0.000712837,-0.001374282,0.000887557,-0.007849407,-0.028482998,9.803757668
1784241267.720888,-0.005239981,0.001390015,-0.060520843,0.000951444,-0.001048638,0.001012707,-0.017755045,-0.032273695,9.787583351
1784241267.722891,-0.005238825,0.001390432,-0.060522269,0.000730642,-0.000589172,0.000779555,-0.019259041,-0.044850234,9.794674873
1784241267.724890,-0.005238988,0.001387225,-0.060529836,0.000548986,-0.000646230,-0.000042374,-0.024600090,-0.042817701,9.770472527
1784241267.726905,-0.005241028,0.001386923,-0.060534183,0.000199397,-0.000756232,-0.000840438,-0.025419353,-0.036515668,9.767822266
1784241267.728897,-0.005249118,0.001390161,-0.060536660,-0.000593801,-0.000400683,-0.001077262,-0.002222061,-0.082766771,9.803414345
1784241267.730901,-0.005255649,0.001389671,-0.060541011,-0.001424358,-0.000102945,-0.001249972,-0.052803136,-0.073046610,9.787735939
1784241267.732898,-0.005259811,0.001392122,-0.060541365,-0.001705499,0.000001581,-0.001231487,-0.017317163,-0.067928493,9.823222160
1784241267.734905,-0.005259942,0.001392358,-0.060544651,-0.001475993,0.000126599,-0.001144851,0.019601170,-0.060120415,9.792820930
1784241267.736933,-0.005259511,0.001390411,-0.060547423,-0.001002426,0.000089371,-0.001244431,0.028426355,-0.072352603,9.795887947
1784241267.738922,-0.005255142,0.001388472,-0.060545139,-0.000352560,-0.000087356,-0.000938236,-0.000817893,-0.077462561,9.811072350
1784241267.740909,-0.005252706,0.001380190,-0.060543947,0.000204757,-0.000758640,-0.000447288,-0.017626099,-0.058308885,9.794141769
1784241267.742943,-0.005253912,0.001377485,-0.060539812,0.000284635,-0.001280920,0.000036021,-0.024381140,-0.059226677,9.809372902
1784241267.744914,-0.005256148,0.001380655,-0.060536426,0.000025432,-0.000884894,0.000536344,0.015437866,-0.070781574,9.787368774
1784241267.746915,-0.005252316,0.001379249,-0.060532011,0.000182214,-0.000402239,0.000920506,0.023437010,-0.039985895,9.789814949
1784241267.748916,-0.005246932,0.001373052,-0.060525496,0.000813383,-0.000687505,0.001414259,-0.033159483,-0.042572107,9.814403534
1784241267.750933,-0.005242832,0.001371116,-0.060522422,0.001235488,-0.001056351,0.001682737,-0.051454429,-0.035048187,9.797396660
1784241267.752927,-0.005243958,0.001378985,-0.060522735,0.001082631,-0.000525244,0.001412697,-0.017141709,-0.018011464,9.797090530
1784241267.754917,-0.005242515,0.001377079,-0.060522843,0.000791004,-0.000135066,0.000999087,0.029173581,-0.048117578,9.788871765
1784241267.756921,-0.005239586,0.001376127,-0.060519230,0.000882134,-0.000143747,0.000967403,-0.003309747,-0.061256941,9.804897308
1784241267.758941,-0.005238340,0.001380589,-0.060520627,0.000935339,0.000282605,0.000856453,-0.024266291,-0.050620023,9.795977592
1784241267.760936,-0.005243027,0.001378748,-0.060519677,0.000447892,0.000383988,0.000593107,-0.010134929,-0.032838471,9.790277481
1784241267.762935,-0.005245045,0.001378217,-0.060515523,-0.000147050,0.000098122,0.000777965,-0.008857811,-0.037452973,9.806838036
1784241267.764929,-0.005248911,0.001378224,-0.060515091,-0.000524769,0.000015487,0.000877316,-0.029855801,-0.068380445,9.783306122
1784241267.766929,-0.005251760,0.001382015,-0.060517300,-0.000760589,0.000155512,0.000517628,0.002606532,-0.054596364,9.802703857
1784241267.768951,-0.005253740,0.001384122,-0.060515262,-0.000804528,0.000399471,0.000364903,-0.022089874,-0.056446828,9.792354584
1784241267.770928,-0.005256252,0.001386236,-0.060514029,-0.000891339,0.000576344,0.000488227,-0.006330924,-0.053381953,9.774008751
1784241267.772933,-0.005255890,0.001381559,-0.060510695,-0.000814841,0.000271153,0.000666129,-0.026519699,-0.050264146,9.813014030
1784241267.774937,-0.005263523,0.001378685,-0.060504153,-0.001107192,-0.000291620,0.001154316,-0.018529719,-0.058751702,9.795035362
1784241267.776961,-0.005271599,0.001376778,-0.060504265,-0.001841954,-0.000514538,0.001275495,-0.022468599,-0.048593994,9.822894096
1784241267.778961,-0.005274140,0.001376503,-0.060499314,-0.002031503,-0.000500003,0.001256996,-0.007282471,-0.057040002,9.786089897
1784241267.780939,-0.005271307,0.001380414,-0.060496997,-0.001460792,-0.000120071,0.001409170,0.003409679,-0.063862421,9.781124115
1784241267.782943,-0.005271331,0.001377883,-0.060491528,-0.000774906,0.000063576,0.001556042,0.004069448,-0.045180988,9.799179077
1784241267.784945,-0.005271751,0.001377052,-0.060484182,-0.000496532,-0.000126342,0.002003865,-0.009765699,-0.040360995,9.776331902
1784241267.786952,-0.005271980,0.001376076,-0.060486682,-0.000454761,-0.000223640,0.001788518,-0.001320671,-0.044346444,9.817561150
1784241267.788950,-0.005272690,0.001372337,-0.060486000,-0.000443468,-0.000489538,0.001179228,0.010767648,-0.046738293,9.817108154
1784241267.790943,-0.005275500,0.001371801,-0.060483176,-0.000562276,-0.000648089,0.001096397,0.003206860,-0.041652568,9.808614731
1784241267.792944,-0.005279372,0.001368531,-0.060486753,-0.000863524,-0.000615512,0.000747710,0.000081485,-0.039058104,9.827459335
1784241267.794954,-0.005282141,0.001371444,-0.060486566,-0.001080011,-0.000356716,0.000314492,-0.009106098,-0.022086186,9.788554192
1784241267.796952,-0.005276916,0.001374796,-0.060485322,-0.000782423,0.000202896,0.000326621,-0.025760159,-0.026337180,9.786268234
1784241267.798952,-0.005276484,0.001378203,-0.060483534,-0.000348552,0.000643560,0.000444296,-0.025703896,-0.059025008,9.783369064
1784241267.800952,-0.005275780,0.001381612,-0.060487606,-0.000176637,0.000932350,0.000168576,-0.033773519,-0.058460839,9.781572342
1784241267.802956,-0.005272639,0.001381137,-0.060494091,0.000198963,0.000765480,-0.000593593,-0.001374131,-0.049226318,9.810803413
1784241267.804958,-0.005273848,0.001380060,-0.060499240,0.000342888,0.000339771,-0.001222933,0.007900445,-0.027921470,9.759390831
1784241267.806966,-0.005279657,0.001379737,-0.060502004,-0.000292369,0.000198070,-0.001428913,0.009669992,-0.064518057,9.799060822
1784241267.808967,-0.005279224,0.001383671,-0.060496233,-0.000644747,0.000431098,-0.000836794,0.004340112,-0.060776349,9.786525726
1784241267.810960,-0.005276346,0.001391561,-0.060495753,-0.000245463,0.001114432,-0.000184917,-0.005534614,-0.059865233,9.802213669
1784241267.812958,-0.005271935,0.001394728,-0.060500622,0.000336027,0.001577529,-0.000431835,-0.022369236,-0.078104764,9.814184189
1784241267.814965,-0.005273623,0.001398955,-0.060500961,0.000449689,0.001666576,-0.000667743,0.000980596,-0.078267008,9.794927597
1784241267.816968,-0.005275333,0.001398955,-0.060504254,0.000114651,0.001573294,-0.000732834,-0.024665684,-0.046982892,9.789276123
1784241267.818971,-0.005277911,0.001395233,-0.060499854,-0.000190289,0.000964026,-0.000458432,-0.002471894,-0.030632809,9.781332016
1784241267.820966,-0.005274599,0.001393838,-0.060499959,-0.000089282,0.000353375,-0.000042327,-0.010384426,-0.052234340,9.808983803
1784241267.822970,-0.005275114,0.001396619,-0.060497649,0.000152041,0.000339581,0.000119054,-0.005463882,-0.016448593,9.808320999
1784241267.824968,-0.005275535,0.001395786,-0.060487915,0.000073514,0.000364177,0.000904325,0.008838433,0.014435125,9.787013054
1784241267.826981,-0.005269458,0.001396125,-0.060488276,0.000196952,0.000327256,0.001295850,0.008918761,-0.013604942,9.823596001
1784241267.828973,-0.005270142,0.001394247,-0.060493972,0.000270536,0.000234957,0.000533676,-0.015206898,-0.005987200,9.803894997
1784241267.830973,-0.005272240,0.001385747,-0.060489856,0.000008452,-0.000532727,0.000280917,-0.001385983,-0.049725160,9.817974091
1784241267.832975,-0.005271795,0.001379689,-0.060491044,-0.000114208,-0.001400581,0.000402055,0.011286427,-0.078107074,9.816907883
1784241267.834975,-0.005273570,0.001375436,-0.060496759,-0.000180760,-0.001740967,-0.000175952,-0.020351060,-0.097338609,9.805994034
1784241267.836988,-0.005273123,0.001378226,-0.060497109,-0.000060031,-0.001379119,-0.000539203,0.012153294,-0.041580331,9.845387459
1784241267.838984,-0.005270588,0.001379486,-0.060491350,0.000319413,-0.000745435,-0.000025074,-0.004368078,-0.035868067,9.827922821
1784241267.840987,-0.005271006,0.001377079,-0.060502093,0.000376872,-0.000619110,-0.000356773,-0.013564010,-0.055336185,9.809856415
1784241267.842984,-0.005267621,0.001374608,-0.060509920,0.000490923,-0.000738208,-0.001520116,-0.004102428,-0.054745045,9.772658348
1784241267.844984,-0.005264794,0.001377725,-0.060509466,0.000793229,-0.000453999,-0.001607009,0.034533434,-0.051217373,9.774063110
1784241267.846994,-0.005256760,0.001372778,-0.060517844,0.001284538,-0.000267658,-0.001706097,0.029248623,-0.040635783,9.807749748
1784241267.848996,-0.005257225,0.001366128,-0.060527820,0.001419981,-0.000791166,-0.002486329,-0.015803332,-0.057705861,9.769041061
1784241267.850991,-0.005261376,0.001363758,-0.060534317,0.000722660,-0.001182728,-0.002929678,0.005184287,-0.066071175,9.773489952
1784241267.852992,-0.005258572,0.001361211,-0.060536548,0.000451950,-0.001149759,-0.002727001,-0.034115661,-0.087098554,9.776905060
1784241267.854995,-0.005259235,0.001361452,-0.060539842,0.000491200,-0.000949628,-0.002361375,-0.030402321,-0.075631104,9.795811653
1784241267.856995,-0.005266123,0.001361479,-0.060537014,-0.000094950,-0.000727312,-0.001752586,-0.014109604,-0.061363790,9.839406967
1784241267.858999,-0.005263859,0.001362475,-0.060528602,-0.000324407,-0.000518359,-0.000514234,-0.002993847,-0.037689507,9.766490936
1784241267.860997,-0.005256777,0.001365279,-0.060526028,0.000397096,-0.000123622,0.000372604,-0.012869956,-0.037194561,9.777693748
1784241267.862997,-0.005252833,0.001365880,-0.060530387,0.000978636,0.000132652,0.000152084,-0.015070708,-0.031965159,9.802383423
1784241267.865000,-0.005254814,0.001367198,-0.060535800,0.000787718,0.000221296,-0.000551640,0.002362337,-0.002417880,9.774345398
1784241267.867007,-0.005255662,0.001366994,-0.060540963,0.000269101,0.000290297,-0.001119029,0.030610137,-0.076905474,9.802138329
1784241267.869009,-0.005255561,0.001364571,-0.060539484,0.000032071,0.000084178,-0.001064224,-0.027669894,-0.109290697,9.798736572
1784241267.871024,-0.005251809,0.001355212,-0.060534842,0.000284481,-0.000740626,-0.000359466,-0.026570497,-0.052691549,9.839450836
1784241267.873014,-0.005254977,0.001351402,-0.060534168,0.000286332,-0.001465186,0.000098810,-0.004484483,-0.045297511,9.831001282
1784241267.875012,-0.005257010,0.001348737,-0.060532153,-0.000104758,-0.001537703,0.000254054,-0.022158006,-0.061847795,9.795907021
1784241267.877014,-0.005256019,0.001350401,-0.060534637,-0.000113858,-0.001214193,0.000153061,-0.003525983,-0.043205559,9.787078857
1784241267.879019,-0.005263307,0.001353896,-0.060537908,-0.000476722,-0.000558483,-0.000279774,-0.005968360,-0.060551904,9.773514748
1784241267.881013,-0.005265032,0.001355467,-0.060531620,-0.000959254,-0.000064105,0.000000367,-0.010201623,-0.038633350,9.786205292
1784241267.883016,-0.005263153,0.001352256,-0.060532797,-0.000701297,-0.000161394,0.000347281,-0.008919736,-0.045236465,9.767333984
1784241267.885021,-0.005265716,0.001349071,-0.060536113,-0.000569563,-0.000551662,-0.000051730,-0.027220266,-0.073320262,9.780138016
1784241267.887028,-0.005275493,0.001351232,-0.060531951,-0.001194128,-0.000506428,0.000019322,-0.020284705,-0.054767005,9.804921150
1784241267.889026,-0.005278018,0.001352021,-0.060531780,-0.001646758,-0.000204951,0.000307256,-0.029755060,-0.097475052,9.779084206
1784241267.891037,-0.005282986,0.001348331,-0.060534559,-0.001708074,-0.000345329,0.000046087,-0.021546630,-0.048411533,9.795546532
1784241267.893028,-0.005277806,0.001347966,-0.060539458,-0.001228982,-0.000577131,-0.000487046,-0.008261119,-0.062127773,9.810265541
1784241267.895031,-0.005273727,0.001343120,-0.060545973,-0.000265442,-0.000823070,-0.001127606,-0.004596353,-0.056312118,9.804927826
1784241267.897073,-0.005276656,0.001338771,-0.060543697,-0.000073052,-0.001197719,-0.001108747,-0.023143670,-0.067396253,9.821874619
1784241267.899038,-0.005274119,0.001340032,-0.060539003,-0.000038714,-0.001060174,-0.000334714,-0.007752287,-0.057606220,9.803569794
1784241267.901045,-0.005277434,0.001341889,-0.060537763,-0.000081554,-0.000562817,0.000159059,-0.002803960,-0.056354184,9.807619095
1784241267.903041,-0.005276987,0.001338211,-0.060532827,-0.000242676,-0.000505194,0.000534915,-0.026013117,-0.082945012,9.808322906
1784241267.905045,-0.005275812,0.001336045,-0.060535062,-0.000055062,-0.000735054,0.000573019,-0.022939805,-0.052413225,9.793726921
1784241267.907044,-0.005272670,0.001339230,-0.060530357,0.000213085,-0.000453831,0.000585434,-0.028205173,-0.040462311,9.823836327
1784241267.909048,-0.005271211,0.001339704,-0.060521945,0.000426719,-0.000073596,0.001317556,-0.010102488,-0.067740671,9.783777237
1784241267.911044,-0.005268440,0.001337783,-0.060520191,0.000597008,-0.000155523,0.001650354,-0.029780468,-0.059275333,9.825954437
1784241267.913044,-0.005267600,0.001337548,-0.060524277,0.000722127,-0.000300012,0.001043887,-0.017722467,-0.028369229,9.805541992
1784241267.915048,-0.005265566,0.001341993,-0.060516376,0.000762717,0.000024710,0.001019590,0.005121297,-0.032220691,9.801952362
1784241267.917057,-0.005266869,0.001338421,-0.060514625,0.000518777,0.000135786,0.001397895,0.018973982,-0.037307411,9.799243927
1784241267.919046,-0.005266500,0.001335206,-0.060520608,0.000229198,-0.000298311,0.000731746,-0.002066015,-0.072619103,9.762232780
1784241267.921075,-0.005270096,0.001335740,-0.060518302,-0.000051822,-0.000398023,0.000283662,0.002682189,-0.085104808,9.808335304
1784241267.923059,-0.005274980,0.001338725,-0.060515191,-0.000524141,-0.000003560,0.000573176,0.007517911,-0.058093850,9.781614304
1784241267.925063,-0.005274833,0.001340281,-0.060515009,-0.000613982,0.000353942,0.000640464,-0.002694345,-0.047788873,9.800052643
1784241267.927080,-0.005278393,0.001339768,-0.060512464,-0.000663799,0.000380442,0.000652100,-0.004411763,-0.077044904,9.821829796
1784241267.929059,-0.005277204,0.001339191,-0.060511503,-0.000629462,0.000254660,0.000714037,0.013345107,-0.094589561,9.799767494
1784241267.931064,-0.005276233,0.001343388,-0.060509715,-0.000312125,0.000430196,0.000706955,0.010916269,-0.071807608,9.813809395
1784241267.933064,-0.005280084,0.001343980,-0.060511135,-0.000367878,0.000742153,0.000539898,-0.032338168,-0.087258279,9.796184540
1784241267.935063,-0.005286867,0.001345081,-0.060511492,-0.000934786,0.000759981,0.000271782,0.011637770,-0.051422995,9.781212807
1784241267.937068,-0.005292545,0.001345089,-0.060510267,-0.001475152,0.000737236,0.000256579,0.021443047,-0.056124475,9.794641495
1784241267.939068,-0.005294817,0.001345077,-0.060506910,-0.001562842,0.000643820,0.000498287,-0.006612404,-0.038682517,9.786657333
1784241267.941064,-0.005294817,0.001345077,-0.060506910,-0.001340855,0.000266478,0.000709204,-0.016207596,-0.015706845,9.786346436
1784241267.943064,-0.005284770,0.001342983,-0.060545173,-0.001071200,-0.000134893,0.000735217,-0.017689331,-0.026891803,9.786722183
1784241267.945067,-0.005284770,0.001342983,-0.060545173,-0.001067347,0.000114448,0.000792243,-0.011144204,-0.078594707,9.799846649
1784241267.947071,-0.005286362,0.001343044,-0.060545173,-0.000916785,0.000512479,0.000510293,-0.006366481,-0.054878462,9.795519829
1784241267.949075,-0.005286362,0.001343044,-0.060545173,-0.000972477,0.000429893,-0.000293153,-0.006195702,-0.042182930,9.774081230
1784241267.951072,-0.005286362,0.001343044,-0.060545173,-0.001431063,0.000281143,-0.000374162,-0.047868032,-0.035119608,9.800986290
1784241267.953074,-0.005284055,0.001345572,-0.060545158,-0.001279425,0.000091341,0.000253111,-0.009324764,-0.041643851,9.766908646
1784241267.955076,-0.005284055,0.001345572,-0.060545158,-0.000901297,-0.000426358,0.000473711,0.001891745,-0.078980461,9.767577171
1784241267.957078,-0.005285770,0.001344836,-0.060545161,-0.000770166,-0.000836168,0.000345175,-0.000076420,-0.054488737,9.792389870
1784241267.959084,-0.005285770,0.001344836,-0.060545161,-0.000329485,-0.000994217,0.000216765,0.002020430,-0.028622199,9.805560112
1784241267.961080,-0.005285770,0.001344836,-0.060545161,0.000321089,-0.000717368,0.000198135,-0.010712976,-0.041553840,9.819810867
1784241267.963131,-0.005285498,0.001343863,-0.060545165,0.000328471,-0.000151668,0.000348316,0.002895101,-0.032055225,9.782672882
1784241267.965088,-0.005285498,0.001343863,-0.060545165,-0.000356610,-0.000003433,0.000671776,-0.001034345,-0.021417756,9.806051254
1784241267.967091,-0.005283613,0.001343308,-0.060545169,-0.000149465,0.000239826,0.001089807,-0.016151441,-0.046774529,9.807666779
1784241267.969091,-0.005283613,0.001343308,-0.060545169,0.000999509,0.000608252,0.000747124,-0.024272436,-0.049047574,9.826922417
1784241267.971099,-0.005283613,0.001343308,-0.060545169,0.001417411,0.000452726,-0.000083202,0.005536229,-0.033303604,9.827501297
1784241267.973101,-0.005282711,0.001342488,-0.060545176,0.001011208,-0.000087105,-0.000330556,0.008055865,-0.049289819,9.802742958
1784241267.975092,-0.005282711,0.001342488,-0.060545176,0.000644210,-0.000353938,-0.000456004,-0.017556356,-0.052895196,9.788796425
1784241267.977106,-0.005282815,0.001342273,-0.060545176,0.000923007,-0.000264564,-0.000815719,-0.018695556,-0.073029228,9.786873817
1784241267.979101,-0.005282815,0.001342273,-0.060545176,0.001367181,0.000355920,-0.001074291,0.000181988,-0.070586108,9.787354469
1784241267.981095,-0.005282815,0.001342273,-0.060545176,0.001418048,0.000772000,-0.000793944,-0.009255831,-0.070989646,9.798104286
1784241267.983111,-0.005284104,0.001342549,-0.060545173,0.001243645,-0.000022332,-0.000307336,-0.003177231,-0.051700309,9.783885956
1784241267.985098,-0.005284104,0.001342549,-0.060545173,0.000956438,-0.000417726,-0.000204806,-0.021149322,-0.054091334,9.774438858
1784241267.987115,-0.005284469,0.001342858,-0.060545173,0.000395501,0.000198318,-0.000179791,-0.001454630,-0.021592870,9.768389702
1784241267.989115,-0.005284469,0.001342858,-0.060545173,-0.000212919,0.000611927,0.000054541,-0.010400372,-0.054791749,9.790583611
1784241267.991109,-0.005284469,0.001342858,-0.060545173,-0.000568220,0.000695967,0.000278334,-0.005782032,-0.042465311,9.813084602
1784241267.993109,-0.005284127,0.001342116,-0.060545176,-0.000807997,0.000811976,0.000279233,-0.011405551,-0.063736290,9.790078163
1784241267.995113,-0.005284127,0.001342116,-0.060545176,-0.000873481,0.000914638,0.000063542,-0.015781466,-0.091070585,9.798417091
1784241267.997125,-0.005286030,0.001342134,-0.060545176,-0.000760247,0.000773140,-0.000329210,0.023818213,-0.045792885,9.786641121
1784241267.999118,-0.005286030,0.001342134,-0.060545176,-0.000244741,0.000540613,-0.000813929,0.008213303,-0.035889145,9.808209419
1784241268.001115,-0.005286030,0.001342134,-0.060545176,0.000381613,0.000257643,-0.000697928,0.005123660,-0.031391546,9.811372757
1784241268.003121,-0.005284570,0.001341178,-0.060545184,0.000528043,-0.000126588,-0.000380235,-0.034822252,-0.069775559,9.799432755
1784241268.005124,-0.005284570,0.001341178,-0.060545184,0.000492164,-0.000364645,-0.000852812,-0.019701639,-0.042770021,9.818001747
1784241268.007128,-0.005283372,0.001341393,-0.060545184,0.000487553,-0.000301984,-0.001574818,-0.006962245,-0.028980613,9.809136391
1784241268.009127,-0.005283372,0.001341393,-0.060545184,0.000196460,-0.000021791,-0.001684750,0.025052477,-0.016397934,9.809246063
1784241268.011136,-0.005283372,0.001341393,-0.060545184,-0.000303288,0.000451986,-0.001204184,0.001062830,-0.035164770,9.782202721
1784241268.013126,-0.005282131,0.001340663,-0.060545191,-0.000523538,0.000723469,-0.000836226,-0.008895335,-0.042612288,9.776317596
1784241268.015126,-0.005282131,0.001340663,-0.060545191,-0.000883723,0.000711169,-0.001183422,-0.014515960,-0.024244279,9.786742210
1784241268.017130,-0.005280291,0.001340965,-0.060545191,-0.001379930,0.000742830,-0.001779480,-0.012636687,-0.053895690,9.794622421
1784241268.019136,-0.005280291,0.001340965,-0.060545191,-0.001361593,0.000744686,-0.002357632,0.006148275,-0.058667645,9.801783562
1784241268.021127,-0.005280291,0.001340965,-0.060545191,-0.000875273,0.001133379,-0.002198241,0.007540862,-0.092665747,9.791704178
1784241268.023142,-0.005282925,0.001339982,-0.060545202,-0.000666199,0.001591675,-0.001034377,-0.015711674,-0.086466961,9.780961037
1784241268.025137,-0.005282925,0.001339982,-0.060545202,-0.001221344,0.001664618,-0.000423765,-0.025799977,-0.065051995,9.812024117
1784241268.027148,-0.005283982,0.001339882,-0.060545199,-0.001517154,0.001646912,-0.000358251,-0.019754991,-0.049270045,9.787024498
1784241268.029139,-0.005283982,0.001339882,-0.060545199,-0.001360000,0.000947023,-0.000476227,0.000248412,-0.025987748,9.816335678
1784241268.031140,-0.005283982,0.001339882,-0.060545199,-0.001339764,0.000008299,-0.000907694,-0.015653193,-0.043552347,9.794686317
1784241268.033147,-0.005282911,0.001339807,-0.060545202,-0.001050282,-0.000284413,-0.000912517,-0.003232647,-0.057406165,9.767262459
1784241268.035151,-0.005282911,0.001339807,-0.060545202,-0.000402179,-0.000231381,-0.001076319,-0.003850453,-0.068056449,9.816957474
1784241268.037146,-0.005283947,0.001338421,-0.060545206,0.000105403,-0.000317465,-0.001467063,0.013861668,-0.050390847,9.821123123
1784241268.039145,-0.005283947,0.001338421,-0.060545206,-0.000055503,-0.000810752,-0.001050937,-0.026663212,-0.063960157,9.786026001
1784241268.041147,-0.005283947,0.001338421,-0.060545206,-0.000319523,-0.001314066,-0.000496103,-0.018394560,-0.084332570,9.800699234
1784241268.043145,-0.005285635,0.001339232,-0.060545199,-0.000219468,-0.001500897,-0.000577845,-0.029721785,-0.091944091,9.820366859
1784241268.045151,-0.005285635,0.001339232,-0.060545199,0.000274792,-0.001207351,-0.000995366,-0.000260312,-0.066882566,9.834453583
1784241268.047158,-0.005285788,0.001338437,-0.060545206,0.000798760,-0.000869721,-0.001226369,0.002524016,-0.026978815,9.762531281
1784241268.049160,-0.005285788,0.001338437,-0.060545206,0.000597569,-0.000856115,-0.000638696,0.004241327,-0.030855767,9.800616264
1784241268.051163,-0.005285788,0.001338437,-0.060545206,0.000579634,-0.000492255,0.000549770,-0.023199653,-0.035921935,9.806385994
1784241268.053155,-0.005285093,0.001338935,-0.060545206,0.001041312,0.000094669,0.000930703,-0.000360839,-0.041028254,9.790234566
1784241268.055237,-0.005285093,0.001338935,-0.060545206,0.000960109,0.000189846,0.000375310,-0.016772544,-0.062313873,9.788736343
1784241268.057165,-0.005285488,0.001339091,-0.060545206,0.000499224,-0.000131695,-0.000158466,-0.029752050,-0.059456207,9.788293839
1784241268.059165,-0.005285488,0.001339091,-0.060545206,0.000450251,-0.000602905,-0.000566233,-0.017250692,-0.026977042,9.797929764
1784241268.061170,-0.005285488,0.001339091,-0.060545206,0.000851275,-0.000716232,-0.000969623,0.001259272,-0.055398721,9.791936874
1784241268.063171,-0.005285166,0.001338897,-0.060545206,0.001202092,-0.000315547,-0.000917718,0.012384528,-0.063971043,9.780235291
1784241268.065165,-0.005285166,0.001338897,-0.060545206,0.001005827,0.000034111,-0.000699784,-0.024623724,-0.041788597,9.814864159
1784241268.067176,-0.005284830,0.001338890,-0.060545206,0.000207425,-0.000188307,-0.000833550,0.013333082,-0.095495015,9.801106453
1784241268.069173,-0.005284830,0.001338890,-0.060545206,-0.000305936,-0.000693943,-0.000788389,-0.003953223,-0.076567717,9.816902161
1784241268.071171,-0.005284830,0.001338890,-0.060545206,-0.000278034,-0.000618528,-0.000445497,-0.036655255,-0.036111567,9.794265747
1784241268.073173,-0.005284248,0.001340042,-0.060545199,-0.000397403,-0.000094435,-0.000139157,-0.034566019,-0.048705488,9.797325134
1784241268.075179,-0.005284248,0.001340042,-0.060545199,-0.000630492,0.000162610,0.000137237,-0.021360943,-0.032761510,9.799682617
1784241268.077181,-0.005283372,0.001341147,-0.060545195,-0.000349891,0.000148457,0.000103506,-0.017074630,-0.049803376,9.794197083
1784241268.079180,-0.005283372,0.001341147,-0.060545195,0.000743314,0.000380995,0.000009492,-0.014763215,-0.044027697,9.796926498
1784241268.081180,-0.005283372,0.001341147,-0.060545195,0.001194523,0.000567357,0.000716778,0.013357146,-0.056094129,9.804946899
1784241268.083181,-0.005283605,0.001340118,-0.060545199,0.000581322,0.000568729,0.001320042,-0.007249038,-0.053939242,9.791042328
1784241268.085188,-0.005283605,0.001340118,-0.060545199,0.000244867,0.000608080,0.001182244,0.010464694,-0.036260922,9.793413162
1784241268.087193,-0.005282526,0.001338625,-0.060545210,0.000416497,0.000739584,0.001191406,0.004387705,-0.020784413,9.770194054
1784241268.089190,-0.005282526,0.001338625,-0.060545210,0.000739123,0.000707479,0.001161578,-0.015245122,-0.047526147,9.785695076
1784241268.091193,-0.005282526,0.001338625,-0.060545210,0.000554689,0.000364296,0.001191556,-0.014655331,-0.036691803,9.773211479
1784241268.093189,-0.005281885,0.001338709,-0.060545210,0.000293124,0.000149005,0.001646629,0.003391154,-0.064008683,9.801747322
1784241268.095191,-0.005281885,0.001338709,-0.060545210,0.000756139,0.000254555,0.002070904,-0.006729042,-0.047708515,9.796013832
1784241268.097195,-0.005281313,0.001338748,-0.060545210,0.000839487,0.000174517,0.001999619,-0.007020657,-0.035115343,9.789817810
1784241268.099193,-0.005281313,0.001338748,-0.060545210,0.000117294,-0.000414439,0.001799073,0.004209275,-0.033540357,9.800149918
1784241268.101198,-0.005281313,0.001338748,-0.060545210,-0.000465158,-0.000900752,0.002284382,0.007556471,-0.053331617,9.804957390
1784241268.103198,-0.005280798,0.001337326,-0.060545217,-0.000663051,-0.000375728,0.002679288,-0.024601821,-0.078800246,9.789968491
1784241268.105200,-0.005280798,0.001337326,-0.060545217,-0.000223237,0.000416867,0.002573045,-0.038073864,-0.042340342,9.790637970
1784241268.107203,-0.005280333,0.001338429,-0.060545210,0.000489927,0.000522271,0.002457539,0.015015176,-0.068138935,9.794557571
1784241268.109201,-0.005280333,0.001338429,-0.060545210,0.000629449,0.000497262,0.002029239,0.002904936,-0.066325419,9.813388824
1784241268.111204,-0.005280333,0.001338429,-0.060545210,0.000388539,0.000450170,0.001156915,0.008674543,-0.036606397,9.782200813
1784241268.113207,-0.005279765,0.001337206,-0.060545217,0.000576857,0.000575150,0.000324332,-0.010902877,-0.060479123,9.772165298
1784241268.115230,-0.005279765,0.001337206,-0.060545217,0.001059064,0.000946369,0.000387830,-0.013190804,-0.062016841,9.803538322
1784241268.117213,-0.005279572,0.001337255,-0.060545217,0.001263329,0.001037285,0.000613372,0.004495417,-0.048608266,9.776291847
1784241268.119217,-0.005279572,0.001337255,-0.060545217,0.001139258,0.000822123,0.000179966,-0.007427173,-0.030318744,9.809125900
1784241268.121217,-0.005279572,0.001337255,-0.060545217,0.000919650,0.000572461,0.000567532,-0.021892909,-0.040707774,9.783937454
1784241268.123226,-0.005279291,0.001337691,-0.060545217,0.000611974,0.000331871,0.001878261,-0.029477110,-0.034996398,9.813557625
1784241268.125223,-0.005279291,0.001337691,-0.060545217,-0.000079300,0.000291620,0.002183259,-0.015154889,-0.038303386,9.811756134
1784241268.127247,-0.005277949,0.001338577,-0.060545217,-0.000310869,0.000226465,0.001900228,-0.029212028,-0.051446348,9.795071602
1784241268.129227,-0.005277949,0.001338577,-0.060545217,0.000061362,0.000116957,0.002055593,-0.018331308,-0.040569715,9.821154594
1784241268.131223,-0.005277949,0.001338577,-0.060545217,0.000190039,0.000201707,0.002006999,0.018418310,-0.046251342,9.797841072
1784241268.133225,-0.005278407,0.001337272,-0.060545217,0.000468408,0.000533767,0.001594309,0.036157601,-0.025129238,9.819960594
1784241268.135227,-0.005278407,0.001337272,-0.060545217,0.001091657,0.001168003,0.001152109,-0.011713448,-0.051676922,9.795983315
1784241268.137227,-0.005279045,0.001338167,-0.060545217,0.001323082,0.001110462,0.000826723,-0.012796539,-0.067315452,9.791847229
1784241268.139228,-0.005279045,0.001338167,-0.060545217,0.000872906,0.000609782,0.000170951,-0.017641976,-0.058839511,9.805794716
1784241268.141234,-0.005279045,0.001338167,-0.060545217,0.000403313,0.000464221,-0.000576553,-0.040814936,-0.046744119,9.784778595
1784241268.143235,-0.005279798,0.001339572,-0.060545206,-0.000030500,0.000268289,-0.000977333,-0.050508697,-0.031841282,9.785760880
1784241268.145231,-0.005279798,0.001339572,-0.060545206,-0.000579545,0.000325726,-0.001214397,-0.021029636,-0.080199651,9.791307449
1784241268.147236,-0.005281532,0.001340047,-0.060545202,-0.001047982,0.000763182,-0.001204483,-0.015604815,-0.075897142,9.806584358
1784241268.149236,-0.005281532,0.001340047,-0.060545202,-0.001263870,0.000989964,-0.001107314,-0.025300061,-0.059790324,9.827301025
1784241268.151240,-0.005281532,0.001340047,-0.060545202,-0.000882813,0.000771496,-0.001055861,-0.063755833,-0.051359404,9.782036781
1784241268.153239,-0.005282117,0.001342655,-0.060545187,-0.000101877,0.000337040,-0.001037164,-0.042844906,-0.028819187,9.788029671
1784241268.155243,-0.005282117,0.001342655,-0.060545187,0.000200602,0.000455619,-0.001057647,0.023008451,-0.036984324,9.809559822
1784241268.157244,-0.005280732,0.001340444,-0.060545202,-0.000424399,0.001017325,-0.000782434,0.032980014,-0.065805160,9.812075615
1784241268.159245,-0.005280732,0.001340444,-0.060545202,-0.000955404,0.001173688,-0.000312696,-0.017596517,-0.054833308,9.809406281
1784241268.161243,-0.005280732,0.001340444,-0.060545202,-0.001237069,0.000875470,-0.000460025,-0.029972196,-0.040219925,9.792901039
1784241268.163247,-0.005279795,0.001342492,-0.060545191,-0.001605772,0.000465426,-0.001128293,0.010740081,-0.050197974,9.799600601
1784241268.165248,-0.005279795,0.001342492,-0.060545191,-0.001493448,0.000375829,-0.001162053,0.016866326,-0.026479905,9.792586327
1784241268.167253,-0.005278224,0.001340779,-0.060545202,-0.000581471,0.000315289,-0.000481281,0.024282862,-0.043241229,9.805037498
1784241268.169253,-0.005278224,0.001340779,-0.060545202,0.000514549,0.000015760,-0.000184654,-0.005397954,-0.049060110,9.794660568
1784241268.171254,-0.005278224,0.001340779,-0.060545202,0.000517526,-0.000456328,-0.001198765,-0.011424245,-0.029536052,9.769225121
1784241268.173255,-0.005276397,0.001340334,-0.060545206,0.000104392,-0.000794433,-0.002154783,-0.006859083,-0.058056138,9.802224159
1784241268.175256,-0.005276397,0.001340334,-0.060545206,0.000600452,-0.000747885,-0.002108210,-0.011801209,-0.096443810,9.790764809
1784241268.177260,-0.005279141,0.001340604,-0.060545206,0.001250705,-0.000753088,-0.002074042,0.023709632,-0.054755289,9.787030220
1784241268.179262,-0.005279141,0.001340604,-0.060545206,0.000998526,-0.000983484,-0.001979358,0.017495016,-0.047660042,9.808590889
1784241268.181261,-0.005279141,0.001340604,-0.060545206,0.000004299,-0.000837264,-0.001801610,0.001992851,-0.069671847,9.781535149
1784241268.183290,-0.005279141,0.001340604,-0.060545206,-0.000986952,-0.000349551,-0.001724578,0.001992851,-0.069671847,9.781535149
1784241268.185274,-0.005281786,0.001338038,-0.060545221,-0.000948611,0.000140429,-0.001485984,-0.003794526,-0.063967571,9.808914185
1784241268.187272,-0.005281786,0.001338038,-0.060545221,-0.000160223,0.000632062,-0.001129694,-0.003794526,-0.063967571,9.808914185
1784241268.189321,-0.005282511,0.001336732,-0.060545228,0.000188711,0.000166006,-0.001091713,0.003749057,-0.070810162,9.812462807
1784241268.191284,-0.005282511,0.001336732,-0.060545228,0.000217507,-0.000997716,-0.001285615,0.003749057,-0.070810162,9.812462807
1784241268.193277,-0.005282838,0.001335633,-0.060545236,0.000518383,-0.001056197,-0.001476185,-0.028218051,-0.005810940,9.802537918
1784241268.195282,-0.005281831,0.001334574,-0.060545243,0.000615819,-0.000595170,-0.001341623,0.014967530,-0.072567679,9.787356377
1784241268.197279,-0.005281831,0.001334574,-0.060545243,0.000032219,-0.000576798,-0.001156146,0.006508071,-0.066669926,9.792318344
1784241268.199285,-0.005281831,0.001334574,-0.060545243,-0.000284319,-0.000634257,-0.001400338,-0.027373720,-0.048289102,9.788816452
1784241268.201283,-0.005281779,0.001335713,-0.060545236,0.000335443,-0.000666179,-0.001757341,-0.021054819,-0.007650256,9.796257019
1784241268.203282,-0.005281779,0.001335713,-0.060545236,0.001095299,-0.000532647,-0.001709169,-0.017809642,-0.035136342,9.812224388
1784241268.205281,-0.005281140,0.001336359,-0.060545232,0.000837459,-0.000053508,-0.000878959,-0.037468534,-0.028951772,9.797000885
1784241268.207285,-0.005281140,0.001336359,-0.060545232,-0.000018312,0.000375292,-0.000365036,-0.012052414,-0.041889157,9.806357384
1784241268.209283,-0.005281140,0.001336359,-0.060545232,-0.000518857,0.000221907,-0.000570706,0.001526833,-0.069802821,9.800810814
1784241268.211296,-0.005283489,0.001336507,-0.060545232,-0.000505349,-0.000072796,-0.000901470,0.026402021,-0.054383159,9.792864799
1784241268.213287,-0.005283489,0.001336507,-0.060545232,-0.000114650,-0.000236043,-0.001394263,-0.017486677,-0.046671435,9.795561790
1784241268.215295,-0.005283063,0.001336564,-0.060545232,0.000313304,-0.000429837,-0.001536825,-0.018227682,-0.067615300,9.843846321
1784241268.217296,-0.005283063,0.001336564,-0.060545232,0.000533300,-0.000591013,-0.001153538,-0.019777311,-0.049851548,9.805850029
1784241268.219305,-0.005283063,0.001336564,-0.060545232,0.000425082,-0.000436098,-0.000782967,-0.025944185,-0.077537678,9.803874016
1784241268.221293,-0.005283650,0.001336569,-0.060545232,0.000258187,-0.000036299,-0.000186619,-0.020316528,-0.057855044,9.798177719
1784241268.223292,-0.005283650,0.001336569,-0.060545232,0.000103434,0.000612967,0.000628844,0.001946253,-0.036907703,9.773674011
1784241268.225296,-0.005282931,0.001335151,-0.060545240,-0.000059834,0.001358475,0.000899406,-0.007172387,-0.046444736,9.808126450
1784241268.227310,-0.005282931,0.001335151,-0.060545240,-0.000106280,0.001831226,0.000699091,-0.001363659,-0.049143646,9.799148560
1784241268.229298,-0.005282931,0.001335151,-0.060545240,-0.000558952,0.001979932,0.000912444,-0.013840842,-0.043842055,9.769130707
1784241268.231304,-0.005282898,0.001335438,-0.060545240,-0.001092424,0.001710594,0.001372322,-0.014282232,-0.041752309,9.791112900
1784241268.233300,-0.005282898,0.001335438,-0.060545240,-0.000829567,0.001491463,0.001365262,0.005708084,-0.059405193,9.780258179
1784241268.235307,-0.005282691,0.001335116,-0.060545240,-0.000260426,0.001130097,0.001305439,-0.038626257,-0.049232069,9.815699577
1784241268.237304,-0.005282691,0.001335116,-0.060545240,-0.000305291,0.000187610,0.001293448,-0.015819319,-0.056616344,9.804913521
1784241268.239304,-0.005282691,0.001335116,-0.060545240,-0.000540053,-0.000785013,0.001318901,-0.002694746,-0.047792058,9.800501823
1784241268.241312,-0.005282935,0.001334181,-0.060545247,-0.000493000,-0.001283019,0.001844414,0.010399733,-0.040826384,9.805488586
1784241268.243309,-0.005282935,0.001334181,-0.060545247,-0.000578258,-0.001031553,0.002068011,-0.003157487,-0.048707664,9.804080009
1784241268.245308,-0.005283393,0.001333454,-0.060545247,-0.000544725,-0.000555983,0.001348141,-0.012081522,-0.043334797,9.820694923
1784241268.247313,-0.005283393,0.001333454,-0.060545247,0.000148963,-0.000163419,0.000933355,-0.012368024,-0.031916983,9.790728569
1784241268.249319,-0.005283393,0.001333454,-0.060545247,0.000976093,-0.000065219,0.001334673,0.007298571,-0.038851213,9.785324097
1784241268.251317,-0.005283047,0.001332360,-0.060545254,0.000868744,-0.000383338,0.001840351,-0.020932440,-0.034953013,9.792046547
1784241268.253315,-0.005283047,0.001332360,-0.060545254,-0.000039958,-0.000515690,0.002135760,-0.019160137,-0.038800977,9.762882233
1784241268.255316,-0.005282338,0.001332466,-0.060545254,-0.000279528,-0.000074804,0.002047746,-0.023097688,-0.027417036,9.807335854
1784241268.257317,-0.005282338,0.001332466,-0.060545254,0.000107665,0.000348536,0.001948987,0.010776561,-0.047478415,9.795136452
1784241268.259324,-0.005282338,0.001332466,-0.060545254,0.000206209,0.000371923,0.001712696,-0.006761376,-0.049179584,9.813938141
1784241268.261317,-0.005282048,0.001332373,-0.060545254,0.000247908,0.000789805,0.000802622,-0.027316919,-0.042167086,9.809927940
1784241268.263351,-0.005282048,0.001332373,-0.060545254,0.000352549,0.001343423,0.000466082,-0.008187127,-0.057085734,9.794158936
1784241268.265323,-0.005282916,0.001331775,-0.060545254,0.000296805,0.001419295,0.001013161,-0.008870763,-0.039581493,9.791131973
1784241268.267325,-0.005282916,0.001331775,-0.060545254,0.000175083,0.000717926,0.001660084,0.006478733,-0.032958981,9.777290344
1784241268.269329,-0.005282916,0.001331775,-0.060545254,0.000266035,-0.000007953,0.001643049,0.002290843,-0.084240921,9.750506401
1784241268.271335,-0.005284266,0.001331223,-0.060545254,0.000375428,0.000005640,0.001164383,-0.001566500,-0.067360610,9.777958870
1784241268.273332,-0.005284266,0.001331223,-0.060545254,0.000276187,0.000302249,0.001340495,-0.018027103,-0.054684468,9.789232254
1784241268.275334,-0.005284648,0.001331229,-0.060545254,0.000078720,0.000698228,0.001704268,-0.007450190,-0.032526754,9.804627419
1784241268.277342,-0.005284648,0.001331229,-0.060545254,-0.000226460,0.001096983,0.001879372,0.018716892,-0.022820644,9.778712273
1784241268.279342,-0.005284648,0.001331229,-0.060545254,-0.000828272,0.001392006,0.001934148,-0.011018927,-0.031505343,9.793422699
1784241268.281336,-0.005283880,0.001330512,-0.060545262,-0.001340583,0.001411172,0.001738170,-0.030146318,-0.054157592,9.799984932
1784241268.283342,-0.005283880,0.001330512,-0.060545262,-0.001285329,0.000899090,0.001502894,0.001894979,-0.076118186,9.806152344
1784241268.285340,-0.005284529,0.001329113,-0.060545269,-0.001175292,0.000221297,0.001004977,0.036284234,-0.052803647,9.804988861
1784241268.287347,-0.005284529,0.001329113,-0.060545269,-0.001021903,-0.000235931,0.000425949,0.005318944,-0.052445106,9.810341835
1784241268.289352,-0.005284529,0.001329113,-0.060545269,-0.000767605,-0.000750879,0.000057501,-0.028477456,-0.027716519,9.796120644
1784241268.291345,-0.005283222,0.001329976,-0.060545262,-0.000685952,-0.000744919,-0.000533883,-0.024615847,-0.042131636,9.800067902
1784241268.293345,-0.005283222,0.001329976,-0.060545262,-0.001092526,-0.000287786,-0.000601881,-0.044714168,-0.033031341,9.816694260
1784241268.295350,-0.005282648,0.001332189,-0.060545247,-0.001568705,0.000206730,-0.000253664,-0.042857282,-0.065291032,9.813350677
1784241268.297354,-0.005282648,0.001332189,-0.060545247,-0.001446809,0.000331146,-0.000524063,0.002706767,-0.047320880,9.787507057
1784241268.299354,-0.005282648,0.001332189,-0.060545247,-0.001053821,0.000095401,-0.000866796,-0.002687846,-0.048548073,9.780768394
1784241268.301354,-0.005282295,0.001330866,-0.060545258,-0.000767342,0.000046667,-0.000628388,0.006602320,-0.060252201,9.771736145
1784241268.303357,-0.005282295,0.001330866,-0.060545258,-0.000704321,0.000010079,-0.000021705,-0.011926625,-0.031169895,9.810909271
1784241268.305358,-0.005280782,0.001330464,-0.060545262,-0.000909460,0.000043892,-0.000193566,-0.003280689,-0.059001237,9.802669525
1784241268.307365,-0.005280782,0.001330464,-0.060545262,-0.001692696,-0.000014748,-0.000302184,-0.003190638,-0.053021934,9.780739784
1784241268.309364,-0.005280782,0.001330464,-0.060545262,-0.002606809,0.000173697,0.000684488,-0.029867750,-0.029669173,9.821213722
1784241268.311364,-0.005280302,0.001330265,-0.060545262,-0.002710150,0.000520348,0.001495587,-0.032705087,-0.043343414,9.796015739
1784241268.313359,-0.005280302,0.001330265,-0.060545262,-0.001663515,0.000728326,0.001510341,-0.007022896,-0.034727793,9.798337936
1784241268.315367,-0.005279203,0.001329911,-0.060545262,-0.000363826,0.000370840,0.001392744,0.002934867,-0.027283454,9.804672241
1784241268.317369,-0.005279203,0.001329911,-0.060545262,-0.000055835,-0.000475674,0.001140329,-0.000067267,-0.018042335,9.770655632
1784241268.319365,-0.005279256,0.001329903,-0.060555819,-0.000350127,-0.000897359,-0.000577694,0.012328022,-0.068469740,9.782897949
1784241268.321363,-0.005279146,0.001327589,-0.060574025,-0.000341407,-0.000876221,-0.002928233,-0.005611492,-0.066956297,9.791407585
1784241268.323367,-0.005278746,0.001326494,-0.060580786,-0.000173124,-0.000759554,-0.003827422,0.008311339,-0.066626146,9.782905579
1784241268.325373,-0.005280053,0.001319343,-0.060585182,-0.000146891,-0.001021265,-0.003545863,0.005444495,-0.044159230,9.779011726
1784241268.327403,-0.005275704,0.001314227,-0.060590375,0.000140225,-0.001485461,-0.003233538,-0.029776229,-0.062483825,9.773032188
1784241268.329408,-0.005276115,0.001312868,-0.060588099,0.000369693,-0.001520621,-0.002552996,-0.052910171,-0.081186220,9.798445702
1784241268.331386,-0.005279997,0.001316477,-0.060586069,0.000088771,-0.001076413,-0.001567924,-0.033921219,-0.069758438,9.795397758
1784241268.333381,-0.005276647,0.001318786,-0.060578186,0.000139049,-0.000505896,-0.000469441,-0.013737606,-0.033300851,9.798789024
1784241268.335378,-0.005276298,0.001320129,-0.060579620,0.000266249,-0.000125816,0.000096065,-0.034881849,-0.038329858,9.787977219
