time_sec,roll_rad,pitch_rad,yaw_rad,gyro_x,gyro_y,gyro_z,acc_x,acc_y,acc_z
1784241409.833045,-0.001075480,-0.003698593,0.161873311,0.000798968,0.000264675,0.000722391,0.039959081,-0.009318531,9.794960022
1784241409.835020,-0.001075882,-0.003697403,0.161881477,0.000478416,0.000391493,0.001342547,0.071530737,0.003314409,9.788794518
1784241409.837017,-0.001069805,-0.003696528,0.161880046,0.000697944,0.000499206,0.001434093,0.033717122,-0.006086416,9.792732239
1784241409.839020,-0.001070145,-0.003697652,0.161873803,0.000858458,0.000421651,0.000525117,0.045225501,0.018760281,9.806352615
1784241409.841010,-0.001070231,-0.003699052,0.161869168,0.000593712,0.000136608,-0.000355564,0.015654519,-0.016486689,9.775612831
1784241409.843017,-0.001070240,-0.003696491,0.161866143,0.000456708,0.000125017,-0.000779328,0.026168652,0.001528090,9.806672096
1784241409.845039,-0.001067382,-0.003694757,0.161864713,0.000557593,0.000329072,-0.000869911,0.020586165,-0.015771655,9.792209625
1784241409.847046,-0.001060592,-0.003693676,0.161865160,0.001045372,0.000381822,-0.000701102,0.009546994,0.000774933,9.816514015
1784241409.849028,-0.001065528,-0.003693231,0.161872983,0.000873920,0.000332061,0.000052359,-0.009320082,-0.001585508,9.804377556
1784241409.851052,-0.001069078,-0.003691967,0.161873147,0.000062631,0.000357320,0.000582447,0.032385450,-0.042734597,9.782184601
1784241409.853040,-0.001072134,-0.003689226,0.161869079,-0.000236577,0.000431553,0.000157054,0.055247817,-0.006823059,9.794541359
1784241409.855068,-0.001071436,-0.003687757,0.161872163,-0.000165561,0.000499297,0.000046265,0.027246207,-0.022088014,9.786346436
1784241409.857054,-0.001074319,-0.003687933,0.161877081,-0.000224753,0.000456085,0.000578626,0.022702798,-0.025312511,9.806945801
1784241409.859054,-0.001074684,-0.003688552,0.161875904,-0.000341057,0.000283171,0.000676712,0.046153095,-0.018602706,9.766212463
1784241409.861070,-0.001078768,-0.003690437,0.161870748,-0.000552053,0.000036778,0.000061326,0.071405642,-0.005778355,9.807565689
1784241409.863074,-0.001082729,-0.003693280,0.161867410,-0.000886792,-0.000193877,-0.000531963,0.030404916,0.017628385,9.803192139
1784241409.865086,-0.001087153,-0.003696538,0.161872059,-0.001151307,-0.000455776,-0.000296807,0.029714130,-0.004134719,9.777498245
1784241409.867053,-0.001092318,-0.003700356,0.161881506,-0.001492087,-0.000776277,0.000740031,0.026259558,-0.028049450,9.807379723
1784241409.869108,-0.001094807,-0.003698582,0.161883533,-0.001609648,-0.000668076,0.001316949,0.059969433,0.012397672,9.792428970
1784241409.871099,-0.001093774,-0.003692328,0.161883712,-0.001270927,0.000058016,0.001109696,0.057370719,-0.016719665,9.796273232
1784241409.873074,-0.001095469,-0.003694092,0.161883056,-0.001007024,0.000461893,0.000777526,0.065920047,-0.051797878,9.799195290
1784241409.875079,-0.001102847,-0.003702592,0.161882043,-0.001385975,-0.000245241,0.000456850,0.053633112,0.007995375,9.792841911
1784241409.877091,-0.001107052,-0.003703582,0.161886171,-0.001862081,-0.000796214,0.000547656,0.039423022,-0.016486522,9.795809746
1784241409.879080,-0.001104480,-0.003701336,0.161889002,-0.001532599,-0.000468467,0.000871669,0.038018346,-0.020173786,9.812821388
1784241409.881074,-0.001102707,-0.003701709,0.161887035,-0.000821319,-0.000214242,0.000693353,0.008060537,-0.012068318,9.798049927
1784241409.883075,-0.001108843,-0.003703176,0.161890894,-0.000795374,-0.000384161,0.000632898,0.025762243,0.004704546,9.801760674
1784241409.885070,-0.001106285,-0.003701205,0.161895588,-0.000721566,-0.000349312,0.001041124,0.017639045,-0.035580993,9.810909271
1784241409.887065,-0.001104704,-0.003702124,0.161896810,-0.000159974,-0.000220298,0.001159378,0.034063283,-0.015006875,9.786398888
1784241409.889120,-0.001103786,-0.003708579,0.161893204,0.000135772,-0.000697633,0.000682555,0.018996373,0.000053986,9.774824142
1784241409.891103,-0.001105233,-0.003709462,0.161894172,0.000062383,-0.001006143,0.000316903,0.027398515,-0.045101941,9.809064865
1784241409.893092,-0.001106322,-0.003704076,0.161898896,-0.000038087,-0.000441849,0.000614456,0.039727300,-0.028574506,9.793939590
1784241409.895076,-0.001107509,-0.003704705,0.161901399,-0.000093264,-0.000013626,0.000939656,0.046026058,0.009068522,9.781633377
1784241409.897069,-0.001112557,-0.003709446,0.161900461,-0.000555586,-0.000360764,0.000793130,0.014153111,0.006115601,9.750201225
1784241409.899079,-0.001114741,-0.003707117,0.161896884,-0.000961556,-0.000412368,0.000272207,0.040644553,-0.027213497,9.789914131
1784241409.901066,-0.001110809,-0.003705388,0.161894158,-0.000583384,-0.000024472,-0.000230201,0.050817803,-0.038636971,9.802851677
1784241409.903063,-0.001110928,-0.003705070,0.161896169,-0.000074745,0.000163271,-0.000217270,0.069303095,-0.030879339,9.812784195
1784241409.905092,-0.001107624,-0.003703676,0.161908597,0.000256964,0.000276151,0.000820908,0.024527820,0.012492932,9.779841423
1784241409.907108,-0.001104095,-0.003703111,0.161920175,0.000586470,0.000263455,0.002226686,0.009533237,-0.001359942,9.801705360
1784241409.909093,-0.001104968,-0.003706332,0.161910206,0.000537381,-0.000057364,0.001732233,0.039793707,0.013187020,9.780757904
1784241409.911095,-0.001105528,-0.003704263,0.161902145,0.000289637,-0.000118608,0.000036820,0.030466765,0.020548264,9.770483971
1784241409.913087,-0.001112718,-0.003696817,0.161902547,-0.000409038,0.000558015,-0.000491056,0.021292025,0.006515726,9.807147980
1784241409.915097,-0.001115462,-0.003690826,0.161910146,-0.001062288,0.001315941,0.000190697,0.039515328,0.026695199,9.771877289
1784241409.917080,-0.001109104,-0.003695060,0.161910325,-0.000660235,0.001120759,0.000666526,0.053336777,-0.012986033,9.845610619
1784241409.919109,-0.001102232,-0.003694142,0.161904395,0.000282024,0.000635229,0.000091639,0.021351969,-0.026953559,9.788104057
1784241409.921074,-0.001104714,-0.003691837,0.161906153,0.000502414,0.000681869,-0.000217360,0.035504043,-0.008603221,9.765368462
1784241409.923088,-0.001106963,-0.003692322,0.161913484,0.000081283,0.000626587,0.000458707,0.024436334,0.006907542,9.809395790
1784241409.925092,-0.001110307,-0.003695841,0.161915228,-0.000284034,0.000190964,0.000948919,0.017500600,-0.012052330,9.778779984
1784241409.927122,-0.001109808,-0.003696200,0.161911920,-0.000422262,-0.000159333,0.000583981,0.069911025,-0.017065067,9.822287560
1784241409.929111,-0.001106142,-0.003694994,0.161908120,-0.000048475,-0.000093327,-0.000058418,0.035260759,-0.027544774,9.783181190
1784241409.931097,-0.001101690,-0.003693544,0.161906973,0.000514500,0.000112731,-0.000380642,0.027614634,-0.029616883,9.773297310
1784241409.933135,-0.001102950,-0.003696098,0.161911622,0.000649118,-0.000007717,-0.000039666,0.021589734,-0.006839829,9.794509888
1784241409.935100,-0.001103858,-0.003697246,0.161911249,0.000383520,-0.000271865,0.000261326,0.048285916,0.011600356,9.799585342
1784241409.937085,-0.001097601,-0.003701448,0.161907122,0.000588628,-0.000518937,-0.000114785,0.059795834,-0.000320115,9.817004204
1784241409.939159,-0.001095616,-0.003705811,0.161907017,0.000934537,-0.000917146,-0.000371630,0.025190169,-0.005989897,9.794517517
1784241409.941099,-0.001098360,-0.003704811,0.161905557,0.000628948,-0.000896346,-0.000377374,0.016801998,-0.031445634,9.797932625
1784241409.943095,-0.001096608,-0.003698174,0.161898866,0.000433098,-0.000176745,-0.000828887,0.034490526,-0.016397838,9.792220116
1784241409.945103,-0.001089723,-0.003692516,0.161899343,0.000944483,0.000663635,-0.001028646,0.043163225,-0.006022735,9.766739845
1784241409.947099,-0.001091623,-0.003691534,0.161900014,0.001040912,0.000933736,-0.000671062,0.044287700,-0.020352846,9.826724052
1784241409.949109,-0.001093325,-0.003692407,0.161899373,0.000527922,0.000687253,-0.000486170,0.017027790,-0.013047431,9.793568611
1784241409.951102,-0.001091841,-0.003693058,0.161900580,0.000369909,0.000397151,-0.000315647,0.014656771,-0.022130532,9.815028191
1784241409.953082,-0.001097188,-0.003689592,0.161900252,0.000058611,0.000439808,-0.000172268,0.029551066,-0.014743069,9.820468903
1784241409.955105,-0.001099681,-0.003689924,0.161899045,-0.000438771,0.000492797,-0.000230592,0.103293017,-0.004737740,9.792807579
1784241409.957080,-0.001091681,-0.003689876,0.161899522,0.000030021,0.000486106,-0.000217857,0.069831498,0.010981361,9.784807205
1784241409.959086,-0.001087688,-0.003684156,0.161893874,0.000810657,0.000892358,-0.000512471,0.032812349,-0.007348853,9.782860756
1784241409.961088,-0.001088898,-0.003689009,0.161892682,0.000777721,0.000709482,-0.000839030,0.043914318,0.020674309,9.791568756
1784241409.963089,-0.001085227,-0.003690071,0.161902145,0.000674063,0.000120829,-0.000050635,0.055009939,0.009436482,9.776713371
1784241409.965090,-0.001080282,-0.003689448,0.161906049,0.001017642,0.000063362,0.000869421,0.038015462,-0.022222817,9.785908699
1784241409.967117,-0.001079942,-0.003689003,0.161906213,0.001144070,0.000134703,0.000908294,0.043548133,-0.006937490,9.831742287
1784241409.969096,-0.001079946,-0.003685080,0.161897346,0.000897087,0.000411633,0.000070839,0.052093428,-0.010131207,9.761342049
1784241409.971091,-0.001076327,-0.003689430,0.161891386,0.000895250,0.000272015,-0.000956048,0.043939739,-0.014688573,9.786858559
1784241409.973090,-0.001077903,-0.003692797,0.161890447,0.000815029,-0.000318144,-0.001165417,0.068174444,-0.014150801,9.793609619
1784241409.975094,-0.001079880,-0.003695250,0.161888197,0.000377680,-0.000619538,-0.001065101,0.046982944,-0.023605371,9.775147438
1784241409.977113,-0.001079814,-0.003697285,0.161880627,0.000169416,-0.000765527,-0.001442731,0.031328965,-0.014899613,9.839300156
1784241409.979136,-0.001080698,-0.003697362,0.161878109,0.000091813,-0.000710573,-0.001734867,-0.000519876,-0.016851680,9.793078423
1784241409.981097,-0.001085613,-0.003701630,0.161873981,-0.000328430,-0.000812051,-0.001714377,0.037362617,-0.001233459,9.796802521
1784241409.983094,-0.001087965,-0.003704430,0.161873028,-0.000763727,-0.001101238,-0.001592544,0.066912234,-0.006581811,9.802623749
1784241409.985096,-0.001085051,-0.003696343,0.161873803,-0.000548156,-0.000473681,-0.001173341,0.036559980,0.006415642,9.793712616
1784241409.987099,-0.001081088,-0.003694213,0.161872640,0.000028263,0.000303062,-0.000883561,0.029623812,0.028689466,9.824334145
1784241409.989100,-0.001078626,-0.003704671,0.161870897,0.000416843,-0.000389699,-0.000841987,0.017464869,-0.013955464,9.794460297
1784241409.991098,-0.001079123,-0.003715647,0.161872864,0.000437126,-0.001738824,-0.000600202,0.031073697,-0.003640417,9.768536568
1784241409.993106,-0.001081008,-0.003716672,0.161871940,0.000151441,-0.002070770,-0.000366760,0.044917591,0.027982809,9.770096779
1784241409.995107,-0.001080716,-0.003705370,0.161871627,-0.000003752,-0.000800230,-0.000350656,0.057959002,-0.042271309,9.797006607
1784241409.997107,-0.001076197,-0.003699739,0.161874220,0.000393720,0.000568381,-0.000100971,0.022255879,-0.024887422,9.810982704
1784241409.999126,-0.001076335,-0.003702759,0.161875173,0.000654451,0.000593200,0.000165718,0.026182692,0.002449454,9.803092003
1784241410.001114,-0.001079632,-0.003701772,0.161877185,0.000244351,0.000293987,0.000321174,0.046951015,-0.025073260,9.792624474
1784241410.003115,-0.001082722,-0.003699305,0.161882937,-0.000231884,0.000453917,0.000761177,0.047084972,-0.013073696,9.806150436
1784241410.005116,-0.001079074,-0.003694960,0.161887661,-0.000106653,0.000798217,0.001264253,0.034727603,0.004926232,9.817462921
1784241410.007113,-0.001079667,-0.003691650,0.161885694,0.000112585,0.001068864,0.001107550,0.044146832,0.003156735,9.797285080
1784241410.009112,-0.001084221,-0.003689799,0.161876813,-0.000287896,0.001097721,0.000070923,0.031389710,-0.013609416,9.783715248
1784241410.011117,-0.001088778,-0.003684271,0.161875144,-0.000830847,0.001301333,-0.000665579,0.021002814,-0.018461987,9.791744232
1784241410.013117,-0.001093585,-0.003681918,0.161879525,-0.001228552,0.001444152,-0.000299556,0.022774203,-0.020696172,9.787695885
1784241410.015116,-0.001096328,-0.003681182,0.161877558,-0.001395186,0.001222992,-0.000052581,0.038456690,-0.021882351,9.800256729
1784241410.017117,-0.001105338,-0.003681907,0.161879241,-0.001788698,0.000939926,-0.000054292,0.065670617,0.000339271,9.776663780
1784241410.019121,-0.001114815,-0.003685365,0.161881983,-0.002531251,0.000448651,0.000267082,0.072503850,-0.028015597,9.782317162
1784241410.021171,-0.001120255,-0.003687256,0.161880806,-0.002856128,-0.000036345,0.000302264,0.030521544,-0.010935586,9.787318230
1784241410.023132,-0.001120631,-0.003688305,0.161875620,-0.002438885,-0.000231396,-0.000211739,0.048145737,-0.000853519,9.786952019
1784241410.025128,-0.001118617,-0.003693169,0.161869884,-0.001630113,-0.000575042,-0.000893387,0.047153737,-0.008072993,9.795870781
1784241410.027159,-0.001108843,-0.003695008,0.161872745,-0.000427926,-0.000871313,-0.000847688,0.027562581,0.006346206,9.819705963
1784241410.029138,-0.001105843,-0.003699423,0.161880866,0.000518303,-0.001057660,0.000124574,0.012072912,0.022022935,9.785270691
1784241410.031142,-0.001102997,-0.003700066,0.161877304,0.000775540,-0.001114099,0.000399369,0.012193748,-0.003265774,9.812905312
1784241410.033150,-0.001103307,-0.003699261,0.161878005,0.000677611,-0.000897050,0.000095088,0.039029222,-0.011994797,9.794941902
1784241410.035147,-0.001099986,-0.003701007,0.161881864,0.000640433,-0.000814396,0.000378507,0.031457156,-0.006998110,9.799000740
1784241410.037139,-0.001100074,-0.003702144,0.161880970,0.000738606,-0.000898862,0.000476057,0.013936764,-0.043719128,9.827890396
1784241410.039140,-0.001100409,-0.003702213,0.161875784,0.000559659,-0.000845936,-0.000066401,0.048938751,-0.046978965,9.782174110
1784241410.041138,-0.001099165,-0.003702840,0.161872730,0.000467363,-0.000662912,-0.000605125,0.065603815,-0.003835462,9.796813965
1784241410.043152,-0.001099038,-0.003704238,0.161876619,0.000416925,-0.000515526,-0.000383713,0.062078476,0.001986327,9.803572655
1784241410.045149,-0.001099889,-0.003699821,0.161876798,0.000238729,-0.000065975,-0.000004113,0.025503716,-0.015167908,9.824499130
1784241410.047168,-0.001100663,-0.003698635,0.161878809,0.000109219,0.000262290,0.000146063,0.036075778,0.004114810,9.803112030
1784241410.049151,-0.001103127,-0.003694475,0.161880851,-0.000094102,0.000483828,0.000381557,0.021052487,0.023572614,9.803222656
1784241410.051191,-0.001105798,-0.003686584,0.161879703,-0.000416839,0.001170404,0.000339138,0.076315477,-0.007261792,9.818322182
1784241410.053169,-0.001106450,-0.003682575,0.161883086,-0.000560405,0.001795021,0.000399334,0.037948318,-0.027210802,9.794393539
1784241410.055153,-0.001107296,-0.003676577,0.161885142,-0.000540321,0.002121381,0.000659290,0.038939510,-0.019997688,9.786372185
1784241410.057153,-0.001108980,-0.003673941,0.161883175,-0.000526967,0.002163366,0.000486536,0.037435468,0.005825816,9.812091827
1784241410.059156,-0.001108511,-0.003672963,0.161879078,-0.000429547,0.001853567,-0.000056263,0.048691560,-0.029982492,9.786766052
1784241410.061157,-0.001110474,-0.003673828,0.161877364,-0.000415783,0.001358400,-0.000435226,0.054288145,-0.012571466,9.785537720
1784241410.063169,-0.001105712,-0.003675287,0.161877796,-0.000081652,0.000938301,-0.000404232,0.016459754,-0.020873236,9.824004173
1784241410.065176,-0.001099212,-0.003677868,0.161883011,0.000737999,0.000515177,0.000087957,0.010792747,-0.007734493,9.813772202
1784241410.067173,-0.001100897,-0.003673004,0.161887720,0.000849389,0.000498389,0.000736193,0.018489564,-0.001614826,9.821439743
1784241410.069175,-0.001102268,-0.003670147,0.161882848,0.000393704,0.000856138,0.000523665,0.050522059,0.010297682,9.789715767
1784241410.071171,-0.001099473,-0.003673983,0.161881924,0.000382040,0.000557650,-0.000012853,0.062038071,-0.002385168,9.788300514
1784241410.073177,-0.001095903,-0.003677814,0.161883146,0.000639835,-0.000025197,0.000009878,0.044497602,-0.005322115,9.791851044
1784241410.075172,-0.001094589,-0.003674443,0.161875859,0.000725466,0.000039941,-0.000404240,0.028077856,0.010918634,9.805837631
1784241410.077178,-0.001093596,-0.003671429,0.161877900,0.000628902,0.000448759,-0.000650004,0.018477822,-0.003733809,9.804389954
1784241410.079181,-0.001094555,-0.003673145,0.161884964,0.000407873,0.000400242,0.000143588,0.032329418,0.027139761,9.785322189
1784241410.081185,-0.001095166,-0.003672168,0.161883280,0.000191862,0.000241046,0.000468209,0.042410314,0.008097773,9.798660278
1784241410.083185,-0.001095541,-0.003676689,0.161879927,-0.000019799,-0.000032017,-0.000000291,0.030128820,-0.042404152,9.802808762
1784241410.085187,-0.001104746,-0.003680407,0.161881343,-0.000756560,-0.000549973,-0.000127669,0.040273134,-0.020113504,9.800270081
1784241410.087184,-0.001103908,-0.003681790,0.161883369,-0.001075055,-0.000733875,0.000141998,0.038566075,-0.012913587,9.798970222
1784241410.089194,-0.001095249,-0.003686475,0.161880359,-0.000095607,-0.000933023,0.000033128,0.019147070,-0.022972658,9.799335480
1784241410.091189,-0.001087125,-0.003688528,0.161882401,0.001069309,-0.001136966,-0.000045793,0.025162321,-0.008236065,9.795401573
1784241410.093186,-0.001080006,-0.003685653,0.161883399,0.001778111,-0.000781711,0.000170076,0.028070139,0.008831453,9.784304619
1784241410.095186,-0.001080006,-0.003685653,0.161883399,0.002189672,-0.000197353,0.000256774,0.028070139,0.008831453,9.784304619
1784241410.097203,-0.001088931,-0.003687134,0.161886871,0.001671934,-0.000088042,0.000515441,0.028642725,-0.016844191,9.802522659
1784241410.099190,-0.001087979,-0.003688042,0.161887541,0.000912415,-0.000256166,0.000683838,0.028657058,-0.014299513,9.822713852
1784241410.101194,-0.001085686,-0.003689483,0.161885813,0.000884716,-0.000345986,0.000428442,0.018988840,0.001210271,9.801283836
1784241410.103195,-0.001085686,-0.003689483,0.161885813,0.000954935,-0.000447396,0.000079866,0.018988840,0.001210271,9.801283836
1784241410.105195,-0.001075201,-0.003689229,0.161899194,0.001314625,-0.000259038,0.000549955,0.023170786,-0.021518726,9.839698792
1784241410.107205,-0.001075201,-0.003689229,0.161899194,0.001885191,0.000140413,0.001616434,0.023170786,-0.021518726,9.839698792
1784241410.109197,-0.001070610,-0.003691418,0.161897391,0.001970457,-0.000120237,0.001938459,0.034029394,-0.017300732,9.794006348
1784241410.111202,-0.001069916,-0.003690050,0.161899567,0.001618028,-0.000284882,0.001721238,0.024629036,0.020181404,9.769579887
1784241410.113206,-0.001068157,-0.003688596,0.161903188,0.001348253,0.000080742,0.001655938,0.051448114,0.012538708,9.787938118
1784241410.115205,-0.001067501,-0.003685492,0.161901772,0.001098876,0.000421211,0.001355971,0.026336841,-0.020955203,9.817735672
1784241410.117207,-0.001069189,-0.003683988,0.161902994,0.000682567,0.000672765,0.000974629,0.026468614,-0.009378167,9.827673912
1784241410.119208,-0.001077598,-0.003689295,0.161902025,-0.000188079,0.000231944,0.000728550,0.033955805,0.012413533,9.774022102
1784241410.121228,-0.001077364,-0.003689142,0.161897928,-0.000749929,-0.000159754,0.000187971,0.040267043,0.015402000,9.783461571
1784241410.123224,-0.001075311,-0.003687668,0.161897048,-0.000449068,0.000015220,-0.000202143,0.050466072,0.007018866,9.809870720
1784241410.125248,-0.001077926,-0.003685244,0.161896124,-0.000355411,0.000286706,-0.000269112,0.052097727,-0.046066057,9.774112701
1784241410.127227,-0.001081196,-0.003682920,0.161896050,-0.000648315,0.000542039,-0.000263996,0.058551159,0.004145315,9.758301735
1784241410.129215,-0.001081048,-0.003683824,0.161897525,-0.000683824,0.000491144,-0.000098840,0.049534541,0.002303111,9.781593323
1784241410.131223,-0.001073781,-0.003686818,0.161905691,-0.000063886,0.000101687,0.000580143,0.068388246,-0.035058104,9.771957397
1784241410.133218,-0.001069121,-0.003686995,0.161911175,0.000695015,-0.000133003,0.001346314,0.039332282,-0.024092318,9.794415474
1784241410.135223,-0.001070962,-0.003683479,0.161908403,0.000747909,0.000119937,0.001165904,0.010978773,0.005891941,9.787407875
1784241410.137228,-0.001067015,-0.003677272,0.161911294,0.000737316,0.000737819,0.000856298,0.045626957,0.014328982,9.798703194
1784241410.139225,-0.001066312,-0.003674484,0.161915720,0.000854592,0.001147605,0.001118125,0.051057234,-0.019320589,9.795354843
1784241410.141263,-0.001067440,-0.003676273,0.161916137,0.000609531,0.000946711,0.001143090,0.049813215,-0.009581736,9.814245224
1784241410.143244,-0.001063508,-0.003674806,0.161912858,0.000648243,0.000711234,0.000637623,0.064407781,0.008308530,9.792407036
1784241410.145233,-0.001060507,-0.003676713,0.161912486,0.000911995,0.000573481,0.000215802,0.046691164,-0.008581979,9.805282593
1784241410.147227,-0.001058203,-0.003674204,0.161916122,0.000995312,0.000543422,0.000378076,0.020312442,-0.037385076,9.807763100
1784241410.149231,-0.001060677,-0.003670052,0.161919758,0.000715357,0.000847523,0.000768343,0.013141150,-0.000856224,9.787365913
1784241410.151230,-0.001067208,-0.003672395,0.161918789,-0.000106640,0.000699620,0.000742727,0.039099593,-0.006981377,9.782869339
1784241410.153236,-0.001071012,-0.003673745,0.161912248,-0.000798296,0.000219098,0.000035873,0.023193000,0.015436054,9.809448242
1784241410.155246,-0.001065978,-0.003669502,0.161903143,-0.000608731,0.000332976,-0.001034982,0.068598866,-0.015564030,9.802568436
1784241410.157239,-0.001052541,-0.003673200,0.161904663,0.000701660,0.000255981,-0.001272563,0.046749741,-0.004877464,9.788268089
1784241410.159235,-0.001040236,-0.003682722,0.161906719,0.002259393,-0.000711221,-0.000691580,0.018803380,-0.014843191,9.790868759
1784241410.161237,-0.001043186,-0.003683846,0.161905229,0.002310877,-0.001312922,-0.000468058,0.020396393,-0.030643402,9.804667473
1784241410.163238,-0.001046987,-0.003680727,0.161906168,0.001254879,-0.000893059,-0.000374388,0.029318657,0.001154354,9.790534019
1784241410.165244,-0.001048472,-0.003679834,0.161906615,0.000523596,-0.000390387,-0.000178631,0.052238256,0.001954208,9.762763977
1784241410.167240,-0.001050939,-0.003676990,0.161906794,0.000081195,-0.000042837,-0.000090139,0.025324477,0.006822912,9.819707870
1784241410.169241,-0.001054503,-0.003675213,0.161910400,-0.000349306,0.000282186,0.000191176,0.027000746,-0.003862120,9.807088852
1784241410.171326,-0.001054328,-0.003674982,0.161911353,-0.000521146,0.000265112,0.000449077,0.043142635,-0.005374822,9.801712990
1784241410.173252,-0.001046965,-0.003677259,0.161906749,0.000093345,-0.000021858,0.000076995,0.016821459,0.007513652,9.800873756
1784241410.175247,-0.001042873,-0.003681240,0.161907673,0.000772907,-0.000521400,-0.000195312,0.055351678,0.003317887,9.817471504
1784241410.177258,-0.001044283,-0.003680517,0.161905438,0.000673098,-0.000681902,-0.000231031,0.030609464,-0.003352050,9.791851044
1784241410.179245,-0.001043836,-0.003679821,0.161904514,0.000424187,-0.000400169,-0.000381474,0.051005386,-0.024187746,9.786805153
1784241410.181253,-0.001043672,-0.003681239,0.161909968,0.000385453,-0.000271674,0.000032232,0.012418268,-0.021657007,9.815477371
1784241410.183254,-0.001046726,-0.003680800,0.161914930,0.000121054,-0.000195954,0.000730277,0.035189811,-0.032968003,9.789872169
1784241410.185251,-0.001047624,-0.003679132,0.161910564,-0.000086471,0.000007457,0.000571681,0.059681609,-0.012163875,9.781510353
1784241410.187250,-0.001046618,-0.003676580,0.161908612,0.000036227,0.000299557,-0.000011965,0.052053560,-0.010445993,9.805724144
1784241410.189253,-0.001046945,-0.003675328,0.161904499,0.000070940,0.000476830,-0.000419377,0.037169397,-0.015727192,9.819126129
1784241410.191255,-0.001050672,-0.003675763,0.161895365,-0.000194014,0.000414098,-0.001205102,0.022044141,-0.004774293,9.818284035
1784241410.193259,-0.001055072,-0.003677686,0.161898404,-0.000661732,0.000152381,-0.001291736,0.073877580,-0.025383238,9.787715912
1784241410.195260,-0.001059927,-0.003677792,0.161910787,-0.001076734,0.000097552,0.000107988,0.071270473,-0.017787453,9.795383453
1784241410.197272,-0.001061365,-0.003678406,0.161910951,-0.001178734,0.000146662,0.000929917,0.048702735,0.009316650,9.804949760
1784241410.199263,-0.001059581,-0.003678508,0.161907643,-0.000836018,0.000058478,0.000463598,0.012948669,-0.017370371,9.778741837
1784241410.201267,-0.001056140,-0.003677701,0.161907271,-0.000259864,0.000080934,0.000088788,0.004478515,-0.011151845,9.801638603
1784241410.203264,-0.001050396,-0.003676561,0.161912233,0.000430677,0.000180937,0.000376246,0.033920478,0.010513588,9.789253235
1784241410.205269,-0.001044168,-0.003679575,0.161914274,0.001039280,0.000017665,0.000746974,0.059562903,0.014357435,9.769575119
1784241410.207359,-0.001043511,-0.003681030,0.161918670,0.001137272,-0.000277324,0.000979412,0.047551166,-0.012536097,9.792704582
1784241410.209357,-0.001044182,-0.003682204,0.161923081,0.000829771,-0.000381137,0.001311224,0.061005797,-0.012759450,9.799888611
1784241410.211308,-0.001046443,-0.003689081,0.161923975,0.000440686,-0.000723533,0.001316524,0.051992573,0.020583538,9.789783478
1784241410.213322,-0.001050821,-0.003693876,0.161918223,-0.000096948,-0.001218007,0.000632646,0.037346669,-0.003790854,9.778404236
1784241410.215315,-0.001051188,-0.003696663,0.161915705,-0.000377814,-0.001415989,-0.000099145,0.025448874,-0.020463949,9.813256264
1784241410.217317,-0.001047566,-0.003699960,0.161911041,-0.000039047,-0.001458523,-0.000558610,0.035579883,-0.001115069,9.783350945
1784241410.219314,-0.001047070,-0.003694756,0.161910206,0.000249684,-0.000932650,-0.000781845,0.036786929,0.025633443,9.800111771
1784241410.221335,-0.001044161,-0.003690777,0.161911190,0.000319349,-0.000100384,-0.000563102,0.036953103,0.003134258,9.813418388
1784241410.223330,-0.001045393,-0.003697224,0.161910757,0.000252959,-0.000285010,-0.000372240,0.092690274,-0.029125724,9.776053429
1784241410.225310,-0.001047360,-0.003699212,0.161913812,0.000003619,-0.000580220,-0.000089999,0.046429645,-0.028883316,9.825326920
1784241410.227307,-0.001049538,-0.003696879,0.161909446,-0.000243255,-0.000198942,-0.000151948,0.012579785,-0.009034604,9.804349899
1784241410.229362,-0.001050414,-0.003697211,0.161905080,-0.000386700,-0.000008474,-0.000702956,0.018976586,0.000708259,9.808901787
1784241410.231322,-0.001049056,-0.003694647,0.161904469,-0.000239281,0.000072017,-0.000851558,0.025381213,0.010918156,9.810767174
1784241410.233314,-0.001055225,-0.003687799,0.161907315,-0.000489383,0.000617499,-0.000470270,0.036613215,0.011698964,9.806748390
1784241410.235313,-0.001051847,-0.003686486,0.161912248,-0.000708844,0.000994955,0.000186412,0.010888780,-0.000897429,9.797227859
1784241410.237303,-0.001049776,-0.003683683,0.161910862,-0.000310489,0.000995691,0.000375328,0.038950391,-0.017074995,9.816429138
1784241410.239310,-0.001049311,-0.003683496,0.161905989,-0.000055623,0.000928708,-0.000155398,0.023211857,-0.021194397,9.793971062
1784241410.241306,-0.001059790,-0.003683869,0.161903694,-0.000650552,0.000582674,-0.000599078,0.043221809,0.000518631,9.791887283
1784241410.243310,-0.001066081,-0.003685531,0.161911532,-0.001539383,0.000204195,-0.000057236,0.057925005,-0.008191895,9.793190956
1784241410.245316,-0.001068713,-0.003679611,0.161912218,-0.001729338,0.000480302,0.000539863,0.029516077,-0.018666616,9.805201530
1784241410.247305,-0.001061563,-0.003677635,0.161906272,-0.000958765,0.000929385,0.000038974,0.041596159,-0.024365524,9.765723228
1784241410.249304,-0.001058982,-0.003680636,0.161898211,-0.000041409,0.000608381,-0.000924674,0.051692832,-0.003666777,9.798146248
1784241410.251307,-0.001057110,-0.003679720,0.161898643,0.000245582,0.000321990,-0.001194336,0.041158579,-0.019003695,9.831661224
1784241410.253310,-0.001059620,-0.003678488,0.161903039,0.000112224,0.000399834,-0.000541295,0.024143903,-0.018095611,9.797577858
1784241410.255312,-0.001060270,-0.003679801,0.161906376,-0.000150262,0.000259117,0.000131646,0.025873579,-0.023090690,9.803824425
1784241410.257342,-0.001058585,-0.003684451,0.161911309,-0.000056587,-0.000242670,0.000656208,0.047104642,-0.049697790,9.789776802
1784241410.259326,-0.001059269,-0.003688001,0.161913529,0.000028543,-0.000733949,0.000965465,0.037149936,-0.019933356,9.780543327
1784241410.261338,-0.001061450,-0.003686064,0.161915034,-0.000121150,-0.000656139,0.000958173,0.030368948,-0.021461271,9.818634033
1784241410.263334,-0.001059712,-0.003688305,0.161915436,-0.000066208,-0.000510452,0.000827255,0.046489589,-0.027599471,9.770638466
1784241410.265331,-0.001065277,-0.003688828,0.161911055,-0.000297587,-0.000506955,0.000333739,0.041427109,-0.001078527,9.767665863
1784241410.267325,-0.001069881,-0.003688070,0.161908537,-0.000897426,-0.000300549,-0.000223901,0.047532417,-0.012278914,9.819606781
1784241410.269323,-0.001064863,-0.003683708,0.161907122,-0.000626667,0.000128955,-0.000428887,0.022643194,0.006133186,9.795491219
1784241410.271344,-0.001058947,-0.003677218,0.161907628,0.000260819,0.000775168,-0.000376693,0.023924511,0.001957103,9.813397408
1784241410.273332,-0.001059321,-0.003677846,0.161908045,0.000541748,0.000907111,-0.000214776,0.047237288,-0.001334499,9.793225288
1784241410.275327,-0.001065167,-0.003679270,0.161912173,-0.000072453,0.000578528,0.000152237,0.057784788,0.017754260,9.799184799
1784241410.277337,-0.001060966,-0.003675177,0.161913157,-0.000209122,0.000659572,0.000457985,0.042616826,-0.012056689,9.797185898
1784241410.279374,-0.001056761,-0.003670292,0.161914974,0.000418974,0.001089746,0.000521476,0.033074331,-0.022607533,9.785902023
1784241410.281337,-0.001060684,-0.003668874,0.161915660,0.000404176,0.001192336,0.000547752,0.030841755,-0.020466169,9.803846359
1784241410.283342,-0.001062894,-0.003668668,0.161912635,-0.000043235,0.000949787,0.000239500,0.035276193,0.011382721,9.790604591
1784241410.285344,-0.001059829,-0.003667973,0.161908284,-0.000060996,0.000771872,-0.000327560,0.061932322,0.026264651,9.792070389
1784241410.287339,-0.001061198,-0.003666165,0.161901236,-0.000017875,0.000751314,-0.001010738,0.043374121,-0.022495305,9.814605713
1784241410.289339,-0.001062663,-0.003668115,0.161903262,-0.000206599,0.000538064,-0.001076636,0.022514530,-0.003798272,9.806186676
1784241410.291341,-0.001060002,-0.003671684,0.161910042,-0.000116183,-0.000075478,-0.000188140,0.034984171,-0.010780414,9.820500374
1784241410.293342,-0.001060932,-0.003677054,0.161905631,-0.000015650,-0.000754144,0.000024642,0.029143155,-0.013199480,9.793131828
1784241410.295338,-0.001070851,-0.003677177,0.161896974,-0.000732265,-0.000945622,-0.000866922,0.025898607,-0.020866783,9.806079865
1784241410.297339,-0.001084560,-0.003677675,0.161900237,-0.002119869,-0.000755003,-0.000992450,0.040761821,-0.018587772,9.773829460
1784241410.299343,-0.001086004,-0.003675929,0.161905453,-0.002570769,-0.000465940,-0.000143475,0.072395511,0.000208519,9.782946587
1784241410.301347,-0.001085507,-0.003673367,0.161910951,-0.001991921,0.000075955,0.000622696,0.052752394,0.008543867,9.780290604
1784241410.303353,-0.001090922,-0.003672872,0.161909774,-0.001841359,0.000386303,0.000746699,0.021588579,-0.007659439,9.783744812
1784241410.305349,-0.001097034,-0.003668739,0.161906719,-0.002110733,0.000548022,0.000258416,0.007150366,-0.010941875,9.830334663
1784241410.307350,-0.001099582,-0.003672532,0.161908433,-0.002111693,0.000374521,0.000099963,0.021256741,0.000968856,9.768107414
1784241410.309350,-0.001096254,-0.003677951,0.161904588,-0.001485919,-0.000352269,-0.000071973,0.055431932,-0.029585795,9.781842232
1784241410.311359,-0.001090783,-0.003678323,0.161902636,-0.000447394,-0.000562475,-0.000447247,0.038241711,-0.039384633,9.804627419
1784241410.313354,-0.001085771,-0.003675542,0.161899373,0.000423593,-0.000159089,-0.000681245,0.010787620,-0.009395973,9.795379639
1784241410.315352,-0.001087679,-0.003668020,0.161898762,0.000429394,0.000536982,-0.000760209,0.081089124,0.017232729,9.830587387
1784241410.317351,-0.001090965,-0.003666761,0.161899462,-0.000128660,0.000940470,-0.000548426,0.057086978,-0.004469525,9.775279999
1784241410.319355,-0.001086799,-0.003668740,0.161895320,-0.000034845,0.000636478,-0.000631355,0.061688896,-0.034320403,9.743262291
1784241410.321392,-0.001089428,-0.003669492,0.161893368,0.000159318,0.000306777,-0.000872689,0.066353902,-0.017978216,9.768029213
1784241410.323369,-0.001095651,-0.003670836,0.161890581,-0.000404157,0.000109639,-0.000959119,0.074690692,0.004640310,9.785667419
1784241410.325391,-0.001093590,-0.003673915,0.161886200,-0.000598470,-0.000143304,-0.001184815,0.041600782,0.016502881,9.815301895
1784241410.327377,-0.001090482,-0.003672198,0.161887467,-0.000105560,-0.000120082,-0.001076291,0.005317618,-0.053671338,9.793745041
1784241410.329375,-0.001088488,-0.003673137,0.161892146,0.000270903,-0.000035119,-0.000383063,0.047045961,-0.017029036,9.795365334
1784241410.331373,-0.001087262,-0.003679227,0.161896780,0.000448537,-0.000495598,0.000353555,0.082427785,-0.020838350,9.826310158
1784241410.333371,-0.001082838,-0.003678326,0.161899358,0.000742367,-0.000705946,0.000746718,0.025980713,-0.016571226,9.768896103
1784241410.335394,-0.001077006,-0.003674668,0.161903515,0.001234130,-0.000267981,0.001000764,-0.011820394,0.014553328,9.807617188
1784241410.337383,-0.001074952,-0.003673456,0.161902115,0.001430506,0.000072477,0.000914919,0.037464689,0.005651303,9.773532867
1784241410.339371,-0.001074313,-0.003679391,0.161901459,0.001224405,-0.000267719,0.000523617,0.039928466,-0.012397023,9.786870003
1784241410.341371,-0.001073027,-0.003686167,0.161899418,0.001050422,-0.001055046,0.000199410,0.053104818,-0.000732341,9.760954857
1784241410.343377,-0.001077167,-0.003687310,0.161904871,0.000600759,-0.001303684,0.000379718,0.037728049,-0.009191215,9.781059265
1784241410.345381,-0.001081947,-0.003679192,0.161907181,-0.000186656,-0.000473671,0.000804802,0.023418324,-0.002948823,9.811124802
1784241410.347380,-0.001084373,-0.003672636,0.161907345,-0.000645282,0.000653935,0.000756532,0.076357983,-0.007331371,9.764968872
1784241410.349380,-0.001081806,-0.003672760,0.161906719,-0.000460651,0.000913033,0.000520489,0.052787714,-0.024309311,9.800704002
1784241410.351376,-0.001073016,-0.003680658,0.161903962,0.000459682,0.000158568,0.000145957,0.050223880,-0.013129842,9.808395386
1784241410.353385,-0.001068870,-0.003684493,0.161899850,0.001236446,-0.000642747,-0.000362792,0.037471760,-0.029451216,9.795277596
1784241410.355385,-0.001069977,-0.003684535,0.161902398,0.001173928,-0.000735957,-0.000370640,0.030994186,-0.007510270,9.808860779
1784241410.357401,-0.001072538,-0.003686499,0.161909431,0.000675942,-0.000677635,0.000381804,0.058024030,-0.000925951,9.779339790
1784241410.359398,-0.001072353,-0.003684482,0.161910146,0.000333107,-0.000490594,0.000804425,0.033359513,-0.032414742,9.841432571
1784241410.361398,-0.001069746,-0.003679784,0.161903962,0.000469870,0.000079010,0.000212739,0.042059660,-0.019796642,9.815518379
1784241410.363397,-0.001075925,-0.003676099,0.161902785,0.000137071,0.000607394,-0.000344717,0.053244065,-0.024254646,9.792186737
1784241410.365429,-0.001080932,-0.003683875,0.161902636,-0.000657131,0.000221753,-0.000340795,0.054165311,0.015538192,9.802307129
1784241410.367397,-0.001085340,-0.003688170,0.161902741,-0.001115208,-0.000601011,-0.000250507,0.031880207,0.028762465,9.809990883
1784241410.369399,-0.001090751,-0.003687409,0.161901549,-0.001479245,-0.000677639,-0.000254076,0.048976343,-0.005039757,9.807101250
1784241410.371395,-0.001095204,-0.003686892,0.161900640,-0.001794802,-0.000390492,-0.000327052,0.026886923,-0.015702700,9.771143913
1784241410.373402,-0.001097668,-0.003684046,0.161900252,-0.001824379,-0.000039806,-0.000324952,0.037090503,-0.022834158,9.810561180
1784241410.375397,-0.001101387,-0.003679101,0.161902800,-0.001716817,0.000500821,-0.000086955,0.039834391,-0.018408122,9.813282013
1784241410.377402,-0.001096668,-0.003676077,0.161904335,-0.001150426,0.000906624,0.000213628,0.039986521,-0.007075548,9.794525146
1784241410.379404,-0.001093801,-0.003673285,0.161903426,-0.000322987,0.001055220,0.000197766,0.022653714,-0.029347343,9.807369232
1784241410.381400,-0.001093159,-0.003669006,0.161900178,0.000046713,0.001275971,-0.000138465,0.019849353,-0.004360811,9.764036179
1784241410.383404,-0.001096432,-0.003667737,0.161898732,-0.000100871,0.001333507,-0.000420748,0.033309329,-0.003326127,9.783334732
1784241410.385409,-0.001098659,-0.003673034,0.161900714,-0.000487851,0.000692252,-0.000269602,0.047819078,0.008626184,9.777597427
1784241410.387405,-0.001089203,-0.003674838,0.161903322,0.000095251,0.000016126,0.000111494,0.055839214,0.004024014,9.780264854
1784241410.389410,-0.001087914,-0.003669648,0.161903232,0.000799369,0.000241416,0.000249147,0.012586858,-0.009383994,9.790449142
1784241410.391422,-0.001088100,-0.003663711,0.161905795,0.000612482,0.000899063,0.000351063,0.033933632,-0.028188158,9.749999046
1784241410.393414,-0.001089799,-0.003662740,0.161907807,0.000273998,0.001091461,0.000567804,0.033168644,-0.014163043,9.795370102
1784241410.395411,-0.001091493,-0.003660607,0.161917046,0.000005716,0.000995098,0.001175640,0.035889287,-0.011541573,9.799873352
1784241410.397413,-0.001093204,-0.003660172,0.161920115,-0.000190288,0.000888463,0.001690446,0.038235903,-0.005082643,9.769430161
1784241410.399417,-0.001093308,-0.003660536,0.161920249,-0.000261036,0.000651775,0.001450943,0.034406181,-0.020305855,9.837924004
1784241410.401420,-0.001090157,-0.003668426,0.161916405,0.000025823,-0.000097395,0.000804446,0.052517843,-0.011544434,9.770298958
1784241410.403418,-0.001090869,-0.003678306,0.161911964,0.000192359,-0.001288790,0.000022934,0.028706826,-0.011475016,9.803453445
1784241410.405418,-0.001092384,-0.003681159,0.161917955,0.000026311,-0.001833719,0.000122870,0.043971859,0.024775909,9.781731606
1784241410.407425,-0.001090885,-0.003678383,0.161922947,0.000057819,-0.001372251,0.000832511,0.026673624,0.003587635,9.768130302
1784241410.409447,-0.001088274,-0.003674003,0.161923125,0.000322412,-0.000514270,0.000955629,0.023315784,-0.011863530,9.804790497
1784241410.411435,-0.001088337,-0.003675670,0.161919534,0.000404764,-0.000190494,0.000465807,0.039052866,-0.010187056,9.792711258
1784241410.413430,-0.001090824,-0.003677573,0.161914632,0.000117397,-0.000380758,-0.000236934,0.048375037,-0.018396525,9.796255112
1784241410.415439,-0.001097635,-0.003676187,0.161914229,-0.000505759,-0.000282241,-0.000531588,0.049395178,-0.007307567,9.810223579
1784241410.417443,-0.001099539,-0.003673062,0.161909863,-0.000919946,0.000130862,-0.000708172,0.038684390,-0.001848103,9.817870140
1784241410.419456,-0.001095101,-0.003671361,0.161911666,-0.000498852,0.000423124,-0.000691296,0.021913800,-0.016745241,9.800723076
1784241410.421464,-0.001095475,-0.003674845,0.161914989,-0.000072056,0.000145552,-0.000158042,0.025007471,-0.021211039,9.793075562
1784241410.423445,-0.001104373,-0.003675380,0.161915347,-0.000666644,-0.000208333,0.000137885,0.034609184,-0.004519109,9.822782516
1784241410.425446,-0.001111943,-0.003679093,0.161919162,-0.001642066,-0.000442509,0.000388838,0.044873059,-0.009553475,9.819173813
1784241410.427445,-0.001111728,-0.003676526,0.161915869,-0.001735006,-0.000402223,0.000321086,0.027538626,-0.034674831,9.791646957
1784241410.429445,-0.001110994,-0.003673450,0.161915779,-0.001200375,0.000090269,0.000004490,0.031658888,-0.028000798,9.790798187
1784241410.431440,-0.001111691,-0.003672628,0.161914095,-0.000830412,0.000340595,-0.000118472,0.021334762,-0.028710430,9.783161163
1784241410.433445,-0.001112366,-0.003675646,0.161915824,-0.000656081,0.000109225,-0.000084142,0.034136824,-0.009157937,9.782850266
1784241410.435459,-0.001117857,-0.003679265,0.161922321,-0.000895135,-0.000346797,0.000498290,0.057977207,-0.002511489,9.813402176
1784241410.437457,-0.001125151,-0.003675872,0.161928847,-0.001517369,-0.000244184,0.001249229,0.048007116,-0.012484614,9.784635544
1784241410.439449,-0.001131082,-0.003674305,0.161926851,-0.002001921,0.000158432,0.001220399,0.060736965,0.002445184,9.804469109
1784241410.441450,-0.001134297,-0.003675756,0.161923274,-0.002103075,0.000183236,0.000512332,0.061149940,0.000536299,9.820149422
1784241410.443473,-0.001135961,-0.003674495,0.161919981,-0.001887473,0.000180741,-0.000093401,0.062508814,-0.000595899,9.787863731
1784241410.445458,-0.001135652,-0.003672961,0.161918566,-0.001492801,0.000445462,-0.000388394,0.032877490,-0.002376764,9.776615143
1784241410.447499,-0.001134614,-0.003668544,0.161914751,-0.001022068,0.000852545,-0.000637912,0.031893548,-0.006695795,9.818731308
1784241410.449462,-0.001134157,-0.003665210,0.161916792,-0.000643549,0.001147277,-0.000584964,0.042928759,-0.021247419,9.828958511
1784241410.451463,-0.001137686,-0.003667713,0.161920398,-0.000645081,0.000911897,-0.000043889,0.032958273,-0.031223726,9.800640106
1784241410.453467,-0.001142304,-0.003667491,0.161919206,-0.000991523,0.000529487,0.000131932,0.039796751,-0.021947296,9.806982994
1784241410.455471,-0.001145200,-0.003665240,0.161917225,-0.001221403,0.000576972,-0.000117219,0.045112073,-0.027830243,9.805604935
1784241410.457474,-0.001146681,-0.003664575,0.161926717,-0.001173262,0.000640811,0.000423855,0.062113553,-0.033300236,9.788102150
1784241410.459468,-0.001141964,-0.003660502,0.161930636,-0.000631756,0.000787416,0.001216524,0.047140684,0.029008595,9.810902596
1784241410.461471,-0.001138396,-0.003657960,0.161927387,0.000001595,0.001058946,0.000928785,0.026039699,-0.010026688,9.793597221
1784241410.463493,-0.001138259,-0.003660186,0.161928311,0.000151436,0.000829349,0.000517724,0.036545649,-0.030882170,9.809165001
1784241410.465481,-0.001140971,-0.003664781,0.161927387,0.000001633,0.000159908,0.000377528,0.022833582,-0.016985305,9.769787788
1784241410.467473,-0.001140038,-0.003667808,0.161927521,-0.000053713,-0.000382018,0.000221024,-0.006387406,0.017299285,9.789706230
1784241410.469514,-0.001142817,-0.003665262,0.161934838,-0.000162628,-0.000311518,0.000669102,0.047174286,-0.005073989,9.815168381
1784241410.471484,-0.001146207,-0.003660379,0.161941409,-0.000562787,0.000262620,0.001431168,0.042828005,-0.029742779,9.826663017
1784241410.473477,-0.001144715,-0.003661026,0.161941573,-0.000566197,0.000464766,0.001498180,0.020974454,-0.019091191,9.817295074
1784241410.475526,-0.001145880,-0.003664993,0.161941171,-0.000357228,0.000000652,0.001074581,0.032197233,-0.022030430,9.769315720
1784241410.477500,-0.001150040,-0.003667203,0.161947936,-0.000586918,-0.000444095,0.001216087,0.054466181,0.003018146,9.798192024
1784241410.479487,-0.001144518,-0.003665236,0.161947057,-0.000333653,-0.000340420,0.001286120,0.011816637,0.039352901,9.806005478
1784241410.481502,-0.001139164,-0.003666595,0.161940306,0.000323320,-0.000246345,0.000417351,0.025480106,-0.020622566,9.772456169
1784241410.483498,-0.001145325,-0.003663683,0.161934882,0.000007751,-0.000113370,-0.000523323,0.050835647,-0.037280362,9.801068306
1784241410.485495,-0.001150589,-0.003664641,0.161932349,-0.000691921,0.000076792,-0.000919991,0.046933997,0.011166465,9.800029755
1784241410.487490,-0.001154435,-0.003666027,0.161932752,-0.001042985,-0.000076810,-0.000813195,0.050269969,-0.009523893,9.805279732
1784241410.489495,-0.001157413,-0.003663423,0.161928922,-0.001223858,0.000027028,-0.000824334,0.027910635,-0.003775049,9.793190956
1784241410.491492,-0.001150452,-0.003664941,0.161922991,-0.000685644,0.000098106,-0.001264653,0.022738541,0.014180587,9.797783852
1784241410.493497,-0.001147900,-0.003666127,0.161922902,0.000082768,-0.000107710,-0.001333532,0.063056730,0.009907771,9.822006226
1784241410.495496,-0.001146666,-0.003669878,0.161921456,0.000207516,-0.000290836,-0.001077705,0.063507244,-0.030915515,9.765254021
1784241410.497490,-0.001146519,-0.003672622,0.161919996,0.000134728,-0.000529918,-0.000982446,0.053632934,0.007588751,9.787011147
1784241410.499496,-0.001146359,-0.003670363,0.161925226,0.000119896,-0.000419279,-0.000460108,0.049754806,-0.015716471,9.794927597
1784241410.501498,-0.001150648,-0.003668969,0.161917388,-0.000211982,-0.000026575,-0.000511605,0.042957578,-0.021425113,9.790848732
1784241410.503499,-0.001150962,-0.003665604,0.161914930,-0.000487870,0.000335080,-0.001072256,0.070021555,-0.010113535,9.789603233
1784241410.505495,-0.001150131,-0.003663285,0.161923096,-0.000328506,0.000714009,-0.000396359,0.044228885,-0.026490755,9.807855606
1784241410.507499,-0.001146249,-0.003661598,0.161928624,0.000074385,0.000875647,0.000637397,0.030207995,-0.036510702,9.792982101
1784241410.509505,-0.001147127,-0.003659041,0.161929846,0.000259761,0.000925445,0.000920580,0.018049026,-0.003165629,9.788253784
1784241410.511501,-0.001153442,-0.003654027,0.161925763,-0.000288697,0.001153070,0.000476990,0.028623799,0.017759491,9.787949562
1784241410.513503,-0.001159587,-0.003648738,0.161921918,-0.001047054,0.001504855,-0.000188678,0.044687841,0.011579580,9.808996201
1784241410.515501,-0.001162122,-0.003646177,0.161925286,-0.001421297,0.001630113,-0.000168607,0.042758264,-0.000403341,9.796365738
1784241410.517518,-0.001163051,-0.003647341,0.161928356,-0.001338149,0.001282666,0.000313483,0.058884725,-0.003253567,9.790085793
1784241410.519505,-0.001159448,-0.003652230,0.161923975,-0.000793634,0.000523569,0.000139128,0.038248919,-0.000927358,9.815186501
1784241410.521513,-0.001158682,-0.003656640,0.161924884,-0.000271813,-0.000191882,-0.000133009,0.032918006,0.003211443,9.809827805
1784241410.523510,-0.001162946,-0.003648991,0.161922440,-0.000425193,0.000137859,-0.000201002,0.063991353,-0.024157705,9.822236061
1784241410.525514,-0.001161908,-0.003647797,0.161923960,-0.000459630,0.000844996,-0.000211706,0.048603006,-0.037165772,9.788961411
1784241410.527510,-0.001161023,-0.003653753,0.161926731,-0.000133941,0.000436182,0.000136942,0.025313204,0.006733882,9.832259178
1784241410.529515,-0.001165088,-0.003650892,0.161926895,-0.000312678,0.000107405,0.000299836,0.034757983,0.005571332,9.789669991
1784241410.531512,-0.001165466,-0.003646004,0.161929205,-0.000579440,0.000607556,0.000386303,0.027340399,-0.014860223,9.777875900
1784241410.533522,-0.001164187,-0.003643975,0.161925137,-0.000412077,0.000915784,0.000160726,0.043391380,-0.021548504,9.807437897
1784241410.535522,-0.001163475,-0.003646465,0.161922872,-0.000113887,0.000654327,-0.000312913,0.029721603,-0.039234061,9.798792839
1784241410.537520,-0.001168921,-0.003647309,0.161924616,-0.000351742,0.000268340,-0.000262626,0.013881237,-0.013051705,9.799842834
1784241410.539516,-0.001165835,-0.003645085,0.161930636,-0.000414573,0.000288516,0.000335468,0.015274872,0.024896221,9.753460884
1784241410.541529,-0.001162860,-0.003639925,0.161928952,0.000014182,0.000659521,0.000539239,0.027394837,-0.009567361,9.789566994
1784241410.543537,-0.001158636,-0.003636600,0.161924645,0.000401316,0.001005301,-0.000015798,0.053016383,-0.006698919,9.781090736
1784241410.545529,-0.001154446,-0.003634940,0.161928266,0.000843821,0.001127260,-0.000059569,0.044180498,0.005854040,9.795956612
1784241410.547527,-0.001158774,-0.003630234,0.161931366,0.000587401,0.001309243,0.000413595,0.041854527,-0.002062861,9.779316902
1784241410.549527,-0.001163620,-0.003626562,0.161929905,-0.000194412,0.001522331,0.000414808,0.044990137,-0.038924336,9.790739059
1784241410.551533,-0.001166832,-0.003626017,0.161930338,-0.000621810,0.001407149,0.000233893,0.025778107,-0.032354791,9.783590317
1784241410.553533,-0.001168457,-0.003621570,0.161926240,-0.000715194,0.001375995,-0.000077779,0.006148516,-0.021481125,9.802021980
1784241410.555531,-0.001173423,-0.003622554,0.161925569,-0.000929829,0.001157332,-0.000378361,0.053865977,-0.008708942,9.810220718
1784241410.557537,-0.001175214,-0.003627439,0.161932349,-0.001094791,0.000363621,0.000139243,0.064725041,-0.002460999,9.794130325
1784241410.559535,-0.001173971,-0.003625177,0.161934644,-0.000832462,0.000086056,0.000717166,0.037774142,-0.005585267,9.777944565
1784241410.561536,-0.001167017,-0.003626382,0.161935076,-0.000076543,0.000186405,0.000707516,0.030071000,-0.010539109,9.795390129
1784241410.563541,-0.001167373,-0.003628834,0.161929131,0.000363497,-0.000059854,0.000138925,0.012305082,0.003692115,9.779324532
1784241410.565539,-0.001168050,-0.003628854,0.161931664,0.000159025,-0.000270472,-0.000131881,0.045633040,-0.024023365,9.773350716
1784241410.567537,-0.001170097,-0.003633993,0.161936313,-0.000102094,-0.000607116,0.000391713,0.039334066,-0.023672977,9.798453331
1784241410.569543,-0.001171287,-0.003632522,0.161943093,-0.000291256,-0.000692147,0.001062868,0.034160875,-0.042100143,9.815814972
1784241410.571542,-0.001177318,-0.003628973,0.161945656,-0.000620957,-0.000139163,0.001410505,0.010254388,-0.016541703,9.793091774
1784241410.573543,-0.001181658,-0.003626380,0.161946848,-0.001076401,0.000340321,0.001284752,0.033078086,0.016227745,9.806325912
1784241410.575543,-0.001185468,-0.003629799,0.161944315,-0.001412430,0.000223790,0.000847555,0.039496161,-0.010640765,9.792709351
1784241410.577549,-0.001188942,-0.003624532,0.161939174,-0.001599993,0.000320930,0.000096924,0.025124980,-0.010151919,9.812872887
1784241410.579586,-0.001183972,-0.003622312,0.161942020,-0.001064666,0.000742220,-0.000085846,0.034309451,0.005983711,9.795500755
1784241410.581553,-0.001181626,-0.003624704,0.161951199,-0.000284743,0.000534966,0.000753560,0.046818972,0.002153190,9.807593346
1784241410.583554,-0.001184142,-0.003624002,0.161955610,-0.000224229,0.000280798,0.001471988,0.024005916,-0.030126970,9.788534164
1784241410.585552,-0.001185936,-0.003622190,0.161953896,-0.000410668,0.000354652,0.001256308,0.055110350,0.017118588,9.767347336
1784241410.587552,-0.001187660,-0.003629387,0.161945239,-0.000495969,-0.000126643,0.000211748,0.028696477,-0.010340993,9.833050728
1784241410.589564,-0.001183527,-0.003632971,0.161943808,-0.000200271,-0.000823216,-0.000532510,0.038812581,-0.028699730,9.813215256
1784241410.591556,-0.001179207,-0.003629619,0.161949292,0.000490895,-0.000603691,-0.000113143,0.060446158,-0.019708412,9.833021164
1784241410.593559,-0.001176931,-0.003630285,0.161951840,0.000869340,-0.000246089,0.000464042,0.057712797,-0.024861846,9.806532860
1784241410.595562,-0.001174951,-0.003631328,0.161950156,0.000962683,-0.000232615,0.000395450,0.030116968,-0.042902984,9.809978485
1784241410.597561,-0.001185943,-0.003628394,0.161950514,0.000129598,0.000021792,0.000200998,0.049072146,0.002200753,9.796836853
1784241410.599561,-0.001187120,-0.003632695,0.161944792,-0.000732875,-0.000076447,-0.000213421,0.051069610,-0.017601872,9.805677414
1784241410.601562,-0.001186215,-0.003640716,0.161938280,-0.000536197,-0.000873999,-0.000987402,0.051303569,-0.035513349,9.803769112
1784241410.603572,-0.001187324,-0.003639179,0.161931813,-0.000388500,-0.001058740,-0.001603180,0.078488603,-0.015140804,9.788234711
1784241410.605570,-0.001187101,-0.003639615,0.161926106,-0.000364803,-0.000580777,-0.001994333,0.040746640,0.017261226,9.773163795
1784241410.607571,-0.001190938,-0.003639154,0.161928371,-0.000530546,-0.000306263,-0.001684275,0.018388983,-0.009703564,9.824975014
1784241410.609580,-0.001184940,-0.003637763,0.161935762,-0.000237396,-0.000098169,-0.000573160,0.012684677,-0.002127589,9.777942657
1784241410.611577,-0.001179274,-0.003633220,0.161938876,0.000629420,0.000280039,0.000292732,0.045590360,0.010392717,9.785228729
1784241410.613580,-0.001176188,-0.003632834,0.161941409,0.001062016,0.000487700,0.000597899,0.026546692,-0.005114404,9.794973373
1784241410.615575,-0.001170046,-0.003633142,0.161940008,0.001392466,0.000316709,0.000511557,0.019093158,-0.027045641,9.805137634
1784241410.617578,-0.001169331,-0.003630345,0.161942542,0.001472236,0.000355873,0.000449315,0.034390640,-0.022860076,9.819078445
1784241410.619580,-0.001171079,-0.003636248,0.161940306,0.001002473,0.000048443,0.000347106,0.063185781,-0.017747562,9.804341316
1784241410.621582,-0.001172317,-0.003642816,0.161939099,0.000528071,-0.000748517,0.000016520,0.053661246,-0.022888266,9.851375580
1784241410.623582,-0.001171055,-0.003639749,0.161939815,0.000387496,-0.000720550,-0.000022022,0.011678418,-0.007028134,9.838884354
1784241410.625590,-0.001170174,-0.003636081,0.161938399,0.000417926,-0.000125522,-0.000064739,0.025695940,-0.038677122,9.790721893
1784241410.627590,-0.001172162,-0.003637230,0.161940396,0.000219806,0.000021784,-0.000007542,0.056176692,-0.004559780,9.789626122
1784241410.629586,-0.001169048,-0.003638661,0.161934972,0.000235724,-0.000158961,-0.000238003,0.063635521,0.019439571,9.803685188
1784241410.631587,-0.001165947,-0.003640626,0.161925301,0.000520421,-0.000288706,-0.001199726,0.046889689,0.007979870,9.807182312
1784241410.633593,-0.001166070,-0.003642844,0.161925212,0.000509415,-0.000437080,-0.001539942,0.038034912,-0.020853490,9.782329559
1784241410.635600,-0.001163478,-0.003647212,0.161929592,0.000551189,-0.000749564,-0.000832100,0.038331542,0.004588079,9.795495987
1784241410.637639,-0.001164382,-0.003651773,0.161922261,0.000526801,-0.001135618,-0.000804813,0.063269377,-0.011819140,9.789586067
1784241410.639626,-0.001171908,-0.003649137,0.161921844,-0.000190405,-0.000957341,-0.001108418,0.045331467,-0.047882948,9.789786339
1784241410.641643,-0.001177697,-0.003647472,0.161925986,-0.000926438,-0.000343946,-0.000551009,0.018200878,-0.025372671,9.823528290
1784241410.643613,-0.001174325,-0.003644708,0.161929637,-0.000721834,0.000111256,0.000127058,0.018396044,-0.012889798,9.768913269
1784241410.645603,-0.001174574,-0.003647188,0.161929742,-0.000305035,0.000063657,0.000348559,0.052269094,-0.030123875,9.800217628
1784241410.647604,-0.001171455,-0.003647301,0.161925942,-0.000020409,-0.000165706,0.000003354,0.026288845,-0.026197195,9.798873901
1784241410.649612,-0.001167572,-0.003649818,0.161923721,0.000458909,-0.000298732,-0.000409968,0.031393576,0.023605717,9.779919624
1784241410.651609,-0.001170004,-0.003653711,0.161926493,0.000351509,-0.000717469,-0.000262293,0.037360895,0.000373971,9.822815895
1784241410.653614,-0.001181532,-0.003651562,0.161926046,-0.000772321,-0.000706029,-0.000028248,0.045255456,-0.018187767,9.772491455
1784241410.655607,-0.001189746,-0.003653338,0.161922961,-0.001894683,-0.000439997,-0.000253935,0.043845896,-0.021103110,9.806992531
1784241410.657617,-0.001191467,-0.003653700,0.161926284,-0.002045740,-0.000416925,-0.000165513,0.032693770,-0.014363974,9.824510574
1784241410.659611,-0.001190236,-0.003653025,0.161927775,-0.001522380,-0.000282835,0.000207443,0.059198730,-0.013238464,9.807505608
1784241410.661621,-0.001190550,-0.003660280,0.161928430,-0.001036692,-0.000599153,0.000296478,0.056210015,0.000161116,9.818799019
1784241410.663618,-0.001190408,-0.003662502,0.161928594,-0.000757117,-0.001026225,0.000269867,0.069054119,-0.017139047,9.771174431
1784241410.665619,-0.001188799,-0.003663744,0.161924511,-0.000438929,-0.000850607,-0.000071558,0.035263646,-0.025495747,9.810093880
1784241410.667618,-0.001186280,-0.003666535,0.161927059,-0.000045199,-0.000761412,-0.000157775,0.019804239,-0.042306896,9.807731628
1784241410.669617,-0.001187184,-0.003666365,0.161928236,0.000077657,-0.000732879,0.000139990,0.035426959,0.025135972,9.809522629
1784241410.671690,-0.001187978,-0.003664360,0.161922559,-0.000135532,-0.000399411,-0.000201437,0.046724949,-0.004667977,9.821896553
1784241410.673630,-0.001190964,-0.003662814,0.161918193,-0.000433585,-0.000062624,-0.000828954,0.033778690,-0.036706138,9.814057350
1784241410.675625,-0.001194911,-0.003660663,0.161917835,-0.000741785,0.000199490,-0.000925109,0.003645267,-0.006581243,9.790458679
1784241410.677630,-0.001202496,-0.003662542,0.161919013,-0.001277100,0.000157474,-0.000617861,0.042019032,0.010988425,9.770883560
1784241410.679630,-0.001197045,-0.003664574,0.161922634,-0.001074029,-0.000151177,-0.000123863,0.030397657,-0.020018818,9.804746628
1784241410.681630,-0.001194412,-0.003667664,0.161923826,-0.000240249,-0.000491416,0.000236455,0.066696107,-0.024903700,9.796229362
1784241410.683634,-0.001197408,-0.003668228,0.161917314,-0.000208762,-0.000638865,-0.000187381,0.048022766,-0.011550534,9.779261589
1784241410.685633,-0.001195452,-0.003664732,0.161912709,-0.000215570,-0.000239546,-0.000890504,0.044466704,-0.007187092,9.802150726
1784241410.687631,-0.001193958,-0.003664851,0.161913425,0.000086037,0.000081057,-0.000914671,0.027824668,-0.010532622,9.798527718
1784241410.689641,-0.001191146,-0.003662367,0.161921039,0.000357020,0.000218974,-0.000102345,0.007040229,-0.020727066,9.820410728
1784241410.691634,-0.001190265,-0.003659369,0.161922529,0.000519114,0.000409490,0.000544028,0.036167208,-0.024242848,9.821311951
1784241410.693642,-0.001196990,-0.003658053,0.161919236,-0.000012852,0.000469831,0.000273309,0.051032621,0.016048653,9.799166679
1784241410.695643,-0.001194719,-0.003661188,0.161917508,-0.000420866,0.000245349,-0.000142057,0.071252935,-0.017520731,9.820940018
1784241410.697643,-0.001190871,-0.003661368,0.161925390,0.000002276,-0.000020596,0.000314104,0.082689591,-0.004587375,9.745715141
1784241410.699639,-0.001189077,-0.003656205,0.161929831,0.000387697,0.000322264,0.001064716,0.000927390,-0.008370386,9.794927597
1784241410.701644,-0.001189442,-0.003654415,0.161928400,0.000381502,0.000651000,0.000979700,0.014261248,0.018721739,9.804529190
1784241410.703650,-0.001187691,-0.003656121,0.161927775,0.000372746,0.000424650,0.000572180,0.029314281,0.000309305,9.783353806
1784241410.705657,-0.001184225,-0.003656334,0.161926329,0.000600229,0.000149240,0.000275062,0.023590889,-0.024587067,9.829367638
1784241410.707656,-0.001181918,-0.003654873,0.161927551,0.000804142,0.000163410,0.000186234,0.014986305,0.002355077,9.773489952
1784241410.709652,-0.001173744,-0.003654782,0.161925107,0.001296957,0.000224462,0.000050147,0.016761905,0.003396154,9.812952042
1784241410.711649,-0.001169165,-0.003649817,0.161919475,0.001731363,0.000450994,-0.000517204,0.029308993,0.001078040,9.801292419
1784241410.713664,-0.001172982,-0.003647237,0.161922306,0.001235140,0.000784563,-0.000569830,0.037887096,0.004222184,9.784731865
1784241410.715653,-0.001167949,-0.003647346,0.161917686,0.000942672,0.000738390,-0.000537461,0.028960632,-0.028013997,9.797519684
1784241410.717656,-0.001163541,-0.003648560,0.161919177,0.001287559,0.000447302,-0.000604688,0.020233145,-0.009742094,9.764003754
1784241410.719660,-0.001168985,-0.003648088,0.161922768,0.000868914,0.000275038,-0.000094898,0.021246966,0.002512693,9.803087234
1784241410.721669,-0.001167426,-0.003643895,0.161919206,0.000315160,0.000478317,-0.000065070,0.036894057,-0.002600205,9.800827980
1784241410.723667,-0.001155762,-0.003642243,0.161915213,0.001071066,0.000707108,-0.000564551,0.046058215,-0.024620159,9.793521881
1784241410.725665,-0.001152283,-0.003642477,0.161913782,0.001835807,0.000636598,-0.000784985,0.037755318,-0.042107984,9.810440063
1784241410.727661,-0.001154760,-0.003642795,0.161909953,0.001433104,0.000451476,-0.000929787,0.034777187,-0.030245870,9.785853386
1784241410.729662,-0.001158132,-0.003646074,0.161916718,0.000647718,0.000084501,-0.000477742,0.024746699,-0.005942817,9.788690567
1784241410.731663,-0.001159101,-0.003648059,0.161922455,0.000127078,-0.000295371,0.000500887,0.024831809,0.001618468,9.796360970
1784241410.733670,-0.001158435,-0.003651082,0.161922589,0.000020268,-0.000554276,0.000763046,0.041546177,0.010803394,9.797779083
1784241410.735672,-0.001159126,-0.003653805,0.161924601,-0.000021166,-0.000777726,0.000701164,0.038149998,-0.044566575,9.840462685
1784241410.737672,-0.001166389,-0.003650648,0.161925524,-0.000589376,-0.000521057,0.000711721,0.032387581,-0.006748876,9.762240410
1784241410.739677,-0.001173097,-0.003645902,0.161925703,-0.001377409,0.000156710,0.000595189,0.052239310,0.041983925,9.804266930
1784241410.741673,-0.001169626,-0.003642905,0.161923751,-0.001353996,0.000681230,0.000312847,0.055156782,-0.013215343,9.811537743
1784241410.743675,-0.001169702,-0.003642194,0.161921233,-0.000887447,0.000789610,-0.000074164,0.027639156,0.008977110,9.764578819
1784241410.745721,-0.001171595,-0.003644063,0.161919788,-0.000823137,0.000475331,-0.000322623,0.002749128,-0.007370276,9.777003288
1784241410.747682,-0.001167126,-0.003643387,0.161914349,-0.000468460,0.000244280,-0.000701716,0.010337600,-0.007779615,9.820944786
1784241410.749687,-0.001168587,-0.003645071,0.161916345,-0.000137940,0.000109744,-0.000742904,0.031840257,-0.014005894,9.775642395
1784241410.751679,-0.001173633,-0.003646629,0.161926582,-0.000534057,-0.000131921,0.000290335,0.022916676,-0.009439913,9.779699326
1784241410.753699,-0.001170588,-0.003647591,0.161933661,-0.000515516,-0.000259388,0.001386782,0.009918936,-0.005105189,9.823651314
1784241410.755694,-0.001169925,-0.003648331,0.161931187,-0.000138338,-0.000350855,0.001319631,0.060634602,-0.006062899,9.803967476
1784241410.757687,-0.001172076,-0.003644398,0.161924973,-0.000219474,-0.000084130,0.000369413,0.054551736,-0.027817432,9.786786079
1784241410.759692,-0.001169803,-0.003644016,0.161929905,-0.000151877,0.000231706,0.000183518,0.044507086,-0.040405560,9.810905457
1784241410.761687,-0.001174056,-0.003642056,0.161930576,-0.000177445,0.000333723,0.000516611,0.041198045,-0.018692086,9.787728310
1784241410.763690,-0.001174124,-0.003641340,0.161926776,-0.000357157,0.000431430,0.000163430,0.046391137,-0.034455616,9.789872169
1784241410.765696,-0.001169873,-0.003639127,0.161925331,0.000091005,0.000515249,-0.000237283,0.019632481,-0.020662289,9.788591385
1784241410.767700,-0.001169755,-0.003640318,0.161931351,0.000432595,0.000446058,0.000138018,0.004979923,-0.007094144,9.797182083
1784241410.769700,-0.001172858,-0.003644123,0.161936790,0.000115367,-0.000015102,0.000877579,0.049801819,-0.010887471,9.808856964
1784241410.771694,-0.001175372,-0.003645363,0.161938250,-0.000314059,-0.000365032,0.001109068,0.063965693,0.008771786,9.791064262
1784241410.773699,-0.001172299,-0.003644989,0.161942944,-0.000207818,-0.000336151,0.001225797,0.028283961,-0.009239004,9.804812431
1784241410.775697,-0.001165414,-0.003644706,0.161946833,0.000539292,-0.000215334,0.001474919,0.053095285,0.003244879,9.831815720
1784241410.777697,-0.001166839,-0.003647412,0.161940858,0.000775602,-0.000335563,0.000932680,0.047556821,0.025098385,9.792946815
1784241410.779695,-0.001171740,-0.003650617,0.161936209,0.000133038,-0.000644811,-0.000042523,0.046737727,0.031807043,9.796127319
1784241410.781738,-0.001172891,-0.003648929,0.161932364,-0.000422882,-0.000600046,-0.000607168,0.055248268,-0.007629954,9.781983376
1784241410.783752,-0.001177257,-0.003648985,0.161933035,-0.000790235,-0.000354063,-0.000656222,0.031715218,-0.023908731,9.782303810
1784241410.785768,-0.001181753,-0.003652036,0.161938459,-0.001153078,-0.000483701,-0.000062016,0.053227451,0.011988255,9.799143791
1784241410.787725,-0.001183721,-0.003650539,0.161941811,-0.001253956,-0.000473015,0.000552221,0.021067427,-0.014709776,9.768006325
1784241410.789719,-0.001179846,-0.003651748,0.161943287,-0.000782855,-0.000325448,0.000730553,0.013800050,-0.018961042,9.811909676
1784241410.791714,-0.001179324,-0.003651496,0.161939174,-0.000205170,-0.000379369,0.000354488,0.035123933,-0.001166554,9.791420937
1784241410.793721,-0.001176482,-0.003650564,0.161939099,0.000145170,-0.000273231,-0.000027084,0.019532714,-0.025907826,9.833389282
1784241410.795722,-0.001177532,-0.003642981,0.161944866,0.000295959,0.000323096,0.000365588,0.047826957,-0.026469976,9.798443794
1784241410.797721,-0.001175747,-0.003641505,0.161944240,0.000333967,0.000794509,0.000615634,0.063996688,-0.025736513,9.792186737
1784241410.799714,-0.001175134,-0.003648515,0.161946222,0.000406364,0.000203038,0.000539926,0.042434655,-0.026057953,9.813236237
1784241410.801757,-0.001174774,-0.003653175,0.161948994,0.000381933,-0.000624432,0.000717115,0.064292401,-0.001517994,9.788308144
1784241410.803752,-0.001173485,-0.003651400,0.161942810,0.000408074,-0.000630304,0.000289985,0.063035376,0.006902402,9.803605080
1784241410.805732,-0.001172392,-0.003651534,0.161934212,0.000468847,-0.000288288,-0.000795407,0.023883363,-0.003230829,9.786913872
1784241410.807726,-0.001171199,-0.003651414,0.161941022,0.000509822,-0.000152517,-0.000702201,0.016384259,0.007204983,9.782040596
1784241410.809733,-0.001171327,-0.003652324,0.161944345,0.000446151,-0.000165576,0.000177257,0.024779450,-0.001631729,9.812479973
1784241410.811742,-0.001170817,-0.003656831,0.161942348,0.000361143,-0.000531004,0.000220178,0.027298283,-0.017624298,9.788617134
1784241410.813751,-0.001165593,-0.003658302,0.161940366,0.000661281,-0.000834903,-0.000109224,0.043377336,-0.022469867,9.811018944
1784241410.815748,-0.001159415,-0.003661314,0.161943734,0.001296834,-0.000883008,0.000013473,0.042232625,-0.006678587,9.797668457
1784241410.817759,-0.001160054,-0.003664827,0.161938548,0.001361043,-0.001056417,-0.000115169,0.039300416,0.011219685,9.806300163
1784241410.819742,-0.001159865,-0.003669115,0.161927253,0.000956860,-0.001297788,-0.001203091,0.038137812,-0.008288695,9.842488289
1784241410.821766,-0.001153936,-0.003669239,0.161922365,0.001044184,-0.001279860,-0.001975892,0.002079809,-0.024911325,9.787651062
1784241410.823745,-0.001153262,-0.003668577,0.161927834,0.001144925,-0.000932188,-0.001399683,0.008495832,-0.013395698,9.794903755
1784241410.825780,-0.001150349,-0.003663214,0.161929622,0.001076103,-0.000356161,-0.000527053,0.033619538,-0.013746267,9.798959732
1784241410.827746,-0.001148326,-0.003665444,0.161927089,0.001115522,-0.000132166,-0.000433853,0.025632603,-0.005639901,9.807523727
1784241410.829767,-0.001152447,-0.003668674,0.161925644,0.000669238,-0.000466517,-0.000586106,0.065392233,-0.020905679,9.803427696
1784241410.831786,-0.001154377,-0.003666572,0.161927655,0.000058212,-0.000330904,-0.000388482,0.049153108,0.008513548,9.791048050
1784241410.833758,-0.001154451,-0.003665335,0.161925703,-0.000112324,0.000071136,-0.000278493,0.043263134,0.006113189,9.824203491
1784241410.835759,-0.001148831,-0.003669518,0.161925852,0.000246625,-0.000126397,-0.000326694,0.038072787,0.019872203,9.788867950
1784241410.837773,-0.001149751,-0.003672777,0.161923572,0.000450608,-0.000575552,-0.000381652,0.057330664,-0.020277921,9.792664528
1784241410.839765,-0.001149528,-0.003668890,0.161921352,0.000279823,-0.000376341,-0.000581729,0.020382125,0.003591814,9.778883934
1784241410.841764,-0.001149169,-0.003669857,0.161916718,0.000229871,-0.000069031,-0.000888927,0.022842789,-0.016102100,9.771587372
1784241410.843766,-0.001149337,-0.003675004,0.161918968,0.000168036,-0.000458740,-0.000809296,0.054605823,-0.023337821,9.786814690
1784241410.845761,-0.001150264,-0.003677632,0.161927894,0.000065952,-0.000801666,0.000168937,0.049319163,-0.015202348,9.786412239
1784241410.847762,-0.001149541,-0.003674303,0.161930203,0.000052062,-0.000476162,0.000884871,0.012838664,0.011651102,9.793274879
1784241410.849771,-0.001143797,-0.003675002,0.161931708,0.000477842,-0.000168640,0.000902055,0.035123292,-0.003603121,9.755986214
1784241410.851785,-0.001139041,-0.003675572,0.161927357,0.001057174,-0.000232736,0.000462101,0.030491343,0.023579065,9.785299301
1784241410.853774,-0.001140476,-0.003678286,0.161923230,0.000990423,-0.000415827,-0.000239025,0.034687035,0.000148106,9.796359062
1784241410.855768,-0.001143289,-0.003681500,0.161923930,0.000433189,-0.000689821,-0.000408396,0.049368177,-0.047947414,9.791582108
1784241410.857769,-0.001146784,-0.003676513,0.161921695,-0.000112035,-0.000366718,-0.000402727,0.045859639,-0.040371936,9.803732872
1784241410.859764,-0.001150044,-0.003673919,0.161920518,-0.000540985,0.000247759,-0.000522898,0.044593539,0.040725064,9.806044579
1784241410.861771,-0.001147346,-0.003677786,0.161920384,-0.000606555,0.000151875,-0.000468663,0.034112941,-0.010562236,9.791358948
1784241410.863772,-0.001144513,-0.003677387,0.161920846,-0.000240317,-0.000067097,-0.000321015,0.047923513,-0.018413035,9.799392700
1784241410.865782,-0.001143767,-0.003675973,0.161927417,0.000064871,0.000076189,0.000239588,0.030176129,-0.001198702,9.804866791
1784241410.867791,-0.001142018,-0.003676893,0.161928624,0.000213774,0.000091035,0.000701521,0.017828183,-0.020308983,9.805180550
1784241410.869775,-0.001143166,-0.003675651,0.161927998,0.000196671,0.000088194,0.000550360,0.043489318,-0.013075398,9.812872887
1784241410.871775,-0.001138476,-0.003676038,0.161928952,0.000401401,0.000101893,0.000422622,0.053818963,-0.013537943,9.796291351
1784241410.873785,-0.001134855,-0.003677234,0.161928296,0.000874219,-0.000053611,0.000329159,0.039993197,-0.007428121,9.781074524
1784241410.875800,-0.001131107,-0.003677637,0.161923960,0.001093755,-0.000091337,-0.000099742,0.026215941,0.002306737,9.760051727
1784241410.877783,-0.001128232,-0.003672211,0.161926553,0.001203799,0.000330369,-0.000193147,0.046144314,0.020944081,9.812644005
1784241410.879820,-0.001126466,-0.003667597,0.161934704,0.001194647,0.000921326,0.000588683,0.032768510,0.026247622,9.783972740
1784241410.881785,-0.001122758,-0.003667217,0.161936492,0.001130754,0.001064793,0.001102392,0.011494626,0.010874175,9.778922081
1784241410.883786,-0.001122294,-0.003667558,0.161930799,0.000992366,0.000834069,0.000535916,0.041810632,0.032343689,9.792538643
1784241410.885784,-0.001117383,-0.003667422,0.161926165,0.000946053,0.000596060,-0.000310303,0.028395066,-0.001877667,9.777510643
1784241410.887786,-0.001117734,-0.003667243,0.161924183,0.000857860,0.000457710,-0.000673930,0.027089521,-0.034672257,9.792095184
1784241410.889790,-0.001121870,-0.003671272,0.161923796,0.000319735,0.000072274,-0.000652338,0.016674327,-0.003374140,9.820082664
1784241410.891789,-0.001125952,-0.003672110,0.161919132,-0.000362092,-0.000294276,-0.000818065,0.001672715,-0.020524530,9.801575661
1784241410.893790,-0.001122319,-0.003670667,0.161921188,-0.000330793,-0.000190010,-0.000773422,0.031807985,-0.013450191,9.823617935
1784241410.895789,-0.001118262,-0.003671035,0.161922678,0.000306486,-0.000051228,-0.000324382,0.052146878,-0.040004458,9.803741455
1784241410.897793,-0.001120537,-0.003673774,0.161925226,0.000369786,-0.000234012,0.000036624,0.063132562,0.014559083,9.797825813
1784241410.899793,-0.001119335,-0.003680217,0.161918685,0.000195572,-0.000793452,-0.000244666,0.026531551,-0.007665447,9.775679588
1784241410.901793,-0.001119413,-0.003686128,0.161913738,0.000175622,-0.001451042,-0.000956257,0.049593866,0.006824060,9.775794029
1784241410.903794,-0.001124572,-0.003685644,0.161914378,-0.000268920,-0.001460462,-0.000985311,0.045156971,0.013356137,9.810352325
1784241410.905803,-0.001124889,-0.003681850,0.161920443,-0.000641179,-0.000769371,-0.000262541,0.050356738,-0.002759967,9.799047470
1784241410.907798,-0.001132729,-0.003678461,0.161929101,-0.001092317,-0.000069308,0.000806353,0.013022793,-0.008274795,9.822736740
1784241410.909805,-0.001132283,-0.003678291,0.161927402,-0.001295880,0.000190554,0.001060334,0.032495942,0.005453817,9.810290337
1784241410.911806,-0.001125531,-0.003674293,0.161925733,-0.000520045,0.000410210,0.000542973,0.040635053,-0.029720025,9.764343262
1784241410.913805,-0.001123478,-0.003670980,0.161928296,0.000155264,0.000783260,0.000456272,0.029641788,-0.047564086,9.773184776
1784241410.915808,-0.001121744,-0.003674142,0.161921009,0.000443995,0.000573560,0.000011018,0.026624028,0.001169769,9.793220520
1784241410.917812,-0.001119752,-0.003678761,0.161919296,0.000649178,-0.000117353,-0.000605180,0.032244597,-0.016388174,9.794906616
1784241410.919810,-0.001124076,-0.003677206,0.161915943,0.000313367,-0.000293119,-0.000782243,0.043463938,-0.016112559,9.798954010
1784241410.921811,-0.001122608,-0.003675082,0.161915332,0.000073822,0.000064318,-0.000836312,0.018381614,0.023775630,9.779459000
1784241410.923819,-0.001112915,-0.003678753,0.161919534,0.000852601,-0.000030655,-0.000370715,0.034461871,-0.018650368,9.793998718
1784241410.925818,-0.001115736,-0.003685538,0.161916986,0.001124144,-0.000725850,-0.000161852,0.022644673,-0.032660756,9.769237518
1784241410.927827,-0.001122199,-0.003686332,0.161910713,0.000222765,-0.001036132,-0.000714373,0.022425625,-0.011794800,9.796720505
1784241410.929894,-0.001119907,-0.003688299,0.161908224,-0.000123023,-0.000941535,-0.001114598,0.025412690,0.013192933,9.805850029
1784241410.931828,-0.001117956,-0.003687896,0.161906525,0.000149222,-0.000826157,-0.001098185,0.063858196,-0.036150906,9.807810783
1784241410.933833,-0.001113268,-0.003690415,0.161903217,0.000510003,-0.000779524,-0.001140334,0.067894273,-0.035815097,9.816337585
1784241410.935832,-0.001115555,-0.003698407,0.161901176,0.000623364,-0.001193810,-0.001191826,0.037834216,-0.035001017,9.819003105
1784241410.937829,-0.001116965,-0.003698473,0.161897615,0.000291919,-0.001329046,-0.001247119,0.045754183,-0.010098784,9.831274986
1784241410.939847,-0.001118153,-0.003700418,0.161898047,0.000035503,-0.001104414,-0.001123156,0.069147564,-0.007890846,9.793651581
1784241410.941833,-0.001122774,-0.003702343,0.161893368,-0.000386735,-0.000991788,-0.001105716,0.021600902,-0.005130656,9.806178093
1784241410.943849,-0.001120426,-0.003700322,0.161888778,-0.000455551,-0.000640225,-0.001434115,0.010733302,-0.013472141,9.801630020
1784241410.945846,-0.001124843,-0.003700895,0.161881730,-0.000487602,-0.000419312,-0.001835984,0.024901375,0.006625539,9.785184860
1784241410.947834,-0.001128455,-0.003705464,0.161881849,-0.000914351,-0.000706002,-0.001806943,0.052936640,-0.010165335,9.827694893
1784241410.949839,-0.001127610,-0.003711189,0.161891550,-0.000851423,-0.001213843,-0.000649595,0.060473420,-0.020708891,9.784594536
1784241410.951860,-0.001130521,-0.003707922,0.161889344,-0.000726439,-0.000989684,0.000034491,0.051064659,-0.018856727,9.793114662
1784241410.953854,-0.001135975,-0.003711927,0.161886781,-0.001066126,-0.000708656,-0.000297572,0.025696585,-0.001487420,9.790513039
1784241410.955841,-0.001140567,-0.003714537,0.161884248,-0.001481714,-0.001005984,-0.000560593,0.034158282,-0.007772724,9.777030945
1784241410.957844,-0.001148843,-0.003709751,0.161879614,-0.001976557,-0.000625653,-0.000893594,0.037896466,-0.032077961,9.785844803
1784241410.959852,-0.001149448,-0.003707717,0.161878675,-0.002044137,0.000007575,-0.001025422,0.061488096,-0.012094660,9.768510818
1784241410.961852,-0.001151141,-0.003709109,0.161880434,-0.001609973,0.000119021,-0.000689394,0.039868977,0.020265374,9.793355942
1784241410.963849,-0.001150208,-0.003712135,0.161880597,-0.001189091,-0.000143347,-0.000374142,0.053195853,0.008496782,9.786119461
1784241410.965860,-0.001154693,-0.003717804,0.161879897,-0.001137932,-0.000582718,-0.000308740,0.053552642,-0.037524350,9.767443657
1784241410.967856,-0.001163077,-0.003722829,0.161875442,-0.001734260,-0.001038076,-0.000569736,0.035360318,-0.016222106,9.828983307
1784241410.969856,-0.001164503,-0.003723959,0.161872670,-0.001931156,-0.001173485,-0.000902813,0.046861771,0.003706931,9.778013229
1784241410.971853,-0.001163742,-0.003721597,0.161874428,-0.001472931,-0.000723187,-0.000726249,0.032170832,-0.021833654,9.804736137
1784241410.973872,-0.001169738,-0.003727180,0.161870539,-0.001449607,-0.000697345,-0.000672009,0.027704179,-0.019183787,9.818198204
1784241410.975883,-0.001176163,-0.003724838,0.161872834,-0.001903935,-0.000781654,-0.000597715,0.044370659,-0.016860995,9.776534081
1784241410.977949,-0.001178972,-0.003725732,0.161878809,-0.002016054,-0.000525541,0.000126441,0.045847397,-0.003283982,9.817869186
1784241410.980183,-0.001174811,-0.003727454,0.161876038,-0.001376072,-0.000560635,0.000310908,0.051793754,-0.032354761,9.799755096
1784241410.981912,-0.001169468,-0.003726942,0.161877319,-0.000292425,-0.000410874,0.000122316,0.030824549,-0.022223037,9.798903465
1784241410.983893,-0.001163654,-0.003720751,0.161879674,0.000610500,0.000234875,0.000331083,0.026696010,0.006195910,9.779355049
1784241410.985911,-0.001164564,-0.003716605,0.161880910,0.000691098,0.000837513,0.000482987,0.038773403,0.004528279,9.803116798
1784241410.987892,-0.001167628,-0.003720115,0.161880240,0.000146460,0.000618283,0.000390452,0.035247363,-0.026029559,9.822196007
1784241410.989923,-0.001174089,-0.003721434,0.161872923,-0.000541887,0.000123276,-0.000256949,0.031551633,-0.000983834,9.772141457
1784241410.991888,-0.001173509,-0.003718952,0.161863253,-0.000820233,0.000196008,-0.001339565,0.016910121,-0.021676337,9.810102463
1784241410.993896,-0.001172774,-0.003716663,0.161861554,-0.000533046,0.000493373,-0.001747013,0.037853260,0.001118252,9.780229568
1784241410.995886,-0.001171286,-0.003715386,0.161861181,-0.000290559,0.000579774,-0.001412693,0.059610602,0.017976103,9.764666557
1784241410.997892,-0.001170839,-0.003717055,0.161856025,-0.000134348,0.000374387,-0.001405346,0.058020178,-0.000551124,9.789652824
1784241410.999895,-0.001170386,-0.003714777,0.161856994,-0.000037872,0.000314393,-0.001309262,0.075290382,-0.019605607,9.791789055
1784241411.001890,-0.001172040,-0.003715264,0.161862984,-0.000075356,0.000501191,-0.000479977,0.036090799,0.005449153,9.804465294
1784241411.003904,-0.001168914,-0.003713007,0.161862403,0.000078392,0.000635982,0.000016118,0.024369700,0.000302593,9.793212891
1784241411.005901,-0.001161760,-0.003708525,0.161859408,0.000736200,0.000912047,-0.000234386,0.026207659,-0.032106541,9.810938835
1784241411.007890,-0.001158681,-0.003705779,0.161867291,0.001214408,0.001145624,0.000160962,0.028580070,-0.019770440,9.836128235
1784241411.009893,-0.001154558,-0.003707794,0.161870360,0.001376306,0.000883267,0.000861455,0.035218641,-0.030308852,9.793923378
1784241411.011928,-0.001156961,-0.003709388,0.161876068,0.001201816,0.000372196,0.001225095,0.039388172,0.018396605,9.805000305
1784241411.013906,-0.001165059,-0.003709669,0.161876723,0.000244613,0.000117828,0.001326874,0.034401804,0.013602223,9.795101166
1784241411.015911,-0.001170028,-0.003707607,0.161874741,-0.000791828,0.000227377,0.000878621,0.070466235,0.027438892,9.800603867
1784241411.017904,-0.001173339,-0.003709260,0.161874339,-0.001222237,0.000214129,0.000479864,0.054724593,-0.013079226,9.793156624
1784241411.019900,-0.001165761,-0.003714472,0.161872938,-0.000601206,-0.000309798,0.000224096,0.014694287,-0.019808056,9.803385735
1784241411.021895,-0.001164834,-0.003716629,0.161876529,0.000211169,-0.000787011,0.000308589,0.010402671,-0.004834298,9.784647942
1784241411.023905,-0.001167596,-0.003714858,0.161879644,0.000102212,-0.000661001,0.000678548,0.066061616,0.033415262,9.787188530
1784241411.025903,-0.001170874,-0.003718262,0.161870182,-0.000498749,-0.000504160,0.000063053,0.041865636,0.000456387,9.803093910
1784241411.027905,-0.001175783,-0.003721211,0.161867380,-0.001083730,-0.000709867,-0.000784484,0.001283629,-0.014374513,9.819547653
1784241411.029903,-0.001180469,-0.003722358,0.161874950,-0.001439565,-0.000795567,-0.000246121,0.028195744,-0.018445868,9.776508331
1784241411.031904,-0.001181255,-0.003723675,0.161874831,-0.001354935,-0.000790817,0.000327509,0.042065069,-0.019348687,9.815522194
1784241411.033921,-0.001175152,-0.003717733,0.161873192,-0.000563326,-0.000305374,0.000117425,0.039863791,-0.052929133,9.816200256
1784241411.035916,-0.001182097,-0.003715038,0.161878377,-0.000345595,0.000373908,0.000326661,0.031834960,-0.013237158,9.793581009
1784241411.037917,-0.001181163,-0.003714384,0.161884934,-0.000535732,0.000509103,0.001036135,0.058803022,-0.010382788,9.784659386
1784241411.039913,-0.001173554,-0.003713262,0.161889657,0.000192480,0.000490471,0.001517601,0.035438567,-0.011551717,9.802114487
1784241411.041910,-0.001164669,-0.003716168,0.161888778,0.001264231,0.000258171,0.001362534,0.021398811,-0.022531187,9.796202660
1784241411.043930,-0.001166626,-0.003712035,0.161895066,0.001396018,0.000293267,0.001357988,0.053828448,-0.013868262,9.779701233
1784241411.045921,-0.001172855,-0.003712537,0.161893636,0.000499502,0.000491751,0.001317958,0.024161754,-0.013902167,9.837954521
1784241411.047916,-0.001171299,-0.003707874,0.161892474,0.000083036,0.000672889,0.000783927,0.013508423,-0.043957837,9.799195290
1784241411.049922,-0.001167403,-0.003708014,0.161892369,0.000430283,0.000797278,0.000486141,0.044310693,-0.058571652,9.782543182
1784241411.051937,-0.001169127,-0.003708834,0.161894917,0.000642387,0.000508802,0.000519755,0.045945093,-0.031997394,9.823065758
1784241411.053935,-0.001175625,-0.003707817,0.161897704,0.000092111,0.000377029,0.000742129,0.060249370,-0.000287713,9.811625481
1784241411.055930,-0.001179755,-0.003704870,0.161895499,-0.000702214,0.000611253,0.000580409,0.059533618,-0.022247955,9.813726425
1784241411.057953,-0.001175576,-0.003707628,0.161887884,-0.000558734,0.000526424,-0.000241699,0.039348297,0.015244976,9.807221413
1784241411.059939,-0.001170649,-0.003710435,0.161888584,0.000209375,0.000006275,-0.000643526,0.008742292,0.009218205,9.827775955
1784241411.061932,-0.001159995,-0.003708370,0.161892280,0.001131621,-0.000111219,-0.000176043,0.043131292,-0.042243749,9.819858551
1784241411.063943,-0.001155028,-0.003706940,0.161894068,0.001806413,0.000090700,0.000238326,0.050484531,-0.029614765,9.794838905
1784241411.065937,-0.001155823,-0.003712467,0.161897376,0.001606537,-0.000168619,0.000518776,0.036722265,0.022691315,9.835960388
1784241411.067951,-0.001152735,-0.003712343,0.161899149,0.001333400,-0.000446152,0.000722384,0.045444142,-0.002108855,9.779318810
1784241411.069940,-0.001151961,-0.003708973,0.161892921,0.001232426,-0.000087429,0.000224125,0.057993658,-0.001571048,9.807131767
1784241411.071933,-0.001152638,-0.003710191,0.161886185,0.000852713,0.000162741,-0.000717057,0.052962460,-0.010771905,9.786892891
1784241411.073939,-0.001147954,-0.003712714,0.161883712,0.000842390,-0.000055417,-0.001151781,0.068537399,-0.024154415,9.750506401
1784241411.075949,-0.001142462,-0.003716658,0.161885187,0.001355874,-0.000403384,-0.000909092,0.036640421,-0.023244575,9.806075096
1784241411.077942,-0.001135644,-0.003718676,0.161882982,0.001874923,-0.000622550,-0.000713822,0.015247436,0.025490073,9.796054840
1784241411.079943,-0.001132297,-0.003720138,0.161883116,0.002055364,-0.000689529,-0.000661627,0.031136712,0.002935920,9.788753510
1784241411.081944,-0.001130810,-0.003724144,0.161884055,0.001768518,-0.000915132,-0.000408631,0.072727293,-0.007609705,9.810693741
1784241411.083949,-0.001137267,-0.003722305,0.161881521,0.000893393,-0.000855202,-0.000404653,0.045593914,-0.026358558,9.786785126
1784241411.085946,-0.001139446,-0.003721489,0.161880627,0.000097557,-0.000431078,-0.000526250,0.062312827,-0.015921962,9.801215172
1784241411.087956,-0.001137695,-0.003721092,0.161883727,0.000076371,-0.000220452,-0.000235405,0.062938765,-0.000344465,9.814765930
1784241411.089967,-0.001141180,-0.003718988,0.161874816,-0.000063535,0.000009647,-0.000564852,0.019237412,-0.015370038,9.801177025
1784241411.091948,-0.001145909,-0.003715526,0.161867544,-0.000595327,0.000402213,-0.001508301,0.040331531,-0.016815614,9.777427673
1784241411.093952,-0.001142575,-0.003715948,0.161871687,-0.000516551,0.000515751,-0.001311274,0.038212478,-0.042046957,9.801024437
1784241411.095950,-0.001142674,-0.003716692,0.161871314,-0.000084331,0.000249558,-0.000699744,0.007391799,-0.029199561,9.814079285
1784241411.097960,-0.001148063,-0.003714599,0.161868826,-0.000363242,0.000226802,-0.000705536,0.027400663,0.028473748,9.795638084
1784241411.099979,-0.001152950,-0.003714902,0.161867082,-0.000963174,0.000287053,-0.000800217,0.000134017,-0.035401285,9.817171097
1784241411.101957,-0.001153134,-0.003719547,0.161860541,-0.001025944,-0.000229405,-0.001142495,0.012202421,-0.041192412,9.790693283
1784241411.103958,-0.001149098,-0.003730566,0.161861703,-0.000465249,-0.001333363,-0.001196363,0.031527244,-0.000771170,9.805317879
1784241411.105968,-0.001152030,-0.003730613,0.161870345,-0.000325775,-0.001709013,-0.000204691,0.049473446,0.000199664,9.825515747
1784241411.107963,-0.001154504,-0.003727775,0.161871582,-0.000666016,-0.001041947,0.000522271,0.073679529,-0.005162001,9.779775620
1784241411.109963,-0.001150865,-0.003726066,0.161873356,-0.000405358,-0.000450608,0.000583903,0.041340578,-0.005409056,9.809781075
1784241411.111964,-0.001146979,-0.003728897,0.161868185,0.000251734,-0.000382188,0.000194281,0.041460838,0.003645551,9.796389580
1784241411.113971,-0.001145710,-0.003728191,0.161863595,0.000567967,-0.000399934,-0.000523432,0.022316173,-0.022790326,9.767956734
1784241411.115971,-0.001146764,-0.003722162,0.161869332,0.000458511,0.000090243,-0.000303892,0.033492416,-0.025691777,9.777811050
1784241411.117972,-0.001142890,-0.003718641,0.161879361,0.000559322,0.000637288,0.000850236,0.040118758,0.003694603,9.791904449
1784241411.119974,-0.001141914,-0.003718216,0.161878452,0.000739010,0.000731440,0.001238184,0.048193667,0.002361699,9.775763512
1784241411.121974,-0.001132724,-0.003718312,0.161871210,0.001141974,0.000624297,0.000346886,0.025093896,-0.015260358,9.775180817
1784241411.123982,-0.001127229,-0.003717943,0.161871940,0.001742617,0.000542269,-0.000193639,0.027431330,-0.004010955,9.827260971
1784241411.125977,-0.001127481,-0.003715277,0.161871314,0.001619219,0.000539793,-0.000136683,0.029559862,-0.016699888,9.780555725
1784241411.127986,-0.001134172,-0.003709992,0.161869571,0.000701576,0.000871895,-0.000257112,0.043172773,-0.041916240,9.773681641
1784241411.129984,-0.001137967,-0.003706343,0.161870569,-0.000200844,0.001241682,-0.000236192,0.052912641,-0.012786331,9.818263054
1784241411.131981,-0.001137694,-0.003703835,0.161875784,-0.000409343,0.001323357,0.000248062,0.056747954,0.006128311,9.797765732
1784241411.133989,-0.001135961,-0.003704241,0.161880448,-0.000185099,0.001107263,0.000852624,0.011304341,-0.002380611,9.816047668
1784241411.135998,-0.001134700,-0.003707235,0.161879525,0.000028625,0.000501864,0.000875434,0.008634340,-0.000144460,9.821439743
1784241411.137988,-0.001136707,-0.003711552,0.161878839,-0.000070846,-0.000204185,0.000529132,0.037323948,-0.004375540,9.797677994
1784241411.139984,-0.001133337,-0.003709579,0.161881462,0.000041402,-0.000307984,0.000514109,0.043288726,-0.028843073,9.825325012
1784241411.142056,-0.001129319,-0.003707027,0.161877364,0.000562711,0.000081079,0.000271779,0.048349887,-0.019000296,9.818219185
1784241411.144022,-0.001126568,-0.003712740,0.161880419,0.000900580,-0.000157239,0.000128374,0.011299739,0.031930916,9.779505730
1784241411.146008,-0.001123912,-0.003717030,0.161889061,0.000885477,-0.000891322,0.000886855,0.010798101,0.028276665,9.790240288
1784241411.148001,-0.001123311,-0.003721947,0.161896646,0.000729687,-0.001372416,0.001746349,0.045287807,-0.013879851,9.796729088
1784241411.150000,-0.001125224,-0.003721457,0.161889061,0.000442536,-0.001300282,0.001273400,0.044813272,-0.016104370,9.795369148
1784241411.152005,-0.001124726,-0.003719880,0.161885500,0.000203497,-0.000828781,0.000172973,0.044033825,-0.005840639,9.802608490
1784241411.154010,-0.001124848,-0.003720259,0.161888584,0.000153594,-0.000545062,0.000093260,0.026792282,0.015466372,9.798691750
1784241411.156006,-0.001127257,-0.003721385,0.161896437,-0.000157766,-0.000520162,0.000809968,0.023215560,0.018450949,9.826504707
1784241411.158002,-0.001129205,-0.003718295,0.161899269,-0.000508566,-0.000266585,0.001315145,0.002237647,-0.011507466,9.792667389
1784241411.160007,-0.001123124,-0.003714473,0.161897346,-0.000089679,0.000274951,0.001018303,0.034601416,-0.005796218,9.813360214
1784241411.162014,-0.001122200,-0.003712180,0.161895916,0.000432342,0.000596889,0.000513169,0.031882972,0.029594798,9.818964005
1784241411.164014,-0.001128205,-0.003713302,0.161901370,-0.000005860,0.000495160,0.000647461,0.035342697,-0.020819001,9.782329559
1784241411.166015,-0.001133097,-0.003709130,0.161905259,-0.000703671,0.000602911,0.001106739,0.056130838,-0.005732327,9.828623772
1784241411.168011,-0.001136819,-0.003701742,0.161900908,-0.001059540,0.001259832,0.000776866,0.052496914,0.025880191,9.800128937
1784241411.170015,-0.001143309,-0.003705448,0.161893845,-0.001467879,0.001168563,-0.000206979,0.049271226,-0.018417567,9.797600746
1784241411.172097,-0.001152627,-0.003712582,0.161896572,-0.002174014,0.000203532,-0.000441956,0.014560662,-0.033831209,9.759360313
1784241411.174026,-0.001148199,-0.003714306,0.161893830,-0.001946309,-0.000365263,-0.000322379,0.037428949,-0.033841796,9.782695770
1784241411.176018,-0.001137092,-0.003714250,0.161897257,-0.000311411,-0.000363704,-0.000194513,0.072723322,-0.008451571,9.803066254
1784241411.178030,-0.001135118,-0.003717046,0.161901921,0.000714885,-0.000435888,0.000403417,0.105774157,-0.023459416,9.774757385
1784241411.180063,-0.001138191,-0.003720827,0.161902323,0.000447447,-0.000764298,0.000637282,0.014014794,-0.001055323,9.813817024
1784241411.182027,-0.001140702,-0.003724148,0.161895797,-0.000053098,-0.001013596,0.000048933,0.002840968,0.001865203,9.801272392
1784241411.184029,-0.001140601,-0.003728243,0.161899388,-0.000201504,-0.001216866,-0.000162828,0.035356913,-0.019491015,9.784578323
1784241411.186026,-0.001141371,-0.003732109,0.161902696,-0.000184863,-0.001388385,0.000350891,0.041279010,-0.009542456,9.824100494
1784241411.188026,-0.001144107,-0.003728214,0.161905274,-0.000365591,-0.000970838,0.000655638,0.038005799,-0.022299124,9.796667099
1784241411.190037,-0.001150313,-0.003726128,0.161905661,-0.000872538,-0.000301410,0.000680512,0.021902179,-0.017647518,9.801613808
1784241411.192027,-0.001148265,-0.003732399,0.161909506,-0.000924236,-0.000519686,0.000785463,0.029076865,-0.018991182,9.788610458
1784241411.194034,-0.001146010,-0.003732557,0.161916301,-0.000385960,-0.000831558,0.001295226,0.061216798,0.003900966,9.787891388
1784241411.196064,-0.001150463,-0.003733914,0.161918342,-0.000423144,-0.000657368,0.001541774,0.030271143,0.008872291,9.837658882
1784241411.198053,-0.001156149,-0.003733684,0.161917672,-0.000991200,-0.000503541,0.001215222,0.008629847,-0.002206207,9.796319962
1784241411.200049,-0.001155460,-0.003733535,0.161919668,-0.001060931,-0.000341192,0.000978159,0.023468962,0.001908798,9.821019173
1784241411.202040,-0.001146718,-0.003733980,0.161920920,-0.000172688,-0.000305819,0.000932853,0.028814483,-0.003735672,9.786018372
1784241411.204047,-0.001142819,-0.003735169,0.161918432,0.000691103,-0.000370501,0.000592809,0.074134968,-0.003493556,9.796374321
1784241411.206048,-0.001139022,-0.003735284,0.161911428,0.000998039,-0.000248723,-0.000214088,0.065962918,-0.010627398,9.806183815
1784241411.208056,-0.001126858,-0.003736818,0.161907122,0.001782206,-0.000183278,-0.000927505,-0.002290873,-0.052204285,9.790160179
1784241411.210082,-0.001129896,-0.003735315,0.161911249,0.001917736,-0.000135552,-0.000689737,0.011831924,-0.032869358,9.818095207
1784241411.212068,-0.001136545,-0.003732312,0.161914065,0.000842478,0.000124877,-0.000029736,0.055443395,0.008499830,9.781639099
1784241411.214058,-0.001139129,-0.003736134,0.161921620,0.000090859,-0.000047168,0.000683777,0.024904877,-0.029315673,9.798851013
1784241411.216080,-0.001144556,-0.003731052,0.161925510,-0.000401258,-0.000047546,0.001276555,0.003300381,0.004375523,9.825498581
1784241411.218058,-0.001142488,-0.003727201,0.161926493,-0.000445674,0.000473536,0.001260496,0.013249447,0.009319695,9.805364609
1784241411.220070,-0.001138597,-0.003727608,0.161926657,0.000080112,0.000578682,0.000995429,0.047497362,-0.018229229,9.774286270
1784241411.222062,-0.001144490,-0.003733379,0.161933154,-0.000068893,0.000028720,0.001177083,0.069224328,-0.002016479,9.786517143
1784241411.224065,-0.001148030,-0.003731844,0.161932215,-0.000682125,-0.000240042,0.001237142,0.019423101,0.000279981,9.805313110
1784241411.226066,-0.001146949,-0.003730516,0.161922008,-0.000688319,-0.000073626,0.000146348,0.030291788,0.007414310,9.790574074
1784241411.228062,-0.001144428,-0.003729363,0.161931217,-0.000278852,0.000020939,0.000038194,0.021878809,-0.020668779,9.785454750
1784241411.230070,-0.001151155,-0.003724896,0.161934033,-0.000485594,0.000395836,0.000844846,0.077647142,0.026549546,9.786706924
1784241411.232064,-0.001158424,-0.003726685,0.161934882,-0.001431711,0.000554958,0.000870978,0.077739887,-0.003418724,9.779342651
1784241411.234070,-0.001165701,-0.003727220,0.161931530,-0.002159812,0.000331858,0.000472873,0.020279063,-0.041295897,9.790699959
1784241411.236082,-0.001170860,-0.003733197,0.161921009,-0.002403962,-0.000278976,-0.000595413,0.030539792,0.028014166,9.791603088
1784241411.238076,-0.001171783,-0.003735146,0.161921695,-0.002149546,-0.000820278,-0.001102721,0.043406345,0.015349036,9.785257339
1784241411.240074,-0.001169197,-0.003732363,0.161923200,-0.001452531,-0.000541140,-0.000655393,0.033097070,-0.019186007,9.808788300
1784241411.242077,-0.001167733,-0.003733639,0.161914587,-0.000762451,-0.000335882,-0.000961032,0.052048434,-0.012107470,9.787331581
1784241411.244083,-0.001172643,-0.003734749,0.161915258,-0.000768749,-0.000450521,-0.001240123,0.047559861,-0.010035929,9.819171906
1784241411.246077,-0.001175239,-0.003737649,0.161915123,-0.001153223,-0.000425486,-0.000865778,0.069977254,0.024289830,9.803274155
1784241411.248082,-0.001167526,-0.003732502,0.161910042,-0.000577945,0.000017943,-0.000986484,0.046381544,0.002247971,9.795041084
1784241411.250077,-0.001163640,-0.003731599,0.161913410,0.000365850,0.000423877,-0.000838448,0.023400085,-0.004308603,9.813355446
1784241411.252081,-0.001162473,-0.003731447,0.161922082,0.000504664,0.000341773,0.000205112,0.052078631,-0.011868997,9.753707886
1784241411.254091,-0.001160228,-0.003734241,0.161925972,0.000494497,0.000030952,0.000999862,0.043104075,-0.010137052,9.778368950
1784241411.256085,-0.001162702,-0.003735380,0.161922112,0.000398539,-0.000207321,0.000730188,0.049499720,-0.035966933,9.807800293
1784241411.258095,-0.001166539,-0.003734656,0.161924943,-0.000084483,-0.000142014,0.000462201,0.049975812,-0.032919623,9.819475174
1784241411.260093,-0.001167734,-0.003732663,0.161933333,-0.000400248,0.000080073,0.001098388,0.033753723,-0.002150153,9.806207657
1784241411.262093,-0.001169482,-0.003728802,0.161938816,-0.000501819,0.000455359,0.001743755,0.053464331,-0.007521100,9.769877434
1784241411.264093,-0.001169586,-0.003731006,0.161935776,-0.000504747,0.000444757,0.001436201,0.064967006,-0.019498810,9.795366287
1784241411.266097,-0.001166568,-0.003731768,0.161936477,-0.000093004,0.000182575,0.000886458,0.003824207,-0.030195383,9.771476746
1784241411.268103,-0.001165607,-0.003728989,0.161942244,0.000281535,0.000329105,0.001083685,0.005542216,0.002307292,9.797243118
1784241411.270101,-0.001170199,-0.003724805,0.161943987,-0.000039485,0.000711799,0.001300164,0.039399914,0.020515583,9.822050095
1784241411.272099,-0.001167694,-0.003719881,0.161945239,-0.000235277,0.001100055,0.001151657,0.045503404,-0.034367807,9.779112816
1784241411.274109,-0.001166277,-0.003726369,0.161947235,0.000030073,0.000658417,0.001058134,0.006536981,-0.024394032,9.832938194
1784241411.276103,-0.001166944,-0.003728291,0.161950290,0.000091061,-0.000166636,0.001113352,0.033226531,-0.009248191,9.797195435
1784241411.278105,-0.001166256,-0.003728144,0.161952570,0.000086081,-0.000317277,0.001174060,0.038271241,-0.000345848,9.796359062
1784241411.280103,-0.001174010,-0.003722320,0.161951363,-0.000416639,0.000174109,0.000932013,0.049047515,-0.000019970,9.794131279
1784241411.282110,-0.001179526,-0.003718013,0.161947012,-0.001248723,0.000827856,0.000305296,0.058536839,0.004437470,9.780271530
1784241411.284112,-0.001176992,-0.003722105,0.161944777,-0.001156833,0.000631049,-0.000226108,0.046684258,-0.010662799,9.782852173
1784241411.286120,-0.001168723,-0.003717650,0.161941305,-0.000095660,0.000476625,-0.000557557,0.020161916,-0.013951804,9.789082527
1784241411.288123,-0.001165607,-0.003714874,0.161943063,0.000717970,0.000830011,-0.000525577,0.033252370,-0.007017925,9.798554420
1784241411.290130,-0.001166743,-0.003715463,0.161937371,0.000656478,0.000753403,-0.000649595,0.047822177,-0.027318208,9.791713715
1784241411.292116,-0.001163677,-0.003715286,0.161930099,0.000629483,0.000539173,-0.001354556,0.019914247,-0.036575239,9.757554054
1784241411.294124,-0.001163501,-0.003713802,0.161931336,0.000700644,0.000523245,-0.001397841,0.042117938,-0.017715454,9.774732590
1784241411.296123,-0.001160179,-0.003715870,0.161937043,0.000784761,0.000343878,-0.000545719,0.045995899,-0.029569989,9.796628952
1784241411.298126,-0.001162174,-0.003719127,0.161936373,0.000698199,-0.000108406,-0.000053346,0.011619832,-0.013569487,9.813734055
1784241411.300131,-0.001170000,-0.003723874,0.161928207,-0.000160237,-0.000621549,-0.000635638,0.021477072,-0.015023959,9.811494827
1784241411.302129,-0.001175000,-0.003729649,0.161924586,-0.000950370,-0.001226364,-0.001259951,0.012218377,-0.001045043,9.815609932
1784241411.304132,-0.001174808,-0.003728678,0.161922365,-0.000980260,-0.001279302,-0.001314590,0.047399729,-0.022242168,9.834785461
1784241411.306128,-0.001173244,-0.003721376,0.161923081,-0.000576183,-0.000334273,-0.001059408,0.054739382,-0.011341434,9.800789833
1784241411.308127,-0.001170174,-0.003721267,0.161927775,-0.000084658,0.000295168,-0.000404179,0.026756553,0.013563239,9.814371109
1784241411.310130,-0.001175596,-0.003716571,0.161935374,-0.000218198,0.000540143,0.000540525,0.032106459,0.011600656,9.828710556
1784241411.312130,-0.001176623,-0.003713244,0.161934763,-0.000674053,0.000922675,0.000868263,0.047484878,-0.018327795,9.788184166
1784241411.314136,-0.001181250,-0.003713292,0.161934644,-0.000954150,0.000880010,0.000581806,0.052188188,-0.037246738,9.793895721
1784241411.316134,-0.001186325,-0.003714663,0.161935031,-0.001305736,0.000598088,0.000443700,0.024393804,0.001303443,9.778425217
1784241411.318139,-0.001184324,-0.003716122,0.161937565,-0.001111289,0.000296749,0.000523791,0.016040338,-0.019015228,9.815497398
1784241411.320134,-0.001181753,-0.003714929,0.161938787,-0.000498339,0.000197807,0.000637713,0.036061041,0.001566947,9.783369064
1784241411.322139,-0.001181215,-0.003714478,0.161944792,-0.000123329,0.000251056,0.000955962,0.041671436,0.020302784,9.784839630
1784241411.324150,-0.001184266,-0.003715086,0.161947355,-0.000231386,0.000167410,0.001276774,0.045750909,0.025438979,9.811328888
1784241411.326144,-0.001187510,-0.003720133,0.161943465,-0.000673593,-0.000209496,0.000840227,0.043342810,-0.027200297,9.783191681
1784241411.328143,-0.001188940,-0.003718900,0.161945477,-0.000885808,-0.000359038,0.000486975,0.053856310,-0.008785253,9.820979118
1784241411.330144,-0.001190100,-0.003717931,0.161946446,-0.000820334,-0.000112360,0.000556898,0.055261925,0.030878203,9.785368919
1784241411.332149,-0.001183980,-0.003715761,0.161944225,-0.000409380,0.000155193,0.000320074,0.082921363,-0.020084538,9.782379150
1784241411.334149,-0.001181432,-0.003715900,0.161946788,0.000142065,0.000274724,0.000255841,0.025464751,-0.019933315,9.801602364
1784241411.336155,-0.001184703,-0.003714682,0.161948830,0.000089745,0.000238931,0.000496472,0.017684732,0.002774902,9.772598267
1784241411.338150,-0.001191682,-0.003712565,0.161945000,-0.000596624,0.000366497,0.000238351,0.016320156,0.001835814,9.781110764
1784241411.340150,-0.001192897,-0.003718736,0.161942169,-0.000992448,-0.000007684,-0.000277057,0.062813148,-0.010657101,9.816044807
1784241411.342152,-0.001190465,-0.003722638,0.161942571,-0.000616265,-0.000631192,-0.000364596,0.059841741,-0.034710765,9.801540375
1784241411.344157,-0.001186555,-0.003723293,0.161939248,0.000005468,-0.000710955,-0.000461833,-0.003545246,-0.041331407,9.838648796
1784241411.346162,-0.001185398,-0.003721552,0.161938086,0.000388092,-0.000605646,-0.000640181,0.014453942,-0.002757527,9.800356865
1784241411.348164,-0.001185230,-0.003722703,0.161935851,0.000413154,-0.000562635,-0.000698489,0.062883817,-0.004020360,9.827743530
1784241411.350159,-0.001184799,-0.003724647,0.161932811,0.000340345,-0.000619541,-0.000867965,0.056758303,-0.029758843,9.803811073
1784241411.352164,-0.001184260,-0.003722013,0.161935106,0.000344117,-0.000357504,-0.000682764,0.041458242,-0.031533279,9.828891754
1784241411.354166,-0.001192583,-0.003720681,0.161932021,-0.000247413,0.000055785,-0.000547553,0.015565585,0.016753672,9.826933861
1784241411.356166,-0.001203243,-0.003721683,0.161934480,-0.001550281,-0.000011830,-0.000434440,0.008624383,-0.001844101,9.808427811
1784241411.358169,-0.001199967,-0.003724778,0.161943421,-0.001708988,-0.000362577,0.000459868,0.031232236,0.011389944,9.796876907
1784241411.360169,-0.001197415,-0.003723337,0.161948115,-0.000845940,-0.000377542,0.001258673,0.065771826,0.008027743,9.766401291
1784241411.362169,-0.001196869,-0.003720629,0.161942169,-0.000444944,0.000070189,0.000831885,0.041247487,0.023745960,9.805484772
1784241411.364178,-0.001202823,-0.003720660,0.161941260,-0.000731619,0.000296927,0.000140413,0.056553986,-0.009181864,9.808875084
1784241411.366177,-0.001205678,-0.003721470,0.161948055,-0.001107791,0.000224604,0.000501581,0.032763563,-0.009760360,9.807055473
1784241411.368175,-0.001200701,-0.003719505,0.161949024,-0.000639320,0.000307131,0.000892984,0.037859824,-0.032367311,9.826641083
1784241411.370177,-0.001192260,-0.003719944,0.161945775,0.000444468,0.000327451,0.000493106,0.047669698,-0.039464027,9.798808098
1784241411.372187,-0.001189187,-0.003717149,0.161941960,0.001163434,0.000435003,-0.000122729,0.038863622,-0.023838926,9.822661400
1784241411.374187,-0.001187700,-0.003717272,0.161943719,0.001216502,0.000534326,-0.000229005,0.021026473,0.020935718,9.796032906
1784241411.376192,-0.001187596,-0.003715004,0.161948681,0.000890582,0.000462966,0.000287904,0.036309224,0.022573430,9.790228844
1784241411.378186,-0.001187948,-0.003710355,0.161954716,0.000529413,0.000734531,0.000954902,0.008893678,-0.015018784,9.833450317
1784241411.380191,-0.001193955,-0.003713056,0.161957785,-0.000043664,0.000666492,0.001312466,0.051054593,0.015816906,9.768680573
1784241411.382192,-0.001198773,-0.003716107,0.161955491,-0.000826842,0.000120323,0.001009994,0.052259851,0.007392962,9.817047119
1784241411.384190,-0.001197774,-0.003713036,0.161955684,-0.000922551,0.000114524,0.000594016,0.046534136,-0.021979477,9.799368858
1784241411.386193,-0.001199831,-0.003713481,0.161953688,-0.000737257,0.000287432,0.000310423,0.012845552,-0.026694885,9.767025948
1784241411.388200,-0.001197520,-0.003712016,0.161954135,-0.000513089,0.000304325,0.000121415,0.022643702,-0.030236902,9.806465149
1784241411.390215,-0.001197831,-0.003706284,0.161955401,-0.000237542,0.000710076,0.000202717,0.025399322,-0.026528727,9.784075737
1784241411.392204,-0.001198309,-0.003700436,0.161957458,-0.000197053,0.001258714,0.000371410,0.039153222,-0.001694875,9.795456886
1784241411.394202,-0.001194725,-0.003703764,0.161959186,0.000096917,0.001043345,0.000527399,0.048355531,0.015797354,9.776297569
1784241411.396201,-0.001195420,-0.003699646,0.161957264,0.000257484,0.000888689,0.000370185,0.050559569,-0.022132972,9.813717842
1784241411.398208,-0.001193842,-0.003692074,0.161957726,0.000238031,0.001516015,0.000169304,0.041247591,-0.012627307,9.816907883
1784241411.400206,-0.001196615,-0.003691363,0.161960810,0.000093166,0.001666335,0.000364032,0.044487234,-0.007024928,9.779286385
1784241411.402214,-0.001199768,-0.003695813,0.161957726,-0.000327729,0.000988715,0.000266329,0.038093038,-0.013505244,9.820036888
1784241411.404213,-0.001201223,-0.003700908,0.161952525,-0.000546893,0.000101583,-0.000366506,0.027655609,-0.024835587,9.793951988
1784241411.406231,-0.001202357,-0.003701937,0.161948711,-0.000541757,-0.000366137,-0.000880418,0.034963854,-0.014182861,9.794924736
1784241411.408225,-0.001204018,-0.003703039,0.161940873,-0.000552738,-0.000435612,-0.001433828,0.019265207,-0.012313802,9.812405586
1784241411.410229,-0.001201721,-0.003704741,0.161938071,-0.000362233,-0.000506806,-0.001764574,0.017741291,-0.028289612,9.793472290
1784241411.412220,-0.001199765,-0.003706508,0.161934257,0.000082075,-0.000671619,-0.001734885,0.005657925,-0.024642901,9.806485176
1784241411.414222,-0.001198507,-0.003703971,0.161934704,0.000336029,-0.000504273,-0.001495145,0.053498697,-0.003197299,9.791874886
1784241411.416219,-0.001194287,-0.003706357,0.161935136,0.000594020,-0.000258927,-0.001030864,0.034492992,-0.051941961,9.813063622
1784241411.418223,-0.001192272,-0.003707804,0.161935285,0.000833320,-0.000350627,-0.000712117,0.042410668,0.008911021,9.810322762
1784241411.420222,-0.001197679,-0.003707041,0.161933571,0.000376390,-0.000301743,-0.000624687,0.053471822,-0.005030472,9.797689438
1784241411.422234,-0.001196569,-0.003708732,0.161927611,-0.000118194,-0.000261841,-0.000976419,0.046278477,-0.042639744,9.806857109
1784241411.424230,-0.001199088,-0.003710398,0.161928281,-0.000281766,-0.000397884,-0.001070793,0.011668677,-0.011968050,9.777430534
1784241411.426229,-0.001204077,-0.003709069,0.161937192,-0.000763775,-0.000391279,-0.000128630,0.039240401,0.005072243,9.788774490
1784241411.428229,-0.001213592,-0.003713610,0.161944419,-0.001588205,-0.000582123,0.001007179,0.037655495,-0.014627162,9.789543152
1784241411.430230,-0.001217185,-0.003717111,0.161943227,-0.002045239,-0.000970481,0.001147474,0.031481206,-0.005187183,9.796322823
1784241411.432236,-0.001213995,-0.003713196,0.161940753,-0.001539079,-0.000718371,0.000586075,0.043510310,-0.013720129,9.777449608
1784241411.434242,-0.001216186,-0.003709034,0.161941737,-0.001074644,-0.000014653,0.000324566,0.060644038,-0.005583140,9.799487114
1784241411.436239,-0.001219224,-0.003713979,0.161944002,-0.001139903,0.000032378,0.000455756,0.042310826,-0.001198126,9.782909393
1784241411.438276,-0.001216327,-0.003711427,0.161937818,-0.000843934,-0.000042072,0.000063868,0.056426939,0.015652528,9.782135010
1784241411.440339,-0.001216327,-0.003711427,0.161937818,-0.000497717,0.000245155,-0.000363923,0.027083265,0.003273462,9.811615944
1784241411.442261,-0.001203688,-0.003712052,0.161916271,-0.000375601,0.000164606,-0.000172271,0.050507322,-0.027003311,9.805616379
1784241411.444294,-0.001203688,-0.003712052,0.161916271,-0.000016978,-0.000130524,-0.000124138,0.055912629,-0.026096884,9.794419289
1784241411.446277,-0.001204528,-0.003712902,0.161916256,0.000410997,-0.000039563,-0.000375933,0.067864478,-0.001297266,9.813867569
1784241411.448262,-0.001204528,-0.003712902,0.161916256,0.000474276,0.000443693,-0.000611590,0.025769331,0.007191991,9.830022812
1784241411.450290,-0.001204528,-0.003712902,0.161916256,0.000210033,0.000616439,-0.000351513,0.001319750,-0.050058167,9.796902657
1784241411.452273,-0.001206111,-0.003711452,0.161916271,-0.000112857,0.000471376,0.000215323,0.000251111,-0.027182179,9.795253754
1784241411.454273,-0.001206111,-0.003711452,0.161916271,-0.000383284,0.000438519,0.000556399,0.029506817,0.016013378,9.779869080
1784241411.456258,-0.001204898,-0.003711572,0.161916271,-0.000216925,0.000625216,0.001041293,0.039023288,-0.013662640,9.777445793
1784241411.458274,-0.001204898,-0.003711572,0.161916271,0.000338299,0.000791878,0.001503706,0.026062489,-0.007415234,9.804372787
1784241411.460265,-0.001204898,-0.003711572,0.161916271,0.001285026,0.000802103,0.001407566,0.021408593,0.013514951,9.767740250
1784241411.462268,-0.001204009,-0.003710701,0.161916271,0.002102217,0.000880618,0.001265922,0.033147234,-0.016358336,9.789079666
1784241411.464268,-0.001204009,-0.003710701,0.161916271,0.001954696,0.000854279,0.001413814,0.046484880,-0.026420932,9.793959618
1784241411.466269,-0.001204607,-0.003711119,0.161916271,0.001507100,0.001162412,0.001576991,0.052553572,-0.009641303,9.754619598
1784241411.468265,-0.001204607,-0.003711119,0.161916271,0.001560352,0.001276901,0.001352870,0.021818575,0.011177180,9.780727386
1784241411.470264,-0.001204607,-0.003711119,0.161916271,0.001609733,0.000570994,0.000733923,0.001425297,-0.003124611,9.812447548
1784241411.472263,-0.001204555,-0.003709781,0.161916271,0.001266670,0.000079941,0.000102036,0.021734163,0.005242406,9.796380997
1784241411.474266,-0.001204555,-0.003709781,0.161916271,0.001236997,0.000008270,-0.000428551,0.035058167,-0.005738372,9.804392815
1784241411.476266,-0.001203883,-0.003709441,0.161916271,0.001289580,0.000187588,-0.000542892,0.046249893,-0.008112370,9.803043365
1784241411.478267,-0.001203883,-0.003709441,0.161916271,0.001199702,0.000367954,0.000294526,0.036003210,-0.004157973,9.769433975
1784241411.480325,-0.001203883,-0.003709441,0.161916271,0.001549361,0.000353092,0.000543386,0.033691689,-0.008313504,9.790924072
1784241411.482313,-0.001203491,-0.003709367,0.161916271,0.001697261,0.000207615,-0.000612076,0.042569932,-0.015668999,9.801198006
1784241411.484316,-0.001203491,-0.003709367,0.161916271,0.000952610,-0.000053490,-0.001076949,0.033505838,0.013219818,9.787476540
1784241411.486286,-0.001202086,-0.003709302,0.161916286,-0.000264021,-0.000477285,-0.000298765,0.045160882,0.015008072,9.830090523
1784241411.488358,-0.001202086,-0.003709302,0.161916286,-0.001274343,-0.000620693,-0.000056074,0.022352949,-0.018447444,9.787262917
1784241411.490325,-0.001202086,-0.003709302,0.161916286,-0.000995350,-0.000624572,-0.000454761,0.037425268,-0.033060342,9.798840523
1784241411.492295,-0.001202867,-0.003709451,0.161916286,0.000001127,-0.000746712,-0.000293309,0.019601181,-0.022530446,9.799338341
1784241411.494296,-0.001202867,-0.003709451,0.161916286,0.000148056,-0.000813109,0.000094289,0.048498973,-0.010123372,9.766716957
1784241411.496290,-0.001202599,-0.003709954,0.161916286,0.000415598,-0.001113869,0.000158878,0.054206029,-0.019703867,9.780559540
1784241411.498303,-0.001202599,-0.003709954,0.161916286,0.001025850,-0.001443673,-0.000082855,0.011681508,-0.011056232,9.775194168
1784241411.500308,-0.001202599,-0.003709954,0.161916286,0.000788400,-0.001226265,-0.000311645,0.039934397,-0.010729188,9.804366112
1784241411.502358,-0.001203316,-0.003709225,0.161916271,0.000349144,-0.000474915,0.000156378,0.042887565,0.011964682,9.821103096
1784241411.504315,-0.001203316,-0.003709225,0.161916271,0.000572568,0.000244244,0.000878237,0.041209675,0.019800158,9.793354034
1784241411.506297,-0.001201935,-0.003709296,0.161916286,0.000787232,0.000446587,0.000914995,0.020472869,-0.023555513,9.815921783
1784241411.508298,-0.001201935,-0.003709296,0.161916286,0.000249472,-0.000029271,0.001063561,0.026737547,-0.026202941,9.798873901
1784241411.510303,-0.001201935,-0.003709296,0.161916286,-0.000449500,-0.000337281,0.001279827,0.029156867,0.027335433,9.826568604
1784241411.512296,-0.001200346,-0.003709817,0.161916286,-0.000877144,0.000126075,0.000683160,0.043889355,0.020477170,9.819364548
1784241411.514304,-0.001200346,-0.003709817,0.161916286,-0.001004199,0.000681058,-0.000309607,0.075309128,-0.019862784,9.764887810
1784241411.516313,-0.001201068,-0.003711723,0.161916286,-0.000935258,0.001010511,-0.000852470,0.012349440,-0.028684480,9.795705795
1784241411.518322,-0.001201068,-0.003711723,0.161916286,-0.001119487,0.001482050,-0.000434690,0.014179524,-0.025997447,9.792586327
1784241411.520315,-0.001201068,-0.003711723,0.161916286,-0.001148341,0.001641445,0.000356198,0.037323602,-0.005188791,9.786016464
1784241411.522307,-0.001200279,-0.003711918,0.161916286,-0.000631939,0.001231562,0.000641446,0.045402024,-0.004872933,9.790061951
1784241411.524318,-0.001200279,-0.003711918,0.161916286,0.000433894,0.000984730,0.000002195,0.037640188,0.020005137,9.770936012
1784241411.526314,-0.001198829,-0.003711999,0.161916286,0.001356602,0.000965000,-0.000408213,0.008304331,-0.029496860,9.791213989
1784241411.528317,-0.001198829,-0.003711999,0.161916286,0.001125704,0.001155145,-0.000183983,0.027847862,0.026835140,9.773211479
1784241411.530313,-0.001198829,-0.003711999,0.161916286,0.000417067,0.001479483,-0.000020458,0.031243900,-0.026107814,9.777359009
1784241411.532311,-0.001198502,-0.003712383,0.161916286,0.000008052,0.001641389,0.000296995,0.027785696,-0.052888002,9.769113541
1784241411.534323,-0.001198502,-0.003712383,0.161916286,0.000053162,0.001719528,0.000546630,0.037366293,-0.002014912,9.780657768
1784241411.536333,-0.001197813,-0.003713176,0.161916271,0.000375143,0.001720442,0.000548117,0.046744101,-0.004921976,9.794546127
1784241411.538332,-0.001197813,-0.003713176,0.161916271,0.000446103,0.001563093,0.000187023,0.040977132,-0.037862204,9.774602890
1784241411.540324,-0.001197813,-0.003713176,0.161916271,0.000419482,0.000821442,-0.000422632,0.032396678,-0.004245524,9.788261414
1784241411.542324,-0.001197651,-0.003712966,0.161916286,0.000361156,0.000064479,-0.000687511,0.029352549,0.003448211,9.782926559
1784241411.544333,-0.001197651,-0.003712966,0.161916286,0.000106780,0.000088310,-0.000390204,0.014767825,-0.013959120,9.799837112
1784241411.546333,-0.001198420,-0.003712860,0.161916286,0.000138314,0.000085555,-0.000209491,0.049073759,0.002213476,9.795042992
1784241411.548328,-0.001198420,-0.003712860,0.161916286,0.000336989,-0.000403882,-0.000152487,0.058182035,-0.024705436,9.783670425
1784241411.550330,-0.001198420,-0.003712860,0.161916286,-0.000277894,-0.000665456,0.000411864,0.036314458,-0.012138367,9.820043564
1784241411.552329,-0.001197977,-0.003713619,0.161916271,-0.001138665,-0.000598905,0.000715454,0.011737383,-0.040910400,9.814904213
1784241411.554384,-0.001197977,-0.003713619,0.161916271,-0.001854628,-0.000493143,0.000557706,0.047638748,-0.005765811,9.785575867
1784241411.556357,-0.001196338,-0.003715086,0.161916271,-0.002119729,-0.000147768,0.000264172,0.044583805,0.003868855,9.822396278
1784241411.558347,-0.001196338,-0.003715086,0.161916271,-0.001841099,0.000208070,-0.000164955,0.030073697,-0.046486679,9.809954643
1784241411.560342,-0.001196338,-0.003715086,0.161916271,-0.001478571,0.000247482,-0.000135557,-0.001486160,-0.023057586,9.785417557
1784241411.562344,-0.001196908,-0.003713139,0.161916286,-0.000942371,0.000275584,-0.000492800,0.037928358,0.007789971,9.786997795
1784241411.564352,-0.001194696,-0.003705503,0.161902145,-0.000434934,0.000823636,-0.001869134,0.048220098,0.007838611,9.824666977
1784241411.566347,-0.001188621,-0.003712378,0.161902025,0.000180884,0.000694934,-0.002332776,0.054478034,0.003516988,9.791021347
1784241411.568347,-0.001182151,-0.003719726,0.161905557,0.000923024,-0.000417360,-0.001466271,0.049162813,-0.029810185,9.761660576
1784241411.570349,-0.001181691,-0.003721921,0.161899343,0.001142159,-0.000951654,-0.001249196,0.020459112,-0.025690390,9.801112175
1784241411.572351,-0.001185673,-0.003716714,0.161892325,0.000643176,-0.000537388,-0.001809701,0.025573442,-0.012591059,9.776992798
1784241411.574354,-0.001185144,-0.003708341,0.161893606,0.000286254,0.000481199,-0.001708569,0.040024053,-0.001916231,9.825046539
1784241411.576351,-0.001178357,-0.003705720,0.161901250,0.000691813,0.001119968,-0.000641563,0.028448820,0.004625530,9.808039665
1784241411.578358,-0.001176361,-0.003710873,0.161899775,0.001086226,0.000667385,-0.000049736,0.022284698,-0.025065109,9.772873878
1784241411.580354,-0.001176716,-0.003713336,0.161895663,0.000901306,-0.000030337,-0.000415676,0.050412845,0.001735543,9.796833992
1784241411.582357,-0.001177233,-0.003714028,0.161898732,0.000606456,-0.000232790,-0.000373929,0.047672931,-0.001848625,9.801739693
1784241411.584362,-0.001179152,-0.003709086,0.161902115,0.000287427,0.000121728,0.000164565,0.041615214,-0.020162545,9.804755211
1784241411.586362,-0.001172730,-0.003704455,0.161903381,0.000547557,0.000753438,0.000433352,0.002543490,0.014817312,9.807632446
1784241411.588372,-0.001162754,-0.003708126,0.161906511,0.001544434,0.000629062,0.000609135,0.024029575,0.009270743,9.792820930
1784241411.590374,-0.001159687,-0.003712761,0.161905274,0.002010911,-0.000105718,0.000570724,0.032324698,-0.009271669,9.802125931
1784241411.592370,-0.001156071,-0.003708947,0.161911055,0.001885501,-0.000151110,0.000725249,0.059729092,-0.005304922,9.825042725
1784241411.594373,-0.001156649,-0.003700596,0.161918968,0.001549107,0.000696662,0.001456100,0.063888066,0.003701125,9.811206818
1784241411.596375,-0.001154578,-0.003700461,0.161912739,0.001177692,0.001158605,0.001175117,0.000627147,0.003749389,9.792315483
1784241411.598372,-0.001156246,-0.003700529,0.161909685,0.000830345,0.000924517,0.000226998,0.038010228,-0.022264143,9.791737556
1784241411.600377,-0.001159761,-0.003698985,0.161906660,0.000251553,0.000774169,-0.000247479,0.044106729,0.000408560,9.805786133
1784241411.602373,-0.001160036,-0.003697400,0.161908150,-0.000151190,0.000806551,-0.000285430,0.038224161,-0.041954748,9.788023949
1784241411.604380,-0.001163857,-0.003696674,0.161910161,-0.000464073,0.000774250,0.000029566,0.044351157,-0.017420245,9.792222023
1784241411.606380,-0.001158072,-0.003698593,0.161911413,-0.000206549,0.000493606,0.000240324,0.042861778,0.008924350,9.807633400
1784241411.608385,-0.001157062,-0.003695786,0.161911041,0.000308432,0.000430620,0.000232701,0.065620556,-0.001271699,9.814313889
1784241411.610378,-0.001156582,-0.003691396,0.161913335,0.000326314,0.000802127,0.000301112,0.021835029,-0.022635503,9.810099602
1784241411.612379,-0.001151890,-0.003688307,0.161921516,0.000644910,0.001029931,0.000928854,0.043036871,-0.014314963,9.798965454
1784241411.614388,-0.001153339,-0.003691831,0.161920026,0.000745208,0.000658879,0.001130231,0.050504673,-0.026618937,9.814585686
1784241411.616379,-0.001155108,-0.003692304,0.161916181,0.000403038,0.000272034,0.000463291,0.032212596,-0.019882832,9.782330513
1784241411.618381,-0.001154461,-0.003696406,0.161919504,0.000297234,-0.000049316,0.000302373,0.026015013,-0.011437343,9.803001404
1784241411.620386,-0.001150800,-0.003698105,0.161913261,0.000508258,-0.000429520,0.000022323,0.017504290,-0.009996942,9.804798126
1784241411.622385,-0.001152140,-0.003694940,0.161912635,0.000504407,-0.000289153,-0.000450392,0.037686512,-0.011545491,9.797184944
1784241411.624404,-0.001159996,-0.003698145,0.161914051,-0.000278238,-0.000289693,-0.000273070,0.014067221,0.004221644,9.827749252
1784241411.626396,-0.001163801,-0.003701102,0.161915228,-0.001052047,-0.000702647,-0.000020152,0.017295688,-0.029475117,9.771943092
1784241411.628395,-0.001165161,-0.003696408,0.161913797,-0.001175528,-0.000467032,-0.000030786,0.015246966,-0.011293005,9.802097321
1784241411.630394,-0.001165735,-0.003689367,0.161918789,-0.000986713,0.000456022,0.000218823,0.006541300,0.012014209,9.816583633
1784241411.632397,-0.001164909,-0.003688097,0.161913872,-0.000779985,0.000787166,0.000164195,0.028549057,0.011901020,9.792842865
1784241411.634403,-0.001167716,-0.003692680,0.161914781,-0.000781946,0.000239742,-0.000151015,0.045984350,0.009144465,9.834088326
1784241411.636556,-0.001162367,-0.003687500,0.161917672,-0.000472802,0.000248372,0.000145624,0.065020062,-0.014622116,9.802572250
1784241411.638457,-0.001164041,-0.003685733,0.161918864,-0.000170640,0.000685699,0.000382298,0.036876049,-0.004363441,9.796782494
1784241411.640454,-0.001163641,-0.003688502,0.161921382,-0.000209824,0.000431219,0.000533056,0.048867691,-0.016028928,9.777441025
1784241411.642447,-0.001162742,-0.003689412,0.161919415,-0.000041120,0.000047044,0.000425466,0.067111313,0.007552995,9.767745018
1784241411.644432,-0.001161217,-0.003690568,0.161915034,0.000156395,-0.000122756,-0.000121528,0.006186553,-0.017938772,9.807873726
1784241411.646425,-0.001166468,-0.003689516,0.161922619,-0.000116326,-0.000173948,0.000129600,0.001614153,0.048114046,9.789463043
1784241411.648425,-0.001168675,-0.003687480,0.161924362,-0.000566770,0.000004919,0.000728540,0.046110075,0.017836969,9.808590889
1784241411.650426,-0.001162613,-0.003684998,0.161925077,-0.000150582,0.000310064,0.000697671,0.075527564,0.000098325,9.792812347
1784241411.652437,-0.001161654,-0.003686781,0.161921799,0.000333249,0.000442518,0.000331986,0.027717698,-0.019482307,9.797123909
1784241411.654418,-0.001168367,-0.003688620,0.161912844,-0.000183843,0.000246383,-0.000587289,0.041012470,-0.033125415,9.801532745
1784241411.656425,-0.001168551,-0.003686543,0.161908776,-0.000558850,0.000247808,-0.001310320,0.039056852,0.028244782,9.806856155
1784241411.658427,-0.001172883,-0.003683955,0.161910519,-0.000667747,0.000548634,-0.001113037,0.031070139,-0.001642260,9.802621841
1784241411.660429,-0.001182571,-0.003687902,0.161905274,-0.001438987,0.000307706,-0.001045188,0.029058127,0.018855972,9.822029114
