time_sec,roll_rad,pitch_rad,yaw_rad,gyro_x,gyro_y,gyro_z,acc_x,acc_y,acc_z
1784239787.319613,-0.007394848,-0.000049319,1.893300533,-0.000548510,-0.000205766,0.000849965,0.037025809,-0.066203095,9.797730446
1784239787.321537,-0.007394038,-0.000051828,1.893300533,-0.000001253,-0.000212020,0.000700275,-0.001211873,-0.073377445,9.804373741
1784239787.323535,-0.007394038,-0.000051828,1.893300533,0.000578907,-0.000251763,0.000140025,-0.006584566,-0.074026324,9.779256821
1784239787.325539,-0.007394730,-0.000051165,1.893300533,0.000852646,-0.000692539,-0.000360901,-0.004963880,-0.087986991,9.786343575
1784239787.327542,-0.007394730,-0.000051165,1.893300533,0.000507841,-0.001169984,-0.000691453,-0.014490832,-0.095983617,9.793904305
1784239787.329549,-0.007394730,-0.000051165,1.893300533,0.000132673,-0.001177355,-0.000461209,-0.011770822,-0.092961870,9.805133820
1784239787.331563,-0.007395545,-0.000051078,1.893300533,0.000328105,-0.001173653,0.000339129,-0.024427298,-0.064859390,9.782436371
1784239787.333527,-0.007395545,-0.000051078,1.893300533,0.000687341,-0.001243521,0.000633279,-0.016089415,-0.043448023,9.780789375
1784239787.335590,-0.007393481,-0.000050488,1.893300533,0.000537833,-0.000945675,0.000469766,-0.031092053,-0.057364494,9.811619759
1784239787.337555,-0.007393481,-0.000050488,1.893300533,-0.000040085,-0.000493414,0.000964975,-0.015852684,-0.057690330,9.830013275
1784239787.339530,-0.007393481,-0.000050488,1.893300533,-0.000116632,-0.000095221,0.001254453,-0.011714480,-0.051279832,9.803159714
1784239787.341533,-0.007392074,-0.000049864,1.893300533,0.000151953,-0.000021419,0.000941142,0.027118003,-0.032826368,9.784484863
1784239787.343554,-0.007392074,-0.000049864,1.893300533,-0.000074860,-0.000557627,0.000799199,0.020894285,-0.028234459,9.780025482
1784239787.345560,-0.007390261,-0.000050884,1.893300533,-0.000116956,-0.001308343,0.000495415,0.020474643,-0.025973013,9.777797699
1784239787.347557,-0.007390261,-0.000050884,1.893300533,0.000018992,-0.001567049,-0.000048951,0.027451722,-0.080245420,9.773421288
1784239787.349547,-0.007390261,-0.000050884,1.893300533,-0.000238164,-0.001230360,-0.000334845,-0.029225500,-0.054794740,9.761873245
1784239787.351542,-0.007389912,-0.000049839,1.893300533,-0.000624373,-0.000947939,-0.000380758,-0.017141024,-0.053974926,9.813896179
1784239787.353544,-0.007389912,-0.000049839,1.893300533,-0.000726229,-0.000887463,-0.000523041,-0.033803660,-0.059509389,9.803085327
1784239787.355539,-0.007389353,-0.000047769,1.893300533,-0.000524776,-0.000484955,-0.000858931,-0.008144954,-0.055131726,9.771306038
1784239787.357543,-0.007389353,-0.000047769,1.893300533,-0.000393521,0.000042535,-0.001120394,-0.015088208,-0.070098482,9.809311867
1784239787.359542,-0.007389353,-0.000047769,1.893300533,0.000113392,0.000113287,-0.000806510,-0.013842684,-0.078204460,9.812848091
1784239787.361538,-0.007389837,-0.000047021,1.893300533,0.000877706,0.000031144,-0.000018360,0.014957114,-0.073460415,9.786902428
1784239787.363524,-0.007389837,-0.000047021,1.893300533,0.001597974,0.000023981,0.000484145,0.020597544,-0.052055895,9.791080475
1784239787.365519,-0.007389126,-0.000047903,1.893300533,0.002065693,-0.000250168,0.000776419,0.003312773,-0.072732612,9.768514633
1784239787.367512,-0.007389126,-0.000047903,1.893300533,0.001899722,-0.000410634,0.001349787,0.000037561,-0.082668334,9.785484314
1784239787.369598,-0.007389126,-0.000047903,1.893300533,0.001586029,-0.000002371,0.001589581,0.007950160,-0.059040036,9.787884712
1784239787.371530,-0.007389084,-0.000048350,1.893300533,0.001232884,0.000318815,0.001042130,-0.027512852,-0.058303226,9.811168671
1784239787.373538,-0.007389084,-0.000048350,1.893300533,0.000105453,0.000328632,0.000568480,-0.039954696,-0.048264850,9.808081627
1784239787.375526,-0.007388300,-0.000046843,1.893300533,-0.000880078,0.000246230,0.000439292,-0.017995343,-0.053623207,9.765926361
1784239787.377519,-0.007388300,-0.000046843,1.893300533,-0.000915064,-0.000164033,0.000488729,0.011318828,-0.039856106,9.793392181
1784239787.379578,-0.007388300,-0.000046843,1.893300533,-0.000991582,-0.000174146,0.000490167,0.002707344,-0.046911072,9.792889595
1784239787.381531,-0.007387073,-0.000047405,1.893300533,-0.000823893,0.000270152,-0.000173831,-0.007053175,-0.074582994,9.795392036
1784239787.383544,-0.007387073,-0.000047405,1.893300533,-0.000000949,0.000207726,-0.000568326,0.011196367,-0.086923212,9.796676636
1784239787.385530,-0.007387412,-0.000048112,1.893300533,0.000792702,-0.000096924,-0.000026463,0.003674181,-0.115475297,9.792899132
1784239787.387532,-0.007387412,-0.000048112,1.893300533,0.000791571,-0.000332051,0.000601958,-0.021461822,-0.077226706,9.815089226
1784239787.389539,-0.007387412,-0.000048112,1.893300533,0.000033756,-0.000349190,0.000734480,-0.010086769,-0.064779818,9.808455467
1784239787.391533,-0.007387542,-0.000047521,1.893300533,-0.000679524,-0.000233611,0.000777323,0.002474890,-0.027366733,9.817225456
1784239787.393540,-0.007387542,-0.000047521,1.893300533,-0.001400527,-0.000293670,0.001204549,0.016552500,-0.016088383,9.780996323
1784239787.395569,-0.007385141,-0.000048350,1.893300533,-0.001816451,-0.000213935,0.001733262,0.003874335,-0.023720797,9.806040764
1784239787.397548,-0.007385141,-0.000048350,1.893300533,-0.001484999,-0.000105925,0.001668416,-0.009428153,-0.046918001,9.815741539
1784239787.399582,-0.007385141,-0.000048350,1.893300533,-0.001021859,0.000157444,0.000467241,0.013789273,-0.058257010,9.793274879
1784239787.401557,-0.007384052,-0.000048762,1.893300533,-0.000683969,0.000438079,-0.000208737,0.023221172,-0.056684472,9.807192802
1784239787.403539,-0.007384052,-0.000048762,1.893300533,-0.000104368,-0.000051798,0.000396642,-0.004744635,-0.033266392,9.777725220
1784239787.405566,-0.007382074,-0.000047940,1.893300533,0.000478741,-0.000712626,0.000222454,-0.000670010,-0.065758325,9.803076744
1784239787.407551,-0.007382074,-0.000047940,1.893300533,0.000617059,-0.001026294,-0.000337203,-0.007656605,-0.086335517,9.811008453
1784239787.409614,-0.007382074,-0.000047940,1.893300533,0.000720159,-0.000968828,-0.000418378,0.003284411,-0.073361814,9.794065475
1784239787.411554,-0.007382406,-0.000047651,1.893300533,0.001051908,-0.000623192,-0.000565672,-0.022017423,-0.049390741,9.808094025
1784239787.413550,-0.007382406,-0.000047651,1.893300533,0.001020616,-0.000478001,-0.000421277,-0.018090745,-0.060860541,9.775743484
1784239787.415551,-0.007381570,-0.000046762,1.893300533,0.000182884,-0.000419433,0.000007289,-0.000872609,-0.046788763,9.782127380
1784239787.417586,-0.007381570,-0.000046762,1.893300533,-0.000656165,0.000184228,0.000231997,-0.005807184,-0.045905914,9.792887688
1784239787.419561,-0.007381570,-0.000046762,1.893300533,-0.000721922,0.000748529,-0.000324817,0.043535452,-0.047869492,9.791130066
1784239787.421635,-0.007380821,-0.000047670,1.893300533,-0.000541552,0.000544850,-0.000679357,0.051768430,-0.070955113,9.809370041
1784239787.423583,-0.007380821,-0.000047670,1.893300533,-0.000344319,0.000011691,0.000053174,-0.015014846,-0.064656168,9.799931526
1784239787.425575,-0.007380157,-0.000046476,1.893300533,-0.000179612,-0.000089391,0.000660657,-0.008393229,-0.036928095,9.795184135
1784239787.427566,-0.007380157,-0.000046476,1.893300533,-0.000004151,-0.000072966,0.000995481,-0.026113691,-0.053443778,9.818375587
1784239787.429563,-0.007380157,-0.000046476,1.893300533,0.000518364,-0.000440583,0.000804666,-0.004540022,-0.052220054,9.796435356
1784239787.431557,-0.007378955,-0.000045574,1.893300533,0.001028929,-0.000578703,-0.000163796,-0.002967317,-0.068585873,9.826818466
1784239787.433561,-0.007378955,-0.000045574,1.893300533,0.000859767,-0.000547714,-0.000833332,-0.009401458,-0.045491453,9.804095268
1784239787.435563,-0.007377191,-0.000044975,1.893300533,0.000123331,-0.000287194,-0.000887488,0.007192342,-0.084574439,9.788618088
1784239787.437565,-0.007377191,-0.000044975,1.893300533,-0.000285908,0.000043001,-0.000564919,0.017378248,-0.095492698,9.793488503
1784239787.439566,-0.007377191,-0.000044975,1.893300533,0.000241785,-0.000142773,0.000228612,0.003504273,-0.056631450,9.772203445
1784239787.441573,-0.007376872,-0.000045722,1.893300533,0.001130565,-0.000568324,0.000282373,-0.001971009,-0.062548123,9.795025826
1784239787.443581,-0.007376872,-0.000045722,1.893300533,0.001219852,-0.000849002,-0.000545673,-0.024224577,-0.047859129,9.785684586
1784239787.445571,-0.007375470,-0.000044522,1.893300533,0.000581862,-0.000848123,-0.001112766,-0.038161092,-0.048297387,9.809430122
1784239787.447571,-0.007375470,-0.000044522,1.893300533,0.000278505,-0.000887545,-0.001146765,-0.014949646,-0.057657316,9.823738098
1784239787.449571,-0.007375470,-0.000044522,1.893300533,0.000745279,-0.000659225,-0.000266418,0.003940024,-0.093518846,9.792142868
1784239787.451575,-0.007377262,-0.000044969,1.893300533,0.000941441,-0.000366901,0.000628105,0.038031448,-0.058065452,9.785678864
1784239787.453578,-0.007377262,-0.000044969,1.893300533,0.000432734,-0.000411374,0.000374695,0.034307253,-0.032028787,9.785392761
1784239787.455574,-0.007374913,-0.000047106,1.893300533,0.000025924,-0.000496052,-0.000026882,0.013068405,-0.044288762,9.783501625
1784239787.457578,-0.007374913,-0.000047106,1.893300533,0.000213809,-0.000782935,0.000329953,0.008872767,-0.056420997,9.795972824
1784239787.459579,-0.007374913,-0.000047106,1.893300533,0.000931644,-0.000746978,0.000718554,0.016745880,-0.073531106,9.793627739
1784239787.461580,-0.007374724,-0.000047833,1.893300533,0.001171249,-0.000317540,0.000317474,-0.009039368,-0.089444473,9.809641838
1784239787.463578,-0.007374724,-0.000047833,1.893300533,0.000748513,-0.000192487,-0.000590466,-0.033137109,-0.042800669,9.783466339
1784239787.465579,-0.007372997,-0.000046009,1.893300533,0.000202189,-0.000457361,-0.001488926,-0.014322462,-0.045717187,9.781672478
1784239787.467586,-0.007372997,-0.000046009,1.893300533,-0.000289143,-0.000936856,-0.002217397,-0.015580520,-0.036899697,9.804144859
1784239787.469607,-0.007372997,-0.000046009,1.893300533,-0.000698694,-0.000911387,-0.002132312,0.007236374,-0.042584341,9.806370735
1784239787.471588,-0.007371422,-0.000046202,1.893300533,-0.000628314,-0.000143499,-0.001632325,0.023824254,-0.045745194,9.779914856
1784239787.473586,-0.007371422,-0.000046202,1.893300533,-0.000104555,0.000627017,-0.001302266,0.013055519,-0.044390514,9.797846794
1784239787.475586,-0.007370281,-0.000047340,1.893300533,-0.000228357,0.001300998,-0.000935635,-0.009003061,-0.087131537,9.799345970
1784239787.477588,-0.007370281,-0.000047340,1.893300533,-0.000807032,0.001726364,-0.000850207,-0.040362850,-0.083907783,9.780506134
1784239787.479592,-0.007370281,-0.000047340,1.893300533,-0.000963791,0.001439521,-0.000808930,-0.019668106,-0.078879371,9.792214394
1784239787.481591,-0.007370286,-0.000044240,1.893300533,-0.000901507,0.000920125,-0.000365117,0.002336662,-0.076584607,9.807941437
1784239787.483597,-0.007370286,-0.000044240,1.893300533,-0.001018070,0.000685498,0.000283672,-0.006129987,-0.071554162,9.808862686
1784239787.485599,-0.007370834,-0.000043644,1.893300533,-0.001080206,0.000928865,0.000668393,-0.022625471,-0.099174835,9.816291809
1784239787.487593,-0.007370834,-0.000043644,1.893300533,-0.000527402,0.001225922,0.000914173,-0.025379127,-0.067303903,9.812908173
1784239787.489597,-0.007370834,-0.000043644,1.893300533,-0.000185988,0.000724899,0.000782245,0.008554676,-0.083247796,9.788627625
1784239787.491597,-0.007372296,-0.000043323,1.893300533,-0.000337678,-0.000010103,0.000087730,0.005216688,-0.062573336,9.785617828
1784239787.493605,-0.007372296,-0.000043323,1.893300533,-0.000262732,-0.000133120,-0.000487832,-0.017291505,-0.068941683,9.776588440
1784239787.495600,-0.007372085,-0.000042829,1.893300533,-0.000296086,0.000081984,-0.000544528,0.001825414,-0.046372116,9.781683922
1784239787.497606,-0.007372085,-0.000042829,1.893300533,-0.000521165,0.000200978,0.000045453,-0.015482836,-0.068449967,9.767178535
1784239787.499647,-0.007372085,-0.000042829,1.893300533,-0.000851811,-0.000088189,0.000418734,-0.021561716,-0.051772650,9.764142036
1784239787.501616,-0.007371447,-0.000041387,1.893300533,-0.000878760,-0.000693923,0.000165301,-0.016201623,-0.052439049,9.785215378
1784239787.503648,-0.007371447,-0.000041387,1.893300533,-0.000605093,-0.000813042,-0.000233683,-0.006127398,-0.036375329,9.776360512
1784239787.505613,-0.007369335,-0.000040644,1.893300533,-0.000544863,-0.000359229,-0.000377133,-0.037424579,-0.061331552,9.813830376
1784239787.507617,-0.007369335,-0.000040644,1.893300533,-0.000299644,0.000255526,-0.000208954,-0.009626607,-0.026699949,9.808250427
1784239787.509654,-0.007369335,-0.000040644,1.893300533,0.000401085,0.000552085,0.000184325,0.019420663,-0.074919030,9.794968605
1784239787.511628,-0.007368919,-0.000041090,1.893300533,0.000976206,0.000152799,0.000900744,0.052241277,-0.108360045,9.775954247
1784239787.513656,-0.007368919,-0.000041090,1.893300533,0.001159992,-0.000118427,0.001566797,0.025486309,-0.092511341,9.800688744
1784239787.515626,-0.007369522,-0.000040857,1.893300533,0.001206948,-0.000061205,0.001746411,0.004927596,-0.086334340,9.788155556
1784239787.517637,-0.007369522,-0.000040857,1.893300533,0.001043585,-0.000014068,0.001335419,0.008629257,-0.040205978,9.784420013
1784239787.519629,-0.007369522,-0.000040857,1.893300533,0.000242806,0.000496044,0.000965377,0.007474892,-0.021654177,9.823990822
1784239787.521629,-0.007367878,-0.000040964,1.893300533,-0.000068390,0.001024721,0.001022045,0.014452669,-0.039546967,9.807293892
1784239787.523627,-0.007367878,-0.000040964,1.893300533,0.000890323,0.000659550,0.000988823,0.003576548,-0.049981989,9.782110214
1784239787.525665,-0.007366864,-0.000040235,1.893300533,0.001857176,0.000121088,0.000891323,-0.008152483,-0.053975444,9.797763824
1784239787.527640,-0.007366864,-0.000040235,1.893300533,0.001662686,0.000189160,0.000713120,-0.001730610,-0.080408715,9.785944939
1784239787.529640,-0.007366864,-0.000040235,1.893300533,0.000399390,0.000214070,0.000707745,-0.003098121,-0.082586750,9.779653549
1784239787.531634,-0.007367045,-0.000040031,1.893300533,-0.000561620,-0.000023981,0.001460513,-0.020558495,-0.078407198,9.790423393
1784239787.533637,-0.007367045,-0.000040031,1.893300533,-0.000648632,-0.000365671,0.001954778,0.000527921,-0.079103120,9.787301064
1784239787.535635,-0.007367156,-0.000040020,1.893300533,-0.000384573,-0.000630473,0.001394634,-0.004000922,-0.045433257,9.786167145
1784239787.537639,-0.007367156,-0.000040020,1.893300533,-0.000242373,-0.000462411,0.000916299,-0.017036308,-0.047474541,9.781659126
1784239787.539642,-0.007367156,-0.000040020,1.893300533,-0.000207808,0.000019200,0.000822454,0.004779055,-0.021648295,9.828022003
1784239787.541639,-0.007364850,-0.000039552,1.893300533,-0.000072936,0.000406967,0.000411484,0.009138143,-0.071247622,9.801257133
1784239787.543639,-0.007364850,-0.000039552,1.893300533,0.000059116,0.000420537,-0.000124021,-0.031353358,-0.080906115,9.783224106
1784239787.545639,-0.007365191,-0.000037939,1.893300533,0.000100858,0.000465460,-0.000261297,-0.019798663,-0.052856907,9.787449837
1784239787.547642,-0.007365191,-0.000037939,1.893300533,-0.000263748,0.000684430,-0.000685823,0.012113678,-0.086372286,9.780540466
1784239787.549657,-0.007365191,-0.000037939,1.893300533,-0.000312322,0.000876830,-0.000868196,0.028969934,-0.101094030,9.804223061
1784239787.551646,-0.007366769,-0.000039314,1.893300533,0.000082899,0.000898929,-0.000116487,0.014885187,-0.079296626,9.788658142
1784239787.553680,-0.007366769,-0.000039314,1.893300533,-0.000321032,0.000472619,0.000409509,-0.009530640,-0.056642778,9.797298431
1784239787.555655,-0.007366365,-0.000038072,1.893300533,-0.000779584,-0.000067727,0.000394011,-0.031005228,-0.051410630,9.793277740
1784239787.557655,-0.007366365,-0.000038072,1.893300533,-0.000908175,0.000078280,0.000079172,0.001899302,-0.039709941,9.789796829
1784239787.559653,-0.007366365,-0.000038072,1.893300533,-0.000903309,0.000869433,-0.000453093,0.000622247,-0.033068661,9.803287506
1784239787.561664,-0.007363803,-0.000038462,1.893300533,-0.000487538,0.001257137,-0.000155270,-0.012100984,-0.047540955,9.782112122
1784239787.563664,-0.007363803,-0.000038462,1.893300533,-0.000336874,0.001031816,0.000943159,0.004061101,-0.046867900,9.784372330
1784239787.565662,-0.007362517,-0.000039869,1.893300533,-0.000698022,0.000748082,0.001525317,0.013954469,-0.046416055,9.766002655
1784239787.567668,-0.007362517,-0.000039869,1.893300533,-0.001251330,0.000227059,0.000882143,-0.013021125,-0.085704118,9.794867516
1784239787.569663,-0.007362517,-0.000039869,1.893300533,-0.001599020,-0.000202668,-0.000308666,-0.020578168,-0.079373077,9.800279617
1784239787.571663,-0.007362724,-0.000038262,1.893300533,-0.001556911,0.000109297,-0.000883377,0.010476533,-0.073352054,9.779726028
1784239787.573672,-0.007362724,-0.000038262,1.893300533,-0.001216917,0.000600778,-0.000902945,0.033073917,-0.060200680,9.779831886
1784239787.575672,-0.007361661,-0.000039491,1.893300533,-0.001193426,0.000452717,-0.000180251,-0.035443623,-0.046511419,9.805408478
1784239787.577666,-0.007361661,-0.000039491,1.893300533,-0.001180015,-0.000032090,0.000181651,-0.042522341,-0.040357459,9.771816254
1784239787.579665,-0.007361661,-0.000039491,1.893300533,-0.000820018,0.000048140,-0.000400171,-0.019961212,-0.065082237,9.805752754
1784239787.581670,-0.007360004,-0.000037598,1.893300533,-0.000050135,0.000262221,-0.000677934,0.002796062,-0.076911137,9.790007591
1784239787.583678,-0.007360004,-0.000037598,1.893300533,0.000436993,0.000222862,-0.001188368,-0.006126941,-0.071935356,9.799446106
1784239787.585671,-0.007360892,-0.000038166,1.893300533,-0.000455785,0.000137195,-0.001815239,0.035679590,-0.067402549,9.779788017
1784239787.587672,-0.007360892,-0.000038166,1.893300533,-0.001362007,-0.000069436,-0.001785718,0.003072147,-0.054468568,9.783875465
1784239787.589675,-0.007360892,-0.000038166,1.893300533,-0.001352204,-0.000224533,-0.002196418,0.015802963,-0.076715752,9.802125931
1784239787.591676,-0.007361469,-0.000040107,1.893300533,-0.000837152,-0.000163669,-0.002385521,-0.025688995,-0.093660489,9.802425385
1784239787.593685,-0.007361469,-0.000040107,1.893300533,-0.000063940,0.000017051,-0.001980335,-0.037000861,-0.101961240,9.792946815
1784239787.595680,-0.007363943,-0.000038063,1.893300533,0.000552814,0.000128690,-0.001450514,0.007050445,-0.095420890,9.801998138
1784239787.597687,-0.007363943,-0.000038063,1.893300533,0.000603955,0.000195759,-0.000974998,0.018325903,-0.053059798,9.810350418
1784239787.599697,-0.007363943,-0.000038063,1.893300533,0.000300242,0.000342275,-0.001278452,0.015462224,-0.029757367,9.814980507
1784239787.601689,-0.007362025,-0.000039397,1.893300533,0.000096291,0.000341824,-0.001662551,0.005556079,-0.031931106,9.823475838
1784239787.603690,-0.007362025,-0.000039397,1.893300533,0.000180774,0.000211439,-0.001689992,-0.013652900,-0.025742743,9.806907654
1784239787.605695,-0.007359549,-0.000038939,1.893300533,0.000458426,0.000094465,-0.001438985,-0.011554858,-0.037456635,9.812214851
1784239787.607730,-0.007359549,-0.000038939,1.893300533,0.000663247,0.000295772,-0.001019855,0.003038431,-0.056355804,9.797311783
1784239787.609727,-0.007359549,-0.000038939,1.893300533,0.000741507,0.000534179,-0.000876591,0.019996535,-0.063789345,9.804005623
1784239787.611708,-0.007358437,-0.000040017,1.893300533,0.000594773,0.000225070,-0.000937704,-0.006555107,-0.071767449,9.776580811
1784239787.613756,-0.007358437,-0.000040017,1.893300533,0.000068371,-0.000285016,-0.000749805,0.013030020,-0.083397493,9.801632881
1784239787.615718,-0.007358897,-0.000040863,1.893300533,-0.000182401,-0.000082286,-0.000573408,0.005107070,-0.071138650,9.793185234
1784239787.617711,-0.007358897,-0.000040863,1.893300533,0.000201093,0.000528935,-0.000712200,-0.009157023,-0.060483411,9.832693100
1784239787.619709,-0.007358897,-0.000040863,1.893300533,0.000530479,0.000560346,-0.000923846,0.001181827,-0.060062751,9.817910194
1784239787.621703,-0.007358547,-0.000040556,1.893300533,0.000279908,0.000442422,-0.000736607,0.003001427,-0.060295243,9.784285545
1784239787.623713,-0.007358547,-0.000040556,1.893300533,0.000309902,-0.000042091,-0.000547933,-0.016513785,-0.077598006,9.795365334
1784239787.625727,-0.007359181,-0.000040322,1.893300533,0.000874025,-0.000488683,-0.000771182,-0.010490887,-0.062800989,9.782911301
1784239787.627708,-0.007359181,-0.000040322,1.893300533,0.000781881,-0.000520608,-0.000932982,-0.014440837,-0.093562566,9.768363953
1784239787.629712,-0.007359181,-0.000040322,1.893300533,0.000265044,-0.000270689,-0.000779266,0.000456734,-0.121712871,9.793752670
1784239787.631713,-0.007361683,-0.000040444,1.893300533,0.000164290,0.000427611,-0.000212676,-0.030811399,-0.112497099,9.751192093
1784239787.633713,-0.007361683,-0.000040444,1.893300533,0.000192890,0.000376133,0.000377637,0.012169042,-0.079856366,9.809275627
1784239787.635717,-0.007361518,-0.000041109,1.893300533,-0.000190538,-0.000321209,0.000514527,0.022666546,-0.028435523,9.805132866
1784239787.637719,-0.007361518,-0.000041109,1.893300533,-0.001004918,-0.000209702,0.000328023,0.002146282,-0.015876161,9.840163231
1784239787.639730,-0.007361518,-0.000041109,1.893300533,-0.001358715,0.000317820,0.000375541,-0.012835250,-0.032057490,9.811350822
1784239787.641721,-0.007359842,-0.000040965,1.893300533,-0.000662383,0.000278732,0.000264900,0.020940430,-0.060191717,9.800444603
1784239787.643728,-0.007359842,-0.000040965,1.893300533,-0.000064413,0.000285055,0.000220741,0.039940074,-0.083837837,9.815104485
1784239787.645726,-0.007360421,-0.000042283,1.893300533,-0.000081284,0.000415775,0.000964783,0.026390962,-0.092465602,9.792620659
1784239787.647725,-0.007360421,-0.000042283,1.893300533,0.000189758,0.000037755,0.001865660,-0.015466730,-0.103075899,9.784890175
1784239787.649721,-0.007360421,-0.000042283,1.893300533,0.001051554,-0.000746556,0.002159123,-0.011421388,-0.102666959,9.783103943
1784239787.651726,-0.007361984,-0.000041870,1.893300533,0.001627423,-0.001206485,0.001904099,-0.011824160,-0.096625045,9.816317558
1784239787.653732,-0.007361984,-0.000041870,1.893300533,0.001291808,-0.001172638,0.001592809,-0.029733574,-0.055663027,9.821943283
1784239787.655738,-0.007360740,-0.000040712,1.893300533,0.000328327,-0.000832027,0.001005620,-0.027641622,-0.031861417,9.810441017
1784239787.657731,-0.007360740,-0.000040712,1.893300533,-0.000501003,-0.000637294,0.000703721,0.000542549,-0.040181983,9.795620918
1784239787.659733,-0.007360740,-0.000040712,1.893300533,-0.000621679,-0.000810063,0.001042413,0.018789556,-0.053757973,9.781653404
1784239787.661736,-0.007359397,-0.000040927,1.893300533,-0.000344169,-0.000597547,0.001237456,0.078584112,-0.081866711,9.783322334
1784239787.663736,-0.007359397,-0.000040927,1.893300533,-0.000028052,0.000147578,0.001780153,0.026452472,-0.087522127,9.790410042
1784239787.665733,-0.007360160,-0.000041770,1.893300533,0.000837718,0.000987978,0.002430895,0.021084838,-0.123289421,9.789278984
1784239787.667772,-0.007360160,-0.000041770,1.893300533,0.001631185,0.001388543,0.001911184,-0.006963810,-0.067393370,9.792300224
1784239787.669757,-0.007360160,-0.000041770,1.893300533,0.001789065,0.001113776,0.000734475,-0.021294380,-0.065773301,9.779295921
1784239787.671804,-0.007359864,-0.000041263,1.893300533,0.001589278,0.000302931,0.000216338,-0.011696707,-0.051950008,9.771324158
1784239787.673757,-0.007359864,-0.000041263,1.893300533,0.000864911,-0.000159732,0.000524642,-0.010562868,-0.067827128,9.796777725
1784239787.675754,-0.007360053,-0.000040644,1.893300533,0.000851278,0.000287763,0.001061307,-0.009100931,-0.058824744,9.788318634
1784239787.677752,-0.007360053,-0.000040644,1.893300533,0.001116546,0.000883547,0.001002908,0.044448450,-0.046136849,9.797864914
1784239787.679755,-0.007360053,-0.000040644,1.893300533,0.000947234,0.001056470,0.000146002,0.029072423,-0.056616124,9.787024498
1784239787.681759,-0.007358863,-0.000041941,1.893300533,0.000910087,0.000820755,-0.000353761,0.006938132,-0.068038628,9.795000076
1784239787.683768,-0.007358863,-0.000041941,1.893300533,0.000586107,0.000090170,-0.000053501,-0.000545376,-0.055858660,9.796863556
1784239787.685764,-0.007357499,-0.000042171,1.893300533,0.000314672,-0.000474793,-0.000304351,-0.042008262,-0.032957729,9.801453590
1784239787.687768,-0.007357499,-0.000042171,1.893300533,0.000429849,-0.000367981,-0.000447603,-0.010570628,-0.066267408,9.829516411
1784239787.689766,-0.007357499,-0.000042171,1.893300533,0.000802109,-0.000155594,0.000478200,-0.012341048,-0.066457063,9.796337128
1784239787.691766,-0.007357755,-0.000042622,1.893300533,0.001015444,-0.000482021,0.000463897,-0.033501461,-0.070803195,9.815566063
1784239787.693767,-0.007357755,-0.000042622,1.893300533,0.000516280,-0.001212312,-0.000272380,0.000296787,-0.061169390,9.786070824
1784239787.695804,-0.007356543,-0.000042972,1.893300533,0.000040482,-0.001927532,-0.000087876,0.044653229,-0.067520715,9.780243874
1784239787.697773,-0.007356543,-0.000042972,1.893300533,0.000278515,-0.001879223,0.000104790,0.048347067,-0.056612518,9.814839363
1784239787.699781,-0.007356543,-0.000042972,1.893300533,0.000733879,-0.000997014,-0.000417605,0.003781405,-0.031749129,9.801057816
1784239787.701773,-0.007354876,-0.000044967,1.893300533,0.000975730,-0.000282034,-0.000689594,-0.053595934,-0.064914569,9.779718399
1784239787.703783,-0.007354876,-0.000044967,1.893300533,0.001018754,-0.000319156,-0.000656381,-0.037052926,-0.068834998,9.797193527
1784239787.705774,-0.007355134,-0.000043847,1.893300533,0.001044660,-0.000902565,-0.000888020,0.024865739,-0.069240838,9.805768967
1784239787.707776,-0.007355134,-0.000043847,1.893300533,0.001262426,-0.001277158,-0.000821496,0.013471648,-0.083053857,9.815532684
1784239787.709812,-0.007355134,-0.000043847,1.893300533,0.001589755,-0.000906550,-0.000335937,0.023623142,-0.062732741,9.774874687
1784239787.711791,-0.007355408,-0.000044667,1.893300533,0.001797186,-0.000150585,0.000074601,0.003033936,-0.058417547,9.772192955
1784239787.713823,-0.007355408,-0.000044667,1.893300533,0.001531456,0.000244510,0.000065264,0.012135727,-0.046987291,9.786622047
1784239787.715804,-0.007354498,-0.000044704,1.893300533,0.001335907,0.000194797,-0.000665495,-0.005055231,-0.020012591,9.804711342
1784239787.717802,-0.007354498,-0.000044704,1.893300533,0.001548802,-0.000421224,-0.001200510,-0.009253912,-0.031763639,9.826600075
1784239787.719795,-0.007354498,-0.000044704,1.893300533,0.001774562,-0.000944962,-0.001229532,-0.001251986,-0.078962468,9.770710945
1784239787.721791,-0.007354857,-0.000044869,1.893300533,0.002142967,-0.000895721,-0.001410417,-0.011378276,-0.061899930,9.783813477
1784239787.723796,-0.007354857,-0.000044869,1.893300533,0.002048051,-0.001087819,-0.001887021,-0.020004254,-0.069069356,9.799449921
1784239787.725825,-0.007354565,-0.000044505,1.893300533,0.001456120,-0.001008236,-0.001890846,0.005665149,-0.099765591,9.785379410
1784239787.727812,-0.007354565,-0.000044505,1.893300533,0.001301006,-0.000328136,-0.001095448,0.006958265,-0.102632783,9.808226585
1784239787.729797,-0.007354565,-0.000044505,1.893300533,0.001875023,0.000124900,-0.000677619,-0.007393925,-0.065214582,9.801728249
1784239787.731806,-0.007354559,-0.000044264,1.893300533,0.002491500,0.000311346,-0.000788912,-0.003483639,-0.075598046,9.805700302
1784239787.733805,-0.007354559,-0.000044264,1.893300533,0.002393971,0.000092194,-0.000728420,-0.030789284,-0.071085334,9.787322044
1784239787.735801,-0.007353995,-0.000042594,1.893300533,0.001778593,-0.000241577,-0.000686186,-0.024643872,-0.044784419,9.795118332
1784239787.737798,-0.007353995,-0.000042594,1.893300533,0.001136103,-0.000050651,-0.000653310,0.000387301,-0.053160138,9.793745041
1784239787.739806,-0.007353995,-0.000042594,1.893300533,0.000541973,0.000266025,-0.000014809,0.009256389,-0.062208910,9.790107727
1784239787.741812,-0.007354414,-0.000043680,1.893300533,0.000087545,0.000190412,0.000538850,0.014964788,-0.032973200,9.827063560
1784239787.743812,-0.007354414,-0.000043680,1.893300533,-0.000157238,-0.000348701,0.000470278,0.021806940,-0.027315063,9.775099754
1784239787.745810,-0.007352516,-0.000044856,1.893300533,0.000171744,-0.000639137,0.000457804,0.044030190,-0.043459222,9.800123215
1784239787.747810,-0.007352516,-0.000044856,1.893300533,0.000706871,-0.000348043,0.000145106,0.015040838,-0.066315308,9.790086746
1784239787.749806,-0.007352516,-0.000044856,1.893300533,0.001152352,-0.000080483,-0.000425278,-0.020677667,-0.088668972,9.784529686
1784239787.751817,-0.007353511,-0.000044105,1.893300533,0.001764827,0.000055448,-0.000533787,-0.037170678,-0.117080636,9.777156830
1784239787.753814,-0.007353511,-0.000044105,1.893300533,0.001846797,0.000064197,0.000072052,-0.008819502,-0.072714113,9.787782669
1784239787.755817,-0.007353072,-0.000043861,1.893300533,0.001671523,0.000073215,0.000494989,0.004793822,-0.060337316,9.786976814
1784239787.757820,-0.007353072,-0.000043861,1.893300533,0.001292011,0.000033262,0.000026207,-0.013593243,-0.057998519,9.806253433
1784239787.759824,-0.007353072,-0.000043861,1.893300533,0.000487384,-0.000350022,-0.000336160,-0.002916971,-0.065351576,9.812939644
1784239787.761827,-0.007352096,-0.000044022,1.893300533,-0.000024881,-0.000433484,-0.000364259,0.006417514,-0.036279131,9.803272247
1784239787.763825,-0.007352096,-0.000044022,1.893300533,-0.000139796,0.000041134,-0.000092506,0.021973515,-0.049811080,9.787957191
1784239787.765824,-0.007351127,-0.000044403,1.893300533,-0.000062077,0.000364382,0.000556889,0.000025317,-0.045580387,9.799620628
1784239787.767828,-0.007351127,-0.000044403,1.893300533,0.000246851,0.000507590,0.000957647,-0.023814425,-0.049790263,9.804501534
1784239787.769826,-0.007351127,-0.000044403,1.893300533,0.000421414,0.000814547,0.000582726,-0.012838497,-0.107262872,9.801902771
1784239787.771827,-0.007352389,-0.000043468,1.893300533,0.000116020,0.001151265,0.000237335,0.022116605,-0.111298174,9.802358627
1784239787.773846,-0.007352389,-0.000043468,1.893300533,-0.000185318,0.000925668,0.000596735,-0.001633996,-0.073161848,9.774784088
1784239787.775834,-0.007352264,-0.000043335,1.893300533,-0.000283913,0.000115590,0.000277490,0.027016683,-0.038894691,9.818966866
1784239787.777838,-0.007352264,-0.000043335,1.893300533,-0.000627511,-0.000595616,-0.000281115,0.025018007,-0.019101597,9.811470032
1784239787.779837,-0.007352264,-0.000043335,1.893300533,-0.001288749,-0.000571749,-0.000288547,-0.010951077,-0.024890855,9.808260918
1784239787.781834,-0.007350212,-0.000043920,1.893300533,-0.001605658,-0.000445821,-0.000672182,-0.025123242,-0.047047094,9.799138069
1784239787.783847,-0.007350212,-0.000043920,1.893300533,-0.001043481,-0.000561400,-0.000825189,-0.040846411,-0.049018905,9.789696693
1784239787.785840,-0.007348898,-0.000041746,1.893300533,-0.000505614,-0.000292420,-0.000049942,-0.019168997,-0.073624067,9.808388710
1784239787.787845,-0.007348898,-0.000041746,1.893300533,-0.000638215,-0.000021144,0.000893491,-0.008550209,-0.051135663,9.777160645
1784239787.789845,-0.007348898,-0.000041746,1.893300533,-0.000882045,-0.000213600,0.000874345,0.034985356,-0.085950814,9.806120872
1784239787.791846,-0.007350653,-0.000042545,1.893300533,-0.000553122,-0.000480942,0.000156473,0.043761808,-0.066651449,9.785629272
1784239787.793845,-0.007350653,-0.000042545,1.893300533,-0.000203839,-0.000551329,-0.000293415,0.006658236,-0.093753286,9.757174492
1784239787.795848,-0.007352051,-0.000041729,1.893300533,-0.000395267,0.000012847,-0.000401812,-0.041778468,-0.089707658,9.779570580
1784239787.797854,-0.007352051,-0.000041729,1.893300533,-0.000621349,0.000819432,-0.000262089,-0.012668163,-0.056170475,9.799539566
1784239787.799860,-0.007352051,-0.000041729,1.893300533,-0.000881665,0.000957186,-0.000018546,0.025932781,-0.054539569,9.815727234
1784239787.801852,-0.007351152,-0.000043125,1.893300533,-0.000621443,0.000907255,0.000393423,-0.011165087,-0.079570115,9.811047554
1784239787.803857,-0.007351152,-0.000043125,1.893300533,0.000454661,0.000967988,0.000912110,-0.008090985,-0.086621933,9.789037704
1784239787.805851,-0.007351535,-0.000043737,1.893300533,0.001093393,0.001012358,0.001524411,0.029905388,-0.059973206,9.816593170
1784239787.807863,-0.007351535,-0.000043737,1.893300533,0.001012725,0.000796366,0.002329251,0.037299469,-0.081369579,9.787770271
1784239787.809885,-0.007351535,-0.000043737,1.893300533,0.000773235,0.000483622,0.002156240,0.022826560,-0.052199107,9.807221413
1784239787.811865,-0.007351325,-0.000044469,1.893300533,0.000458863,0.000444375,0.000875716,-0.014822308,-0.048952091,9.796446800
1784239787.813906,-0.007351325,-0.000044469,1.893300533,0.000279406,-0.000016731,-0.000059464,-0.024789052,-0.057683080,9.782033920
1784239787.815876,-0.007350764,-0.000043368,1.893300533,-0.000145991,-0.000800772,-0.000527076,-0.016071176,-0.042088244,9.778555870
1784239787.817864,-0.007350764,-0.000043368,1.893300533,-0.000451425,-0.000975561,-0.000937718,0.005146653,-0.069610350,9.767191887
1784239787.819864,-0.007350764,-0.000043368,1.893300533,0.000071933,-0.000591614,-0.000799589,-0.020337533,-0.060047153,9.791437149
1784239787.821867,-0.007350351,-0.000043132,1.893300533,0.000726332,-0.000064862,-0.000372220,-0.037163984,-0.042253271,9.776741028
1784239787.823868,-0.007350351,-0.000043132,1.893300533,0.000805181,0.000252825,-0.000332664,0.015263291,-0.049159233,9.771368027
1784239787.825900,-0.007349804,-0.000043854,1.893300533,0.001133484,0.000533010,0.000075942,-0.019083487,-0.066059597,9.815609932
1784239787.827883,-0.007349804,-0.000043854,1.893300533,0.002223007,0.000782060,0.000357157,-0.028648136,-0.079622164,9.786820412
1784239787.829887,-0.007349804,-0.000043854,1.893300533,0.002760119,0.000519819,-0.000018519,-0.017436840,-0.041820176,9.806352615
1784239787.831883,-0.007348458,-0.000042649,1.893300533,0.002117628,0.000086610,-0.000078564,0.021841111,-0.060987845,9.784747124
1784239787.833882,-0.007348458,-0.000042649,1.893300533,0.001142425,-0.000243390,0.000183688,0.025905199,-0.095589221,9.791702271
1784239787.835884,-0.007349741,-0.000043395,1.893300533,0.000593978,-0.000557425,0.000356531,-0.002949141,-0.069252856,9.794533730
1784239787.837884,-0.007349741,-0.000043395,1.893300533,0.000813817,-0.000465901,-0.000002185,0.008142343,-0.044149213,9.772738457
1784239787.839882,-0.007349741,-0.000043395,1.893300533,0.000995274,-0.000023687,0.000099657,0.003331426,-0.068532802,9.807994843
1784239787.841890,-0.007348112,-0.000043681,1.893300533,0.000624490,0.000662208,0.000445852,0.015513832,-0.062076729,9.823289871
1784239787.843890,-0.007348112,-0.000043681,1.893300533,0.000450779,0.001508687,-0.000256609,0.010866554,-0.040689044,9.785316467
1784239787.845891,-0.007346345,-0.000044124,1.893300533,0.000135969,0.001390729,-0.000989358,-0.021250870,-0.059756216,9.815198898
1784239787.847896,-0.007346345,-0.000044124,1.893300533,-0.000357245,0.000422583,-0.001023042,-0.023792516,-0.086801909,9.779607773
1784239787.849891,-0.007346345,-0.000044124,1.893300533,-0.000171611,-0.000002028,-0.000810477,-0.002797290,-0.056706764,9.794166565
1784239787.851888,-0.007345621,-0.000042878,1.893300533,0.000416447,-0.000156566,-0.000274956,0.017971501,-0.047446400,9.777658463
1784239787.853891,-0.007345621,-0.000042878,1.893300533,0.000699839,-0.000321027,0.000024387,0.013074781,-0.081017792,9.781920433
1784239787.855929,-0.007345980,-0.000043770,1.893300533,0.000747128,-0.000220029,-0.000262018,0.006521319,-0.062918082,9.831794739
1784239787.857907,-0.007345980,-0.000043770,1.893300533,0.000439000,-0.000017872,-0.000289971,-0.000197766,-0.027583061,9.789423943
1784239787.859900,-0.007345980,-0.000043770,1.893300533,0.000073687,0.000578129,0.000143237,0.002801255,-0.038469765,9.802806854
1784239787.861904,-0.007344272,-0.000043983,1.893300533,0.000064788,0.001335070,0.000208306,-0.011210709,-0.046392992,9.808122635
1784239787.863905,-0.007344272,-0.000043983,1.893300533,0.000071103,0.001242813,-0.000469930,-0.010385632,-0.052243881,9.810327530
1784239787.865906,-0.007343062,-0.000043595,1.893300533,0.000245538,0.000165707,-0.000951323,-0.022313993,-0.072805539,9.824977875
1784239787.867902,-0.007343062,-0.000043595,1.893300533,0.000333570,-0.000783403,-0.000833644,-0.007474374,-0.073144339,9.782848358
1784239787.869901,-0.007343062,-0.000043595,1.893300533,0.000207772,-0.000592360,-0.000490575,0.029761817,-0.072859146,9.801715851
1784239787.871906,-0.007342335,-0.000045363,1.893300533,0.000180030,0.000375856,-0.000524762,-0.001827274,-0.086845510,9.809218407
1784239787.873907,-0.007342335,-0.000045363,1.893300533,-0.000148499,0.000854511,-0.001201285,-0.033559706,-0.114121266,9.795561790
1784239787.875908,-0.007344102,-0.000042810,1.893300533,-0.000174324,0.000964591,-0.001316027,-0.011310043,-0.092872225,9.791684151
1784239787.877909,-0.007344102,-0.000042810,1.893300533,0.000622528,0.001408881,-0.000565907,-0.009381229,-0.084542580,9.750941277
1784239787.879908,-0.007344102,-0.000042810,1.893300533,0.001180549,0.001354026,0.000104765,0.029518360,-0.057454206,9.778051376
1784239787.881921,-0.007343559,-0.000044401,1.893300533,0.000982127,0.000564288,0.000642359,-0.003122160,-0.046807710,9.788848877
1784239787.883918,-0.007343559,-0.000044401,1.893300533,0.000658127,0.000134347,0.001124775,-0.020841075,-0.065337449,9.780195236
1784239787.885912,-0.007343914,-0.000043586,1.893300533,0.000626731,0.000358688,0.001515634,-0.012720289,-0.059824117,9.809380531
1784239787.887915,-0.007343914,-0.000043586,1.893300533,0.001127186,0.000356475,0.001475347,-0.019996956,-0.069822200,9.779270172
1784239787.889914,-0.007343914,-0.000043586,1.893300533,0.001652141,0.000032137,0.000957055,-0.006649802,-0.039788298,9.816239357
1784239787.891918,-0.007342395,-0.000043860,1.893300533,0.001136774,0.000293842,0.000201746,-0.024982329,-0.036613621,9.780823708
1784239787.893918,-0.007342395,-0.000043860,1.893300533,0.000132979,0.000852580,-0.000564059,0.000532937,-0.041068371,9.794269562
1784239787.895922,-0.007341594,-0.000044496,1.893300533,-0.000078676,0.000839476,-0.001033196,0.015484936,-0.066762649,9.789188385
1784239787.897926,-0.007341594,-0.000044496,1.893300533,0.000306374,0.000588577,-0.001122719,0.012842854,-0.025500445,9.788105011
1784239787.899923,-0.007341594,-0.000044496,1.893300533,0.000100339,0.000590152,-0.001043268,-0.002406756,-0.060413849,9.810730934
1784239787.901923,-0.007341329,-0.000044799,1.893300533,-0.000373644,0.000686226,-0.001220048,-0.031822704,-0.044689257,9.794663429
1784239787.903928,-0.007341329,-0.000044799,1.893300533,-0.000613255,0.000555425,-0.001079003,-0.028002588,-0.062268715,9.802625656
1784239787.905926,-0.007341282,-0.000044086,1.893300533,-0.000538903,0.000166699,-0.000526198,0.004166504,-0.076330982,9.768940926
1784239787.907932,-0.007341282,-0.000044086,1.893300533,-0.000337526,0.000081028,-0.000302669,0.023543511,-0.067819297,9.797258377
1784239787.909929,-0.007341282,-0.000044086,1.893300533,-0.000764533,0.000474672,-0.000120150,0.016021669,-0.095558122,9.805143356
1784239787.911939,-0.007342221,-0.000045483,1.893300533,-0.001295546,0.000546158,0.000282042,-0.023725929,-0.044633754,9.772255898
1784239787.913943,-0.007342221,-0.000045483,1.893300533,-0.001091182,0.000122995,0.000717741,-0.010405377,-0.055236526,9.790133476
1784239787.915936,-0.007341992,-0.000045245,1.893300533,-0.000872629,-0.000437793,0.000997743,0.001731797,-0.053190108,9.795538902
1784239787.917936,-0.007341992,-0.000045245,1.893300533,-0.000949724,-0.001004549,0.001001894,0.002895384,-0.068021871,9.799926758
1784239787.919945,-0.007341992,-0.000045245,1.893300533,-0.000602161,-0.000986475,0.000466407,-0.015604178,-0.076297410,9.799856186
1784239787.922006,-0.007342306,-0.000043559,1.893300533,-0.000504596,-0.000305992,0.000133936,0.019643972,-0.058566675,9.763240814
1784239787.923954,-0.007342306,-0.000043559,1.893300533,-0.000721410,0.000546402,0.000940269,0.018473381,-0.041358754,9.802803040
1784239787.925961,-0.007340732,-0.000044891,1.893300533,-0.000446753,0.001089371,0.001744549,-0.000239495,-0.067933924,9.793200493
1784239787.927954,-0.007340732,-0.000044891,1.893300533,-0.000068857,0.000950330,0.001136343,-0.010170496,-0.071924940,9.805269241
1784239787.929970,-0.007340732,-0.000044891,1.893300533,-0.000102403,0.000586036,0.000095606,-0.034431316,-0.073479459,9.815547943
1784239787.931957,-0.007340706,-0.000042669,1.893300533,0.000002051,0.000640260,-0.000173176,0.013223815,-0.068493962,9.784690857
1784239787.934014,-0.007340706,-0.000042669,1.893300533,-0.000118284,0.001020654,0.000156109,0.022156145,-0.071369827,9.794992447
1784239787.935965,-0.007341033,-0.000043285,1.893300533,-0.000897101,0.001032132,0.000898862,0.021343326,-0.065016925,9.785169601
1784239787.937966,-0.007341033,-0.000043285,1.893300533,-0.001320906,0.000826165,0.000915481,0.004349721,-0.059889968,9.787876129
1784239787.939966,-0.007341033,-0.000043285,1.893300533,-0.001099404,0.001070592,0.000244660,0.020795261,-0.035500407,9.793876648
1784239787.941960,-0.007338893,-0.000043938,1.893300533,-0.001098958,0.001447494,-0.000098760,0.005136936,-0.068876587,9.790060997
1784239787.943968,-0.007338893,-0.000043938,1.893300533,-0.001247513,0.001327797,-0.000369423,0.002510261,-0.063866809,9.783365250
1784239787.945967,-0.007338093,-0.000044752,1.893300533,-0.000528614,0.000887593,-0.000224266,-0.007784068,-0.064341165,9.742554665
1784239787.947964,-0.007338093,-0.000044752,1.893300533,0.000571534,0.000397814,0.000025867,-0.024115659,-0.075673439,9.790436745
1784239787.949967,-0.007338093,-0.000044752,1.893300533,0.001283927,0.000150414,0.000136348,0.002548469,-0.059917841,9.795048714
1784239787.951965,-0.007337679,-0.000044129,1.893300533,0.001156807,0.000444357,0.000344810,0.015873913,-0.071292520,9.795435905
1784239787.953983,-0.007337679,-0.000044129,1.893300533,0.000668167,0.000824644,0.000515020,-0.017090287,-0.088327415,9.793053627
1784239787.955980,-0.007338158,-0.000043506,1.893300533,0.000382480,0.000885705,0.000511562,0.007832317,-0.033322446,9.762943268
1784239787.957975,-0.007338158,-0.000043506,1.893300533,-0.000173455,0.000415393,-0.000053983,0.001629040,-0.024111399,9.802000999
1784239787.959980,-0.007338158,-0.000043506,1.893300533,-0.000795767,0.000021675,-0.000556867,-0.005090047,-0.058282632,9.830917358
1784239787.961987,-0.007337177,-0.000043112,1.893300533,-0.001120092,0.000054794,-0.000487981,-0.001153540,-0.106859460,9.787120819
1784239787.963979,-0.007337177,-0.000043112,1.893300533,-0.000795491,0.000196432,-0.000039113,-0.019725190,-0.083787873,9.789492607
1784239787.965978,-0.007337841,-0.000042264,1.893300533,-0.000395593,0.000317179,0.000071619,0.004682234,-0.107318565,9.778158188
1784239787.967977,-0.007337841,-0.000042264,1.893300533,-0.000410447,0.000376431,-0.000498226,0.028859463,-0.074102499,9.789155006
1784239787.969996,-0.007337841,-0.000042264,1.893300533,-0.000438611,0.000491667,-0.000894926,0.013828748,-0.055108562,9.791501999
1784239787.971995,-0.007337062,-0.000043613,1.893300533,-0.000295960,0.000662523,-0.000966553,0.001240400,-0.056358241,9.800897598
1784239787.973984,-0.007337062,-0.000043613,1.893300533,-0.000267736,0.000464153,-0.001074806,-0.010059029,-0.026160391,9.796149254
1784239787.975987,-0.007335409,-0.000043621,1.893300533,-0.000634228,-0.000307595,-0.000923104,-0.009779213,-0.040062472,9.797404289
1784239787.977997,-0.007335409,-0.000043621,1.893300533,-0.000830912,-0.000963215,-0.000379756,-0.027095396,-0.060987201,9.809806824
1784239787.979999,-0.007335409,-0.000043621,1.893300533,-0.000409012,-0.001084835,-0.000324035,-0.023787390,-0.085140429,9.797999382
1784239787.981996,-0.007335919,-0.000042678,1.893300533,0.000173104,-0.000939750,-0.000714948,0.008576996,-0.082666293,9.769800186
1784239787.984003,-0.007335919,-0.000042678,1.893300533,0.000306188,-0.000957799,-0.000856462,0.021714464,-0.070903406,9.793201447
1784239787.985996,-0.007335928,-0.000042964,1.893300533,0.000057811,-0.001111882,-0.000852576,0.001654232,-0.059070833,9.803569794
1784239787.987999,-0.007335928,-0.000042964,1.893300533,-0.000102973,-0.000939017,-0.000414881,0.006981697,-0.062831625,9.818795204
1784239787.989997,-0.007335928,-0.000042964,1.893300533,-0.000249891,-0.000271461,-0.000309676,0.026705367,-0.067694195,9.773949623
1784239787.991997,-0.007335465,-0.000043967,1.893300533,-0.000138317,0.000181692,-0.001081308,-0.019735420,-0.046684023,9.801386833
1784239787.994007,-0.007335465,-0.000043967,1.893300533,0.000007939,-0.000155193,-0.001592892,-0.037300464,-0.052651767,9.790123940
1784239787.996041,-0.007334461,-0.000041918,1.893300533,-0.000341401,-0.000615669,-0.001317632,-0.054386146,-0.056356844,9.774840355
1784239787.998011,-0.007334461,-0.000041918,1.893300533,-0.000631815,-0.000827616,-0.000647130,-0.034936011,-0.079589367,9.793540001
1784239788.000007,-0.007334461,-0.000041918,1.893300533,-0.000639652,-0.000551790,-0.000228163,-0.020000055,-0.068630934,9.800799370
1784239788.002015,-0.007333736,-0.000040613,1.893300533,-0.000169991,0.000060106,-0.000262890,0.024813667,-0.073704548,9.803499222
1784239788.004017,-0.007333736,-0.000040613,1.893300533,0.000454360,-0.000110257,-0.000110654,0.023267493,-0.053481966,9.797798157
1784239788.006011,-0.007332725,-0.000042028,1.893300533,0.000779431,-0.000486172,0.000197209,-0.008558895,-0.050798990,9.792853355
1784239788.008012,-0.007332725,-0.000042028,1.893300533,0.000783921,-0.000593090,0.000024906,-0.051275201,-0.057039004,9.802187920
1784239788.010022,-0.007332725,-0.000042028,1.893300533,0.000425197,-0.000825637,-0.000661659,-0.004873306,-0.080787815,9.781904221
1784239788.012019,-0.007333215,-0.000042153,1.893300533,0.000053466,-0.001191293,-0.001253342,-0.028714711,-0.084200352,9.800690651
1784239788.014016,-0.007333215,-0.000042153,1.893300533,-0.000056292,-0.001516170,-0.001233152,-0.001199903,-0.071661919,9.815142632
1784239788.016019,-0.007332955,-0.000041928,1.893300533,0.000211438,-0.001343382,-0.001089247,-0.021489199,-0.042689789,9.809930801
1784239788.018018,-0.007332955,-0.000041928,1.893300533,0.000449155,-0.000658775,-0.001179802,-0.056424063,-0.040115640,9.762838364
1784239788.020020,-0.007332955,-0.000041928,1.893300533,0.000279039,-0.000085787,-0.001011230,0.031643063,-0.029341498,9.790339470
1784239788.022026,-0.007330033,-0.000042805,1.893300533,0.000460750,0.000201453,-0.000744251,0.006514058,-0.065812156,9.797703743
1784239788.024023,-0.007330033,-0.000042805,1.893300533,0.000772790,0.000335885,-0.000405477,0.021993650,-0.084405228,9.801185608
1784239788.026044,-0.007330150,-0.000044196,1.893300533,0.000580338,0.000183255,0.000344704,-0.009767320,-0.112716809,9.807250977
1784239788.028034,-0.007330150,-0.000044196,1.893300533,0.000693682,0.000140443,0.001036401,-0.045781970,-0.083302170,9.831166267
1784239788.030038,-0.007330150,-0.000044196,1.893300533,0.000944103,0.000453082,0.000946768,-0.036707804,-0.077358365,9.798036575
1784239788.032030,-0.007330480,-0.000042914,1.893300533,0.000946779,0.000720434,0.000610629,-0.001332763,-0.047278672,9.788847923
1784239788.034034,-0.007330480,-0.000042914,1.893300533,0.000836805,0.000750095,0.001068678,0.003211746,-0.042424489,9.791125298
1784239788.036038,-0.007329399,-0.000043294,1.893300533,0.000407939,0.000377045,0.001796749,0.034350980,-0.064005114,9.808502197
1784239788.038045,-0.007329399,-0.000043294,1.893300533,-0.000122494,-0.000122593,0.001711763,0.016560500,-0.049967844,9.819783211
1784239788.040044,-0.007329399,-0.000043294,1.893300533,-0.000431953,-0.000230546,0.000857121,-0.000353602,-0.078560978,9.775647163
1784239788.042046,-0.007328852,-0.000042697,1.893300533,-0.000293247,-0.000061568,0.000308689,0.007253102,-0.080447391,9.775193214
1784239788.044048,-0.007328852,-0.000042697,1.893300533,0.000039384,-0.000212282,0.000124626,-0.010304871,-0.086764529,9.750029564
1784239788.046044,-0.007329328,-0.000042000,1.893300533,0.000205314,-0.000716681,-0.000102041,-0.014259065,-0.079564482,9.752762794
1784239788.048043,-0.007329328,-0.000042000,1.893300533,-0.000035637,-0.000958330,0.000400878,-0.014764260,-0.081220590,9.797584534
1784239788.050046,-0.007329328,-0.000042000,1.893300533,-0.000517111,-0.000864956,0.001400077,0.021963276,-0.050297197,9.793334961
1784239788.052046,-0.007328632,-0.000042622,1.893300533,-0.000921726,-0.000917920,0.001405151,0.033016443,-0.027522389,9.784076691
1784239788.054050,-0.007328632,-0.000042622,1.893300533,-0.000998142,-0.000955316,0.000831543,0.016657054,-0.007157774,9.785086632
1784239788.056051,-0.007326697,-0.000043241,1.893300533,-0.001305211,-0.000712960,0.000920229,0.007672301,-0.044311989,9.796498299
1784239788.058061,-0.007326697,-0.000043241,1.893300533,-0.001803779,-0.000892873,0.000892153,0.001340581,-0.048272684,9.797810555
1784239788.060053,-0.007326697,-0.000043241,1.893300533,-0.001299842,-0.001192513,0.000420844,0.009857454,-0.086038657,9.800715446
1784239788.062073,-0.007326470,-0.000043717,1.893300533,-0.000423128,-0.001127642,-0.000028423,-0.024007652,-0.101873964,9.820306778
1784239788.064186,-0.007326470,-0.000043717,1.893300533,0.000184046,-0.000595615,-0.000100333,-0.025136491,-0.085552059,9.795305252
1784239788.066119,-0.007326821,-0.000042721,1.893300533,0.000391940,-0.000098955,0.000082189,-0.013550437,-0.056444775,9.776672363
1784239788.068093,-0.007326821,-0.000042721,1.893300533,0.000343027,-0.000106324,-0.000870328,0.015281541,-0.044962607,9.811294556
1784239788.070094,-0.007326821,-0.000042721,1.893300533,0.000577176,-0.000240708,-0.001546466,0.016801529,-0.068228707,9.803974152
1784239788.072079,-0.007326783,-0.000043977,1.893300533,0.000942977,-0.000385009,-0.000685088,0.031258572,-0.060339849,9.802694321
1784239788.074085,-0.007326783,-0.000043977,1.893300533,0.001011844,-0.000379785,-0.000093386,0.020231871,-0.046531528,9.770940781
1784239788.076081,-0.007326053,-0.000044979,1.893300533,0.000827939,-0.000441024,-0.000385143,0.022863215,-0.049072914,9.808586121
1784239788.078079,-0.007326053,-0.000044979,1.893300533,0.001056593,-0.000416886,-0.000705038,-0.014833411,-0.048634499,9.814829826
1784239788.080080,-0.007326053,-0.000044979,1.893300533,0.001673479,-0.000495924,-0.000649071,-0.024849413,-0.061806943,9.795009613
1784239788.082102,-0.007325614,-0.000044408,1.893300533,0.002192810,-0.000840362,-0.000916668,-0.025822312,-0.068470351,9.788688660
1784239788.084109,-0.007325614,-0.000044408,1.893300533,0.001902591,-0.001013072,-0.000949770,-0.034189370,-0.058600981,9.738978386
1784239788.086092,-0.007325451,-0.000042960,1.893300533,0.000989668,-0.000632106,-0.000195947,-0.013811104,-0.077549838,9.783711433
1784239788.088085,-0.007325451,-0.000042960,1.893300533,0.000277155,0.000240794,0.000212032,-0.008704532,-0.062890768,9.792328835
1784239788.090102,-0.007325451,-0.000042960,1.893300533,-0.000169603,0.000718348,-0.000213599,0.021868678,-0.057528164,9.802254677
1784239788.092103,-0.007324746,-0.000042745,1.893300533,-0.000608844,0.000546377,-0.000671159,0.030201081,-0.073344655,9.806196213
1784239788.094095,-0.007324746,-0.000042745,1.893300533,-0.000498476,0.000162366,-0.000662260,-0.008094955,-0.087463811,9.781411171
1784239788.096090,-0.007325431,-0.000042310,1.893300533,0.000362672,0.000197742,-0.000580573,-0.022498930,-0.052886002,9.796413422
1784239788.098094,-0.007325431,-0.000042310,1.893300533,0.000254865,0.000772080,-0.000627488,-0.001318094,-0.081510708,9.814184189
1784239788.100091,-0.007325431,-0.000042310,1.893300533,-0.000564079,0.001288127,-0.000608142,-0.023265770,-0.041307010,9.807695389
1784239788.102097,-0.007324427,-0.000041557,1.893300533,-0.000588718,0.001116038,-0.000289312,-0.025528954,-0.042244133,9.817549706
1784239788.104097,-0.007324427,-0.000041557,1.893300533,-0.000576249,0.000468147,-0.000023807,0.011191470,-0.088988133,9.772005081
1784239788.106111,-0.007324901,-0.000042038,1.893300533,-0.000728946,-0.000017213,-0.000300069,0.014264390,-0.055622682,9.800017357
1784239788.108102,-0.007324901,-0.000042038,1.893300533,-0.000515277,-0.000375624,-0.000284211,0.019458055,-0.073813245,9.765383720
1784239788.110103,-0.007324901,-0.000042038,1.893300533,-0.000193984,-0.000333518,-0.000108240,0.024616994,-0.053067148,9.800044060
1784239788.112102,-0.007324743,-0.000042927,1.893300533,-0.000173387,-0.000099122,-0.000538857,-0.010809639,-0.013237509,9.807438850
1784239788.114104,-0.007324743,-0.000042927,1.893300533,-0.000560072,-0.000214125,-0.000511803,-0.013432877,-0.046195723,9.784359932
1784239788.116116,-0.007323507,-0.000042932,1.893300533,-0.000880029,-0.000390365,-0.000023324,0.019409452,-0.038228158,9.801928520
1784239788.118110,-0.007323507,-0.000042932,1.893300533,-0.000516536,-0.000665306,-0.000299154,-0.000831070,-0.079187632,9.801645279
1784239788.120117,-0.007323507,-0.000042932,1.893300533,-0.000179113,-0.000900608,-0.000789001,-0.000611959,-0.063273683,9.768571854
1784239788.122123,-0.007322577,-0.000043159,1.893300533,-0.000457649,-0.000996476,-0.000803278,-0.005967784,-0.060142100,9.778898239
1784239788.124117,-0.007322577,-0.000043159,1.893300533,-0.000987375,-0.001136337,-0.000561863,0.013362381,-0.056052789,9.799117088
1784239788.126154,-0.007322120,-0.000044479,1.893300533,-0.001136449,-0.000973668,0.000085203,0.023053268,-0.070167810,9.813382149
1784239788.128140,-0.007322120,-0.000044479,1.893300533,-0.000173384,-0.000433966,0.000434271,0.013359900,-0.058098640,9.771756172
1784239788.130133,-0.007322120,-0.000044479,1.893300533,0.001286731,-0.000208535,0.000291694,0.005078121,-0.075014494,9.771192551
1784239788.132132,-0.007322383,-0.000045150,1.893300533,0.002092229,-0.000474505,0.000347487,-0.005966807,-0.059729118,9.783833504
1784239788.134132,-0.007322383,-0.000045150,1.893300533,0.001773048,-0.000926156,0.000006168,0.001217786,-0.058563069,9.795950890
1784239788.136125,-0.007321964,-0.000045288,1.893300533,0.001233397,-0.001286316,-0.000495867,0.017891346,-0.088505946,9.818191528
1784239788.138136,-0.007321964,-0.000045288,1.893300533,0.001152293,-0.001050068,-0.000533387,-0.033021346,-0.070560932,9.780597687
1784239788.140134,-0.007321964,-0.000045288,1.893300533,0.001130730,-0.000682369,-0.000234639,-0.048314333,-0.072684757,9.791778564
1784239788.142133,-0.007322542,-0.000043711,1.893300533,0.001039065,-0.000738002,0.000035229,-0.023255356,-0.040414266,9.808148384
1784239788.144132,-0.007322542,-0.000043711,1.893300533,0.000882346,-0.000688893,0.000448803,0.004779043,-0.024485137,9.785861969
1784239788.146138,-0.007320546,-0.000043536,1.893300533,0.000157483,-0.000093759,0.001600669,-0.028459447,-0.025953291,9.800167084
1784239788.148137,-0.007320546,-0.000043536,1.893300533,-0.000565348,0.000649869,0.002116276,0.004523669,-0.046358924,9.774961472
1784239788.150135,-0.007320546,-0.000043536,1.893300533,-0.000026254,0.000809978,0.001209779,0.038279217,-0.074652120,9.786468506
1784239788.152140,-0.007320421,-0.000045302,1.893300533,0.001049913,0.000542590,0.000331731,0.029865971,-0.063931718,9.806256294
1784239788.154148,-0.007320421,-0.000045302,1.893300533,0.001145138,0.000350801,0.000413076,-0.003367522,-0.067791939,9.778851509
1784239788.156147,-0.007319670,-0.000045045,1.893300533,0.000222571,0.000437992,0.000435920,-0.020594677,-0.044750322,9.783018112
1784239788.158142,-0.007319670,-0.000045045,1.893300533,-0.000556010,0.000560197,-0.000124939,-0.025479764,-0.039829455,9.792907715
1784239788.160146,-0.007319670,-0.000045045,1.893300533,-0.000767614,0.000192532,-0.000066151,-0.030378086,-0.035823591,9.805481911
1784239788.162160,-0.007318399,-0.000042847,1.893300533,-0.000395884,0.000115574,0.000213248,0.035902224,-0.012249894,9.773415565
1784239788.164159,-0.007318399,-0.000042847,1.893300533,0.000206587,0.000491900,-0.000230142,0.024325097,-0.039260454,9.812237740
1784239788.166155,-0.007317016,-0.000043533,1.893300533,0.000150735,0.000071961,-0.000972992,0.004942050,-0.047819842,9.790643692
1784239788.168150,-0.007317016,-0.000043533,1.893300533,-0.000129291,-0.000714923,-0.001914350,0.017399590,-0.095324174,9.769727707
1784239788.170167,-0.007317016,-0.000043533,1.893300533,0.000103343,-0.000970875,-0.002272725,0.038899031,-0.133492172,9.805818558
1784239788.172158,-0.007319747,-0.000045169,1.893300533,0.000345387,-0.000982441,-0.001828687,0.015795181,-0.115582831,9.786184311
1784239788.174164,-0.007319747,-0.000045169,1.893300533,0.000124919,-0.000809142,-0.001089637,0.000445700,-0.084615372,9.806544304
1784239788.176157,-0.007319867,-0.000045546,1.893300533,0.000130358,-0.000326141,-0.000314322,-0.041451622,-0.061190780,9.801274300
1784239788.178163,-0.007319867,-0.000045546,1.893300533,0.000586476,0.000091291,0.000504297,-0.016242882,-0.056006841,9.782949448
1784239788.180157,-0.007319867,-0.000045546,1.893300533,0.000410127,0.000202216,0.001207078,-0.023439899,-0.058081526,9.772618294
1784239788.182163,-0.007319124,-0.000045268,1.893300533,-0.000118793,0.000017907,0.001626674,-0.031860352,-0.051065270,9.746203423
1784239788.184168,-0.007319124,-0.000045268,1.893300533,-0.000286137,0.000006398,0.002077791,0.012965178,-0.051993132,9.796004295
1784239788.186167,-0.007317250,-0.000046141,1.893300533,-0.000114442,0.000355939,0.002228367,0.038518827,-0.017339149,9.791320801
1784239788.188175,-0.007317250,-0.000046141,1.893300533,0.000262905,0.000448187,0.001958468,0.006418952,-0.036673035,9.795648575
1784239788.190184,-0.007317250,-0.000046141,1.893300533,0.000226530,0.000141204,0.001687063,0.000829332,-0.052813314,9.807197571
1784239788.192179,-0.007316286,-0.000046138,1.893300533,0.000092422,-0.000009051,0.001453481,-0.000027338,-0.050453905,9.791968346
1784239788.194175,-0.007316286,-0.000046138,1.893300533,0.000237514,0.000493723,0.000817769,0.011740297,-0.080098256,9.781029701
1784239788.196173,-0.007317416,-0.000046511,1.893300533,0.000053186,0.000738670,0.000100798,-0.012919511,-0.078012466,9.784157753
1784239788.198177,-0.007317416,-0.000046511,1.893300533,-0.000254338,-0.000017975,-0.000264527,-0.013270622,-0.070346870,9.777929306
1784239788.200181,-0.007317416,-0.000046511,1.893300533,-0.000316495,-0.000660591,-0.000585070,-0.024549561,-0.036339927,9.804587364
1784239788.202181,-0.007315172,-0.000044555,1.893300533,-0.000538430,-0.000783734,-0.000997459,-0.042986467,-0.076442361,9.806553841
1784239788.204185,-0.007315172,-0.000044555,1.893300533,-0.000576738,-0.001110421,-0.001028227,0.003312262,-0.071115658,9.793183327
1784239788.206180,-0.007314672,-0.000044641,1.893300533,-0.000429184,-0.001678936,-0.000294028,0.002337925,-0.077385142,9.794487000
1784239788.208180,-0.007314672,-0.000044641,1.893300533,-0.000753194,-0.001784779,0.000620949,0.010995431,-0.103504144,9.797465324
1784239788.210185,-0.007314672,-0.000044641,1.893300533,-0.001198687,-0.001245439,0.000929565,-0.002345418,-0.055877004,9.802690506
1784239788.212185,-0.007314733,-0.000044438,1.893300533,-0.000870480,-0.000837257,0.000451490,-0.008455146,-0.041874740,9.797842026
1784239788.214191,-0.007314733,-0.000044438,1.893300533,-0.000323690,-0.000507332,0.000121940,-0.042267948,-0.053649791,9.813426971
1784239788.216187,-0.007313802,-0.000041178,1.893300533,-0.000666160,-0.000065321,0.000585833,-0.037002813,-0.065197244,9.789595604
1784239788.218187,-0.007313802,-0.000041178,1.893300533,-0.001155228,-0.000067378,0.001354832,0.030772058,-0.064279892,9.790562630
1784239788.220202,-0.007313802,-0.000041178,1.893300533,-0.001077819,-0.000179113,0.001517975,0.013654506,-0.070262931,9.780645370
1784239788.222218,-0.007312860,-0.000041778,1.893300533,-0.000891557,0.000009073,0.001476064,0.007361292,-0.033898197,9.781768799
1784239788.224208,-0.007312860,-0.000041778,1.893300533,-0.000752964,0.000398564,0.001374736,-0.008627063,-0.017799923,9.815032959
1784239788.226233,-0.007309507,-0.000039847,1.893300653,-0.000454271,0.000449726,0.000722281,-0.040485460,-0.056201566,9.790993690
1784239788.228218,-0.007309507,-0.000039847,1.893300653,0.000010694,-0.000002866,0.000443207,-0.031633630,-0.066197142,9.794526100
1784239788.230201,-0.007309507,-0.000039847,1.893300653,0.000262137,-0.000008644,0.000404038,0.007608936,-0.086454697,9.800263405
1784239788.232229,-0.007310758,-0.000040061,1.893300533,0.000069394,0.000263292,0.000033460,-0.012245070,-0.058809936,9.791901588
1784239788.234210,-0.007310758,-0.000040061,1.893300533,-0.000379882,0.000320841,-0.000255828,0.004428429,-0.090779603,9.784092903
1784239788.236212,-0.007312464,-0.000040325,1.893300533,-0.000238001,0.000267931,-0.000502457,-0.018792797,-0.079875827,9.804762840
1784239788.238222,-0.007312464,-0.000040325,1.893300533,0.000298265,0.000082164,-0.000916930,-0.012892923,-0.074965768,9.796730042
1784239788.240218,-0.007312464,-0.000040325,1.893300533,0.000745052,0.000143557,-0.001109374,-0.005114753,-0.100120097,9.791644096
1784239788.242220,-0.007313177,-0.000040071,1.893300533,0.001014861,0.000150227,-0.000816623,0.022890238,-0.087259911,9.759922028
1784239788.244226,-0.007313177,-0.000040071,1.893300533,0.000790411,-0.000256127,-0.000317489,0.022669353,-0.066003233,9.795475960
1784239788.246239,-0.007312273,-0.000040758,1.893300533,0.000590418,-0.000570090,0.000100123,-0.005341969,-0.045781299,9.774507523
1784239788.248219,-0.007312273,-0.000040758,1.893300533,0.000679390,-0.000889786,0.000151489,0.002690094,-0.010267898,9.806573868
1784239788.250217,-0.007312273,-0.000040758,1.893300533,0.000817022,-0.001069689,0.000225423,-0.025063507,-0.004933000,9.799407959
1784239788.252255,-0.007308350,-0.000038926,1.893300653,0.000758622,-0.000751158,0.000624521,-0.010398813,-0.019215828,9.765257835
1784239788.254234,-0.007308350,-0.000038926,1.893300653,0.000247447,-0.000475403,0.000481515,-0.010389376,-0.053489197,9.796422958
1784239788.256234,-0.007307420,-0.000038218,1.893300653,-0.000124784,-0.000361639,-0.000092496,0.026485788,-0.085638076,9.777420044
1784239788.258229,-0.007307420,-0.000038218,1.893300653,0.000275261,-0.000122678,-0.000725342,0.049053706,-0.109498717,9.815844536
1784239788.260235,-0.007307420,-0.000038218,1.893300653,0.000604254,0.000247105,-0.000878333,0.048412994,-0.089224033,9.801179886
1784239788.262239,-0.007309197,-0.000040738,1.893300653,0.000351617,0.000266154,-0.000396253,-0.000786308,-0.076807909,9.781933784
1784239788.264236,-0.007309197,-0.000040738,1.893300653,-0.000107341,-0.000111548,-0.000282354,-0.016392251,-0.066507079,9.810679436
1784239788.266232,-0.007309166,-0.000040165,1.893300653,-0.000186391,-0.000086343,0.000272046,-0.041294713,-0.049009971,9.789245605
1784239788.268248,-0.007309166,-0.000040165,1.893300653,0.000049645,0.000342501,0.000732829,-0.026438050,-0.079914816,9.824032784
1784239788.270241,-0.007309166,-0.000040165,1.893300653,0.000133608,0.000644501,-0.000014801,-0.015979748,-0.070445910,9.796755791
1784239788.272237,-0.007309444,-0.000039178,1.893300653,0.000046218,0.000523569,-0.000471319,-0.023608426,-0.033574630,9.792054176
1784239788.274245,-0.007309444,-0.000039178,1.893300653,-0.000543111,0.000385149,-0.000480070,-0.008882330,-0.041293845,9.779912949
1784239788.276241,-0.007308390,-0.000039321,1.893300653,-0.001239224,0.000700948,-0.000448444,0.002445635,-0.070455879,9.764941216
1784239788.278240,-0.007308390,-0.000039321,1.893300653,-0.001223052,0.000835256,-0.000407055,-0.009814441,-0.081172526,9.781897545
1784239788.280243,-0.007308390,-0.000039321,1.893300653,-0.000905157,0.000804135,-0.000431291,-0.004470642,-0.085209586,9.772910118
1784239788.282250,-0.007309036,-0.000039039,1.893300653,-0.000869285,0.001106674,-0.000303032,0.000011832,-0.086518750,9.759904861
1784239788.284267,-0.007309036,-0.000039039,1.893300653,-0.000698692,0.001325070,-0.000137170,-0.007585885,-0.080508851,9.810596466
1784239788.286245,-0.007309359,-0.000038390,1.893300653,0.000234129,0.000972580,-0.000198426,0.016227910,-0.042155974,9.792932510
1784239788.288246,-0.007309359,-0.000038390,1.893300653,0.001053008,0.000158200,-0.000552816,-0.008106500,-0.048749354,9.818869591
1784239788.290254,-0.007309359,-0.000038390,1.893300653,0.000655580,-0.000388351,-0.000812304,-0.021766897,-0.065145083,9.817853928
1784239788.292274,-0.007309111,-0.000037537,1.893300653,-0.000228156,-0.000511441,-0.000784128,-0.008110070,-0.049588043,9.810793877
1784239788.294260,-0.007309111,-0.000037537,1.893300653,-0.000596558,-0.000173317,-0.000562212,0.025055293,-0.016375680,9.806108475
1784239788.296292,-0.007307153,-0.000038576,1.893300653,-0.000753515,0.000429351,-0.000001246,0.039444022,-0.051884379,9.796030998
1784239788.298263,-0.007307153,-0.000038576,1.893300653,-0.000947258,0.000308612,0.000837410,-0.029081585,-0.075848676,9.824056625
1784239788.300270,-0.007307153,-0.000038576,1.893300653,-0.000716769,-0.000486429,0.001625532,0.030427335,-0.055753347,9.789272308
1784239788.302268,-0.007307029,-0.000039735,1.893300653,-0.000150464,-0.001033241,0.002092173,-0.008469127,-0.043606173,9.789313316
1784239788.304268,-0.007307029,-0.000039735,1.893300653,0.000035462,-0.000882638,0.001369757,-0.019323880,-0.048198994,9.824691772
1784239788.306268,-0.007306116,-0.000038850,1.893300653,-0.000457947,-0.000458608,0.000591512,0.000325562,-0.057700165,9.802231789
1784239788.308265,-0.007306116,-0.000038850,1.893300653,-0.000695628,-0.000355763,0.001124774,-0.006542036,-0.068422221,9.810227394
1784239788.310398,-0.007306116,-0.000038850,1.893300653,-0.000254316,-0.000340578,0.001369479,-0.023804987,-0.049310513,9.800022125
1784239788.312344,-0.007305502,-0.000038320,1.893300653,0.000360865,-0.000006373,0.001170923,0.015316814,-0.042252582,9.808174133
1784239788.314313,-0.007305502,-0.000038320,1.893300653,0.000936874,0.000309039,0.000810259,-0.003089133,-0.043710146,9.794248581
1784239788.316329,-0.007304402,-0.000038185,1.893300653,0.001247977,0.000364861,-0.000247902,0.001848366,-0.080944009,9.791773796
1784239788.318298,-0.007304402,-0.000038185,1.893300653,0.001400301,0.000261228,-0.000839165,0.006900389,-0.069957666,9.812920570
1784239788.320302,-0.007304402,-0.000038185,1.893300653,0.001453840,0.000090710,-0.000349872,0.004734444,-0.064048193,9.804886818
1784239788.322310,-0.007304517,-0.000038776,1.893300653,0.001076262,-0.000153463,-0.000247483,0.012445583,-0.058220685,9.790583611
1784239788.324326,-0.007304517,-0.000038776,1.893300653,0.000784858,-0.000361740,-0.001057628,-0.009755991,-0.113437846,9.782588005
1784239788.326360,-0.007307466,-0.000038058,1.893300653,0.000897783,-0.000482525,-0.001394395,-0.027541293,-0.098549157,9.800149918
1784239788.328290,-0.007307466,-0.000038058,1.893300653,0.000432982,-0.000786584,-0.000667002,-0.034170531,-0.051157717,9.826452255
1784239788.330300,-0.007307466,-0.000038058,1.893300653,0.000055727,-0.001136542,0.000331466,-0.026122032,-0.055130694,9.803568840
1784239788.332298,-0.007306778,-0.000037056,1.893300653,0.000291262,-0.001088897,0.000718352,0.022685003,-0.065069154,9.790102959
1784239788.334298,-0.007306778,-0.000037056,1.893300653,0.000017495,-0.000612424,0.000189617,-0.003831528,-0.067907006,9.795886993
1784239788.336293,-0.007306362,-0.000036774,1.893300653,-0.000720660,0.000082365,-0.000176429,-0.007702399,-0.053565025,9.802251816
1784239788.338292,-0.007306362,-0.000036774,1.893300653,-0.001173269,0.000276626,0.000367640,-0.009038145,-0.051844962,9.814814568
1784239788.340297,-0.007306362,-0.000036774,1.893300653,-0.001070299,0.000305372,0.000782100,-0.001902300,-0.056737334,9.796857834
1784239788.342290,-0.007305695,-0.000036665,1.893300653,-0.000287395,0.000448327,0.000490124,-0.011865931,-0.063822754,9.803079605
1784239788.344299,-0.007305695,-0.000036665,1.893300653,0.000552898,0.000423895,0.000222980,-0.023047742,-0.024185920,9.793907166
1784239788.346303,-0.007302654,-0.000034952,1.893300533,0.000801396,0.000352258,0.000641252,0.012050338,-0.053335056,9.797340393
1784239788.348307,-0.007302654,-0.000034952,1.893300533,0.000727689,0.000176160,0.001053175,0.025540866,-0.051248651,9.794675827
1784239788.350298,-0.007302654,-0.000034952,1.893300533,0.000387977,0.000269273,0.000974947,-0.005469020,-0.055700030,9.783409119
1784239788.352299,-0.007302092,-0.000035195,1.893300533,-0.000109122,0.000646226,0.000847077,-0.009665690,-0.067435183,9.803056717
1784239788.354303,-0.007302092,-0.000035195,1.893300533,0.000181835,0.001041998,0.000394602,0.023400517,-0.080295429,9.787762642
1784239788.356311,-0.007302318,-0.000036439,1.893300533,0.001059829,0.000965693,-0.000351186,0.025750367,-0.070974231,9.795895576
1784239788.358303,-0.007302318,-0.000036439,1.893300533,0.001255654,0.000154608,-0.000195379,0.005595649,-0.067992762,9.790964127
1784239788.360311,-0.007302318,-0.000036439,1.893300533,0.000839472,-0.000163566,0.000460311,0.003784157,-0.068506762,9.803510666
1784239788.362340,-0.007302159,-0.000036033,1.893300533,0.000288984,0.000112177,0.000795994,0.001061904,-0.071140960,9.800803185
1784239788.364380,-0.007302159,-0.000036033,1.893300533,0.000408623,-0.000121885,0.000605697,-0.023798607,-0.086039521,9.798440933
1784239788.366319,-0.007303068,-0.000034700,1.893300533,0.001017329,-0.000602567,0.000231494,-0.044904236,-0.049526412,9.805380821
1784239788.368319,-0.007303068,-0.000034700,1.893300533,0.001261998,-0.000862814,0.000320112,-0.007697274,-0.051903550,9.820644379
1784239788.370319,-0.007303068,-0.000034700,1.893300533,0.001554087,-0.000619876,0.000098432,0.007593635,-0.051822394,9.781654358
1784239788.372322,-0.007301928,-0.000035028,1.893300533,0.001608489,-0.000045098,-0.000079147,0.010568497,-0.028146749,9.786292076
1784239788.374322,-0.007301928,-0.000035028,1.893300533,0.001105153,0.000430485,0.000278341,0.015852166,-0.036711097,9.784001350
1784239788.376315,-0.007301003,-0.000036225,1.893300533,0.000846718,0.000722663,0.000394223,0.015522919,-0.062410224,9.807148933
1784239788.378320,-0.007301003,-0.000036225,1.893300533,0.001380930,0.000855946,0.000443243,-0.010240573,-0.040561918,9.805471420
1784239788.380334,-0.007301003,-0.000036225,1.893300533,0.002344045,0.000515093,0.000441321,-0.039201211,-0.061975546,9.781544685
1784239788.382326,-0.007300375,-0.000034688,1.893300653,0.002773825,0.000198053,0.000384951,-0.031001883,-0.050168496,9.807630539
1784239788.384336,-0.007300375,-0.000034688,1.893300653,0.002188539,0.000446087,0.000128506,0.015480399,-0.030424353,9.782695770
1784239788.386324,-0.007298620,-0.000035732,1.893300653,0.001545192,0.000576557,-0.000293610,0.003019613,-0.058125380,9.794162750
1784239788.388332,-0.007298620,-0.000035732,1.893300653,0.001593933,0.000088389,-0.000332767,0.005882312,-0.081840791,9.784598351
1784239788.390331,-0.007298620,-0.000035732,1.893300653,0.001360767,-0.000187915,-0.001083350,0.011912460,-0.066986553,9.764077187
1784239788.392336,-0.007298566,-0.000036373,1.893300653,0.000582928,0.000124543,-0.002151748,-0.006580543,-0.073994525,9.774773598
1784239788.394338,-0.007298566,-0.000036373,1.893300653,-0.000188315,0.000024741,-0.002011572,0.000844729,-0.091902606,9.759422302
1784239788.396342,-0.007299562,-0.000036765,1.893300653,-0.000608581,-0.000214804,-0.001368605,-0.005274475,-0.074733190,9.813327789
1784239788.398372,-0.007299562,-0.000036765,1.893300653,-0.000099092,-0.000182779,-0.000789453,-0.013021919,-0.048120506,9.802282333
1784239788.400349,-0.007299562,-0.000036765,1.893300653,0.000219584,-0.000066894,-0.000692047,-0.012553312,-0.047563825,9.786144257
1784239788.402321,-0.007298902,-0.000036538,1.893300653,-0.000177095,0.000279395,-0.001126079,-0.001669313,-0.037471831,9.796532631
1784239788.404344,-0.007298902,-0.000036538,1.893300653,-0.000701754,0.000532544,-0.001171859,0.017374972,-0.059954945,9.773541451
1784239788.406346,-0.007298440,-0.000037141,1.893300533,-0.001432044,0.000446519,-0.000521300,0.013386595,-0.091425203,9.795752525
1784239788.408346,-0.007298440,-0.000037141,1.893300533,-0.001493274,0.000433104,-0.000100508,0.013666934,-0.069354281,9.778857231
1784239788.410344,-0.007298440,-0.000037141,1.893300533,-0.000989844,0.000834393,-0.000278203,-0.006939063,-0.063955940,9.812945366
1784239788.412359,-0.007297154,-0.000036494,1.893300533,-0.000462401,0.000962338,-0.000300002,0.014117301,-0.104910515,9.800598145
1784239788.414359,-0.007297154,-0.000036494,1.893300533,0.000025804,0.000727893,0.000097649,-0.001685247,-0.037192397,9.820296288
1784239788.416355,-0.007295892,-0.000036259,1.893300533,0.000725635,0.000642612,0.000514720,-0.003657571,-0.051539131,9.825133324
1784239788.418354,-0.007295892,-0.000036259,1.893300533,0.001310462,0.000691546,0.000187476,-0.007121009,-0.078360647,9.822715759
1784239788.420352,-0.007295892,-0.000036259,1.893300533,0.001036912,0.001168821,-0.000392553,0.014953259,-0.073085591,9.797216415
1784239788.422424,-0.007295742,-0.000037010,1.893300533,0.000510036,0.001479506,-0.000075701,0.017061885,-0.086336955,9.766647339
1784239788.424372,-0.007295742,-0.000037010,1.893300533,0.000281364,0.001107313,0.000621382,-0.001573346,-0.067414671,9.785581589
1784239788.426382,-0.007295377,-0.000036559,1.893300533,0.000316383,0.000980982,0.000642927,-0.010086769,-0.064779826,9.808455467
1784239788.428377,-0.007295377,-0.000036559,1.893300533,0.000054166,0.000948487,0.000261358,-0.011830830,-0.061519347,9.794126511
1784239788.430375,-0.007295377,-0.000036559,1.893300533,-0.000972599,0.000520841,-0.000182656,0.017541671,-0.081234261,9.804339409
1784239788.432369,-0.007295539,-0.000036894,1.893300533,-0.001556811,0.000297756,-0.000541467,0.003118586,-0.084802493,9.828064919
1784239788.434371,-0.007295539,-0.000036894,1.893300533,-0.001329120,0.000274404,-0.001162079,-0.014714263,-0.078799531,9.772045135
1784239788.436374,-0.007296230,-0.000036047,1.893300533,-0.001565001,-0.000116037,-0.001653012,0.001530743,-0.070987724,9.778387070
1784239788.438378,-0.007296230,-0.000036047,1.893300533,-0.002030639,-0.000671384,-0.001344710,0.003201603,-0.047367591,9.730120659
1784239788.440372,-0.007296230,-0.000036047,1.893300533,-0.002164738,-0.000572190,-0.001441915,-0.003159512,-0.051560406,9.764160156
1784239788.442380,-0.007295519,-0.000035632,1.893300533,-0.002022823,-0.000193315,-0.002034141,0.022544546,-0.076309510,9.795858383
1784239788.444389,-0.007295519,-0.000035632,1.893300533,-0.001739777,0.000147880,-0.001670644,0.004202646,-0.071587823,9.794973373
1784239788.446438,-0.007295854,-0.000035809,1.893300533,-0.001606184,0.000519009,-0.000719304,0.017004009,-0.088414975,9.806983948
1784239788.448382,-0.007295854,-0.000035809,1.893300533,-0.001747553,0.000380067,-0.000371906,0.012744271,-0.071163245,9.782880783
1784239788.450382,-0.007295854,-0.000035809,1.893300533,-0.001456388,-0.000084609,-0.000246592,-0.023186835,-0.072600074,9.797631264
1784239788.452384,-0.007295974,-0.000035219,1.893300533,-0.000413735,-0.000487402,0.000062281,-0.012187008,-0.053488456,9.799558640
1784239788.454389,-0.007295974,-0.000035219,1.893300533,0.000654888,-0.000657285,0.000144057,-0.003971409,-0.078737572,9.807024956
1784239788.456392,-0.007296099,-0.000035044,1.893300533,0.001074078,-0.000561289,0.000222335,-0.012476783,-0.076039135,9.820933342
1784239788.458391,-0.007296099,-0.000035044,1.893300533,0.000853570,-0.000577232,0.000530771,-0.005415102,-0.051627047,9.777606964
1784239788.460393,-0.007296099,-0.000035044,1.893300533,0.000727552,-0.000680655,0.000989680,0.022313703,-0.021999333,9.782756805
1784239788.462400,-0.007294053,-0.000036301,1.893300533,0.000819770,-0.000417215,0.001524741,-0.020498354,-0.036289930,9.790245056
1784239788.464405,-0.007294053,-0.000036301,1.893300533,0.001034424,-0.000027130,0.001627036,-0.009794245,-0.078986779,9.789533615
1784239788.466395,-0.007294519,-0.000036017,1.893300533,0.000703308,0.000193955,0.001104722,0.030750997,-0.065661937,9.795933723
1784239788.468405,-0.007294519,-0.000036017,1.893300533,-0.000062834,0.000236561,0.000415846,0.007876850,-0.065292403,9.785154343
1784239788.470421,-0.007294519,-0.000036017,1.893300533,-0.000209577,-0.000080703,0.000219601,-0.012161396,-0.050854743,9.807197571
1784239788.472561,-0.007293140,-0.000035405,1.893300533,0.000568347,-0.000341580,0.000438915,0.003323657,-0.069809921,9.798571587
1784239788.474425,-0.007293140,-0.000035405,1.893300533,0.001139953,-0.000169149,0.000185519,-0.009950710,-0.129564449,9.782483101
1784239788.476418,-0.007295184,-0.000035057,1.893300533,0.000384738,0.000205633,-0.000414742,0.012193669,-0.077635638,9.811979294
1784239788.478460,-0.007295184,-0.000035057,1.893300533,-0.000634671,0.000660832,-0.000382410,-0.021231258,-0.060817111,9.775292397
1784239788.480426,-0.007295184,-0.000035057,1.893300533,-0.001053304,0.000950292,0.000074667,-0.014555674,-0.064579241,9.788276672
1784239788.482428,-0.007295444,-0.000033741,1.893300653,-0.001182960,0.000637737,0.000332798,-0.025088200,-0.043933623,9.802296638
1784239788.484427,-0.007295444,-0.000033741,1.893300653,-0.001350486,0.000251385,0.000104652,-0.020983428,-0.075377010,9.806134224
1784239788.486454,-0.007296145,-0.000032713,1.893300653,-0.001273849,-0.000085212,-0.000224008,0.006333899,-0.079797521,9.811511993
1784239788.488433,-0.007296145,-0.000032713,1.893300653,-0.000551189,-0.000395481,0.000169077,-0.000745681,-0.072839856,9.790925980
1784239788.490459,-0.007296145,-0.000032713,1.893300653,0.000179717,0.000090610,0.001380370,0.020328894,-0.036444638,9.801491737
1784239788.492445,-0.007294776,-0.000033265,1.893300653,0.000266277,0.001042618,0.002409822,0.015866838,-0.036190007,9.773692131
1784239788.494462,-0.007294776,-0.000033265,1.893300653,0.000109484,0.001381078,0.002742247,0.013900848,-0.048865724,9.795578003
1784239788.496439,-0.007293929,-0.000033269,1.893300653,-0.000066449,0.000926671,0.002926257,-0.053145211,-0.062067583,9.819638252
1784239788.498436,-0.007293929,-0.000033269,1.893300653,0.000021888,0.000399632,0.002355537,-0.037509631,-0.069702908,9.794050217
1784239788.500442,-0.007293929,-0.000033269,1.893300653,0.000288585,0.000092367,0.000821310,-0.010209903,-0.038293496,9.801451683
1784239788.502439,-0.007291005,-0.000032435,1.893300533,0.000122607,0.000033299,-0.000115494,0.009245223,-0.063918084,9.778439522
1784239788.504448,-0.007291005,-0.000032435,1.893300533,-0.000284028,0.000492457,-0.000001323,0.041970808,-0.063356377,9.829585075
1784239788.506444,-0.007290246,-0.000034756,1.893300533,-0.000325956,0.000949757,0.000155146,0.035652958,-0.032049213,9.785842896
1784239788.508452,-0.007290246,-0.000034756,1.893300533,-0.000308216,0.000654615,-0.000095329,0.015735827,-0.044113770,9.817129135
1784239788.510444,-0.007290246,-0.000034756,1.893300533,-0.000393533,-0.000174405,0.000224077,-0.001174706,-0.071868233,9.781069756
1784239788.512449,-0.007290144,-0.000034708,1.893300533,-0.000241509,-0.000892737,0.001124380,0.002830996,-0.037424397,9.781741142
1784239788.514454,-0.007290144,-0.000034708,1.893300533,-0.000267444,-0.000816713,0.001151550,0.013713320,-0.064125016,9.799514771
1784239788.516457,-0.007290006,-0.000035083,1.893300533,-0.000403876,-0.000142003,0.000181758,-0.010209862,-0.076693527,9.782822609
1784239788.518452,-0.007290006,-0.000035083,1.893300533,-0.000381369,0.000003782,-0.000129319,-0.001869794,-0.054859646,9.784764290
1784239788.520450,-0.007290006,-0.000035083,1.893300533,-0.000426407,-0.000362756,0.000525873,0.030937323,-0.050412178,9.793342590
1784239788.522459,-0.007288449,-0.000036403,1.893300533,-0.000205843,-0.000666845,0.000732592,0.004578725,-0.079056285,9.773406029
1784239788.524458,-0.007288449,-0.000036403,1.893300533,0.000173412,-0.000764070,0.000775913,-0.014358884,-0.083999954,9.809672356
1784239788.526496,-0.007288882,-0.000035591,1.893300533,0.000543884,-0.000528708,0.000610758,-0.018082049,-0.058360368,9.802211761
1784239788.528470,-0.007288882,-0.000035591,1.893300533,0.000707201,-0.000281226,0.000021351,0.001490180,-0.072929010,9.799446106
1784239788.530466,-0.007288882,-0.000035591,1.893300533,0.000390775,-0.000152564,-0.000029916,-0.017046433,-0.046743955,9.804977417
1784239788.532470,-0.007288384,-0.000034873,1.893300533,0.000353937,-0.000529235,-0.000015422,0.000524873,-0.078721926,9.796718597
1784239788.534469,-0.007288384,-0.000034873,1.893300533,0.000485938,-0.001217781,-0.000259644,0.011075424,-0.060014356,9.793262482
1784239788.536465,-0.007288163,-0.000035379,1.893300533,0.000279431,-0.001319137,-0.000598274,0.014124898,-0.104040034,9.804190636
1784239788.538469,-0.007288163,-0.000035379,1.893300533,0.000370307,-0.000854493,-0.001022097,-0.007840845,-0.064789496,9.805765152
1784239788.540473,-0.007288163,-0.000035379,1.893300533,0.000749531,0.000090158,-0.000929833,-0.009703542,-0.032980941,9.809555054
1784239788.542476,-0.007286185,-0.000034396,1.893300533,0.001043241,0.000794035,-0.000519520,-0.000514879,-0.053996868,9.787013054
1784239788.544477,-0.007286185,-0.000034396,1.893300533,0.000892004,0.000933974,-0.000421839,-0.021073477,-0.081356302,9.828064919
1784239788.546476,-0.007286408,-0.000033390,1.893300533,0.000436633,0.000860313,-0.000460517,-0.009158470,-0.062926345,9.798155785
1784239788.548478,-0.007286408,-0.000033390,1.893300533,0.000389078,0.000353054,-0.000400510,0.018428499,-0.044955157,9.804574013
1784239788.550477,-0.007286408,-0.000033390,1.893300533,0.000370308,-0.000302312,-0.000737451,0.014424469,-0.042606376,9.796514511
1784239788.552480,-0.007284919,-0.000033748,1.893300533,0.000281220,-0.001084360,-0.001074985,0.038089566,-0.053554043,9.781224251
1784239788.554490,-0.007284919,-0.000033748,1.893300533,0.000305220,-0.001676352,-0.000779303,0.022412097,-0.049086243,9.811277390
1784239788.556489,-0.007283777,-0.000035076,1.893300533,-0.000032906,-0.001493465,-0.000290269,0.011225536,-0.086287647,9.770228386
1784239788.558487,-0.007283777,-0.000035076,1.893300533,-0.000397658,-0.000655661,-0.000146897,-0.007661956,-0.087593563,9.798896790
1784239788.560489,-0.007283777,-0.000035076,1.893300533,-0.000207861,0.000221297,-0.000292967,0.015170196,-0.054757334,9.802715302
1784239788.562528,-0.007283104,-0.000035875,1.893300533,0.000015084,0.000284591,-0.000619072,-0.001631165,-0.035549622,9.778162956
1784239788.564503,-0.007283104,-0.000035875,1.893300533,-0.000281742,-0.000330428,-0.000842998,0.003365277,-0.027838912,9.819014549
1784239788.566498,-0.007281926,-0.000035277,1.893300533,-0.000568452,-0.000615489,-0.001041433,-0.005734449,-0.040063340,9.790234566
1784239788.568496,-0.007281926,-0.000035277,1.893300533,-0.000531518,0.000059256,-0.001686134,0.002342660,-0.038136877,9.819845200
1784239788.570522,-0.007281926,-0.000035277,1.893300533,-0.001099191,0.000667422,-0.002517124,-0.000886128,-0.046490245,9.803199768
1784239788.572506,-0.007280149,-0.000035126,1.893300533,-0.002045073,0.000483133,-0.002621381,0.019210344,-0.092789769,9.788127899
1784239788.574512,-0.007280149,-0.000035126,1.893300533,-0.002590743,0.000431685,-0.001776000,0.038370136,-0.066639699,9.793694496
1784239788.576504,-0.007279496,-0.000036789,1.893300533,-0.002500291,0.000423503,-0.000924537,0.010144532,-0.062293541,9.800418854
1784239788.578503,-0.007279496,-0.000036789,1.893300533,-0.002092101,0.000235741,-0.000611604,0.014093089,-0.069538102,9.803963661
1784239788.580503,-0.007279496,-0.000036789,1.893300533,-0.001646747,0.000403460,-0.000399757,0.001615217,-0.063026175,9.792784691
1784239788.582515,-0.007279727,-0.000036738,1.893300533,-0.001356174,0.000741886,-0.000226225,0.009034699,-0.040958576,9.826558113
1784239788.584530,-0.007279727,-0.000036738,1.893300533,-0.001363721,0.000757464,-0.000209755,-0.015694041,-0.044280112,9.834135056
1784239788.586512,-0.007278597,-0.000035937,1.893300533,-0.001296596,0.000768805,-0.000324004,-0.018177921,-0.067627646,9.782424927
1784239788.588514,-0.007278597,-0.000035937,1.893300533,-0.001086628,0.000596113,-0.000534348,0.000145400,-0.071685523,9.816040993
1784239788.590513,-0.007278597,-0.000035937,1.893300533,-0.000576977,-0.000001075,-0.000761849,0.025245909,-0.074650735,9.809770584
1784239788.592523,-0.007278868,-0.000036917,1.893300533,-0.000095752,-0.000293533,-0.000890508,0.008247758,-0.070775442,9.799465179
1784239788.594525,-0.007278868,-0.000036917,1.893300533,0.000040503,-0.000182503,-0.000621733,-0.028368540,-0.055530827,9.800873756
1784239788.596590,-0.007278242,-0.000035606,1.893300533,-0.000041375,-0.000170555,-0.000607123,-0.022335224,-0.039841082,9.788875580
1784239788.598544,-0.007278242,-0.000035606,1.893300533,0.000093801,-0.000576826,-0.000779001,0.024060985,-0.025234370,9.793496132
1784239788.600531,-0.007278242,-0.000035606,1.893300533,0.000645275,-0.000682561,-0.000433086,-0.003518440,-0.041525003,9.802782059
1784239788.602580,-0.007276547,-0.000035371,1.893300533,0.001090888,-0.000075317,-0.000303570,0.002970933,-0.062157039,9.794137001
1784239788.604543,-0.007276547,-0.000035371,1.893300533,0.001148942,0.000609231,-0.001074781,0.002231528,-0.085925020,9.798466682
1784239788.606541,-0.007277133,-0.000035395,1.893300533,0.000643873,0.000611059,-0.001838808,-0.006329662,-0.088935621,9.796197891
1784239788.608534,-0.007277133,-0.000035395,1.893300533,0.000016648,0.000161886,-0.001856761,-0.007847121,-0.067270577,9.776609421
1784239788.610543,-0.007277133,-0.000035395,1.893300533,-0.000527213,0.000264487,-0.001362132,-0.002776820,-0.093324490,9.776895523
1784239788.612535,-0.007277478,-0.000035619,1.893300533,-0.001190203,0.000755868,-0.000963799,0.000056540,-0.118082099,9.787946701
1784239788.614544,-0.007277478,-0.000035619,1.893300533,-0.001314933,0.000786428,-0.000747080,-0.004092635,-0.050615199,9.822000504
1784239788.616542,-0.007276645,-0.000035120,1.893300533,-0.000868961,0.000263701,-0.000717749,-0.024429994,-0.063664943,9.803515434
1784239788.618578,-0.007276645,-0.000035120,1.893300533,-0.000761092,-0.000132427,-0.000750966,-0.033221804,-0.047521934,9.817509651
1784239788.620560,-0.007276645,-0.000035120,1.893300533,-0.000861030,-0.000185752,-0.000665827,-0.010947066,-0.062449023,9.797259331
1784239788.622571,-0.007276556,-0.000034493,1.893300533,-0.000608928,-0.000194427,-0.000224032,-0.001619652,-0.033027198,9.801491737
1784239788.624554,-0.007276556,-0.000034493,1.893300533,-0.000443812,-0.000114203,0.000693973,-0.009190162,-0.027207710,9.815870285
1784239788.626579,-0.007274714,-0.000034015,1.893300533,-0.000482902,0.000199496,0.001111174,-0.014319520,-0.044478226,9.796475410
1784239788.628562,-0.007274714,-0.000034015,1.893300533,-0.000383911,0.000428972,0.001036221,-0.027462384,-0.053852230,9.815233231
1784239788.630573,-0.007274714,-0.000034015,1.893300533,-0.000421271,0.000559776,0.001233967,-0.034746878,-0.064317361,9.787811279
1784239788.632559,-0.007274166,-0.000032961,1.893300533,-0.000737693,0.000710854,0.001594495,-0.018780934,-0.041787028,9.804110527
1784239788.634562,-0.007274166,-0.000032961,1.893300533,-0.000445049,0.000654829,0.001604317,-0.016079981,-0.077721395,9.811951637
1784239788.636564,-0.007274813,-0.000032275,1.893300533,0.000330875,0.000736266,0.001233960,0.017292459,-0.067090526,9.769012451
1784239788.638568,-0.007274813,-0.000032275,1.893300533,0.000299055,0.000713362,0.000746130,0.021733856,-0.068724014,9.801733971
1784239788.640561,-0.007274813,-0.000032275,1.893300533,-0.000233812,0.000378297,0.000370115,0.023319677,-0.050638396,9.775848389
1784239788.642567,-0.007274536,-0.000034021,1.893300533,-0.000512206,0.000398914,0.000765759,0.020239238,-0.045257594,9.780812263
1784239788.644569,-0.007274536,-0.000034021,1.893300533,-0.000641810,0.000572923,0.001416019,-0.003016182,-0.075860985,9.778800011
1784239788.646569,-0.007275479,-0.000033342,1.893300533,-0.000847319,0.000361668,0.001436372,-0.008571793,-0.088490702,9.800683022
1784239788.648570,-0.007275479,-0.000033342,1.893300533,-0.000765227,-0.000100494,0.001413746,-0.030670406,-0.062446889,9.769444466
1784239788.650568,-0.007275479,-0.000033342,1.893300533,-0.000324567,-0.000315729,0.001470753,0.010198503,-0.059030630,9.782507896
1784239788.652590,-0.007274647,-0.000032381,1.893300533,0.000020249,-0.000003142,0.001244157,0.011202931,-0.085655645,9.807443619
1784239788.654574,-0.007274647,-0.000032381,1.893300533,0.000055034,0.000245793,0.000934444,0.001129861,-0.066146612,9.791419983
1784239788.656575,-0.007274036,-0.000031625,1.893300533,-0.000264325,0.000340307,0.000798049,-0.014637210,-0.071301840,9.788681030
1784239788.658577,-0.007274036,-0.000031625,1.893300533,-0.000277337,0.000693671,0.000881139,0.013081703,-0.041346993,9.810868263
1784239788.660602,-0.007274036,-0.000031625,1.893300533,-0.000271576,0.000786169,0.001392070,0.031890657,-0.046334788,9.785299301
1784239788.662585,-0.007271875,-0.000034406,1.893300533,-0.000437653,0.000223533,0.002067378,-0.010911901,-0.058118861,9.818359375
1784239788.664620,-0.007271875,-0.000034406,1.893300533,-0.000359461,-0.000222716,0.002270617,-0.001443118,-0.053823572,9.827363014
1784239788.666597,-0.007271072,-0.000033666,1.893300533,-0.000713229,-0.000232850,0.001679653,-0.022961497,-0.053394992,9.805824280
1784239788.668585,-0.007271072,-0.000033666,1.893300533,-0.001260235,-0.000254670,0.001176394,-0.043716583,-0.024957281,9.813609123
1784239788.670587,-0.007271072,-0.000033666,1.893300533,-0.001388770,-0.000294131,0.001243317,-0.020663492,-0.048940949,9.805408478
1784239788.672612,-0.007269593,-0.000031783,1.893300533,-0.001099727,-0.000161800,0.000770072,0.014584094,-0.028783172,9.805570602
1784239788.674599,-0.007269593,-0.000031783,1.893300533,-0.000688228,-0.000009805,-0.000187814,0.007971793,-0.057248194,9.787897110
1784239788.676602,-0.007269209,-0.000032383,1.893300533,-0.000590556,-0.000132659,-0.000598418,0.025294416,-0.071025707,9.803965569
1784239788.678604,-0.007269209,-0.000032383,1.893300533,-0.000300309,0.000043476,-0.000570778,-0.004059682,-0.087134369,9.790830612
1784239788.680598,-0.007269209,-0.000032383,1.893300533,0.000272135,0.000078896,-0.000713052,-0.009478173,-0.089765854,9.792603493
1784239788.682605,-0.007269738,-0.000031872,1.893300533,0.000431214,-0.000342389,-0.000837650,-0.020701893,-0.090886511,9.781375885
1784239788.684619,-0.007269738,-0.000031872,1.893300533,0.000202291,-0.000613890,-0.000224749,-0.001366316,-0.051596116,9.765954971
1784239788.686624,-0.007268627,-0.000031836,1.893300533,-0.000431268,-0.000535770,0.000078124,0.008710553,-0.070669904,9.783777237
1784239788.688616,-0.007268627,-0.000031836,1.893300533,-0.000883382,0.000192654,-0.000618121,-0.001785155,-0.084081426,9.798474312
1784239788.690616,-0.007268627,-0.000031836,1.893300533,-0.000742118,0.000824673,-0.000871291,-0.001067118,-0.100908779,9.769227028
1784239788.692614,-0.007270588,-0.000032416,1.893300533,-0.000522101,0.000524654,-0.000536271,0.001250293,-0.056685377,9.783859253
1784239788.694635,-0.007270588,-0.000032416,1.893300533,-0.000134806,-0.000346872,0.000119702,0.005372339,-0.049591996,9.787046432
1784239788.696641,-0.007269809,-0.000032094,1.893300533,0.000058303,-0.000889817,0.000435476,0.043620326,-0.039904762,9.805078506
1784239788.698622,-0.007269809,-0.000032094,1.893300533,-0.000137892,-0.000879755,-0.000307560,0.017855106,-0.054038998,9.822896957
1784239788.700630,-0.007269809,-0.000032094,1.893300533,0.000172962,-0.000680212,-0.000702647,-0.015291777,-0.048705064,9.825588226
1784239788.702625,-0.007268875,-0.000031768,1.893300533,0.000886948,-0.000471648,-0.000411679,-0.001756431,-0.045049012,9.791103363
1784239788.704624,-0.007268875,-0.000031768,1.893300533,0.001277884,-0.000640091,-0.000562738,0.030105911,-0.046232305,9.774090767
1784239788.706621,-0.007267559,-0.000033034,1.893300533,0.001196696,-0.001242619,-0.001037074,0.015219910,-0.051122777,9.795563698
1784239788.708619,-0.007267559,-0.000033034,1.893300533,0.000812296,-0.001607600,-0.001130002,-0.007321489,-0.060995333,9.775305748
1784239788.710623,-0.007267559,-0.000033034,1.893300533,0.000338395,-0.001421083,-0.001249643,-0.003843956,-0.068815656,9.797675133
1784239788.712623,-0.007267697,-0.000032658,1.893300533,0.000107966,-0.000745251,-0.001532178,0.015245168,-0.049302317,9.791541100
1784239788.714627,-0.007267697,-0.000032658,1.893300533,0.000228980,-0.000327030,-0.001900423,-0.007052599,-0.039420076,9.765130043
1784239788.716657,-0.007266655,-0.000032025,1.893300533,-0.000227838,-0.000338145,-0.002550399,-0.013117094,-0.055761281,9.805818558
1784239788.718646,-0.007266655,-0.000032025,1.893300533,-0.000759607,-0.000326872,-0.002897745,0.002164274,-0.054539740,9.795530319
1784239788.720636,-0.007266655,-0.000032025,1.893300533,-0.000574310,-0.000654797,-0.002176948,-0.006424780,-0.062633336,9.751981735
1784239788.722644,-0.007265996,-0.000031166,1.893300533,-0.000368483,-0.000863211,-0.000875345,0.022573831,-0.074457251,9.787351608
1784239788.724637,-0.007265996,-0.000031166,1.893300533,-0.000227629,-0.000239426,-0.000175559,0.007966721,-0.094472878,9.793038368
1784239788.726646,-0.007266879,-0.000031923,1.893300533,-0.000263694,0.000669237,-0.000114757,-0.007333690,-0.097060554,9.806456566
1784239788.728635,-0.007266879,-0.000031923,1.893300533,-0.000219316,0.001098651,-0.000432683,-0.024316357,-0.055067845,9.791465759
1784239788.730635,-0.007266879,-0.000031923,1.893300533,0.000048912,0.001446147,-0.000862291,-0.006994080,-0.069658607,9.795872688
1784239788.732635,-0.007266975,-0.000031531,1.893300533,-0.000065116,0.001557308,-0.000959916,-0.000700908,-0.067623302,9.813376427
1784239788.734640,-0.007266975,-0.000031531,1.893300533,-0.000570074,0.001102308,-0.000944433,-0.012994537,-0.082657412,9.807439804
1784239788.736644,-0.007267593,-0.000030455,1.893300533,-0.001066350,0.000627462,-0.000807794,-0.026893772,-0.080369748,9.825823784
1784239788.738638,-0.007267593,-0.000030455,1.893300533,-0.001154505,0.000511699,-0.000562123,-0.000972094,-0.053247817,9.808536530
1784239788.740640,-0.007267593,-0.000030455,1.893300533,-0.000949461,0.000157021,-0.000799424,0.012844571,-0.061860994,9.797733307
1784239788.742640,-0.007266638,-0.000029722,1.893300533,-0.000512615,-0.000301563,-0.001117368,0.000962879,-0.078406900,9.814654350
1784239788.744651,-0.007266638,-0.000029722,1.893300533,-0.000438999,0.000193746,-0.001146185,-0.049019318,-0.055349030,9.812512398
1784239788.746655,-0.007265481,-0.000027513,1.893300533,-0.000833477,0.000971839,-0.000912840,-0.020540938,-0.075837076,9.807027817
1784239788.748649,-0.007265481,-0.000027513,1.893300533,-0.001179656,0.001055099,-0.001034467,-0.013220964,-0.065902218,9.782889366
1784239788.750652,-0.007265481,-0.000027513,1.893300533,-0.001780116,0.000652303,-0.001252569,0.040742137,-0.057143614,9.777169228
1784239788.752653,-0.007264230,-0.000029153,1.893300533,-0.001911388,0.000300021,-0.001158570,0.034048013,-0.091117702,9.778289795
1784239788.754658,-0.007264230,-0.000029153,1.893300533,-0.001533879,0.000291160,-0.001232376,0.013154346,-0.112711124,9.765130043
1784239788.756663,-0.007266007,-0.000029743,1.893300533,-0.001127395,0.000698376,-0.001464146,0.012397642,-0.099025875,9.795253754
1784239788.758674,-0.007266007,-0.000029743,1.893300533,-0.000685800,0.001188130,-0.001090128,0.024249818,-0.083928786,9.793120384
1784239788.760667,-0.007266007,-0.000029743,1.893300533,-0.000928380,0.001436248,0.000281999,-0.024363879,-0.058279879,9.802206039
1784239788.762675,-0.007265435,-0.000029256,1.893300533,-0.000911705,0.001128383,0.001369424,-0.013962246,-0.050879441,9.813919067
1784239788.764670,-0.007265435,-0.000029256,1.893300533,0.000129535,0.000749349,0.002108218,-0.014086356,-0.059559222,9.837624550
1784239788.766665,-0.007265273,-0.000028831,1.893300533,0.001269989,0.000579871,0.002196328,-0.023908040,-0.056608245,9.818356514
1784239788.768665,-0.007265273,-0.000028831,1.893300533,0.001933972,-0.000077342,0.001535204,0.002971631,-0.060530536,9.817461014
1784239788.770664,-0.007265273,-0.000028831,1.893300533,0.001714381,-0.000386428,0.001035358,0.014054582,-0.075110398,9.768508911
1784239788.772667,-0.007265709,-0.000029609,1.893300533,0.000909621,-0.000099115,0.000420331,0.026693393,-0.069409721,9.763177872
1784239788.774674,-0.007265709,-0.000029609,1.893300533,0.000807367,-0.000308125,-0.000173686,0.020021096,-0.063595384,9.776659012
1784239788.776669,-0.007265716,-0.000030379,1.893300533,0.001004672,-0.000356762,-0.000370738,0.018551107,-0.072661363,9.794084549
1784239788.778671,-0.007265716,-0.000030379,1.893300533,0.000301255,-0.000113956,-0.000369670,-0.014842859,-0.051951095,9.777149200
1784239788.780673,-0.007265716,-0.000030379,1.893300533,-0.000649563,-0.000381331,-0.000534530,-0.027352598,-0.044880290,9.813497543
1784239788.782673,-0.007264501,-0.000029713,1.893300533,-0.001017252,-0.000563276,-0.000383263,-0.021762691,-0.064706661,9.819203377
1784239788.784691,-0.007264501,-0.000029713,1.893300533,-0.001049864,-0.000592797,0.000125020,-0.025810732,-0.063921146,9.842069626
1784239788.786686,-0.007264184,-0.000029097,1.893300533,-0.001253331,-0.000574596,0.000206406,0.013663312,-0.069382906,9.782892227
1784239788.788682,-0.007264184,-0.000029097,1.893300533,-0.001213482,0.000085271,0.000161285,-0.013588475,-0.059987132,9.770821571
1784239788.790684,-0.007264184,-0.000029097,1.893300533,-0.000495771,0.000755325,0.000329135,-0.015466421,-0.063862607,9.815180779
1784239788.792688,-0.007264002,-0.000028942,1.893300533,0.000114135,0.000918971,0.000377534,0.026166389,-0.073264293,9.802156448
1784239788.794690,-0.007264002,-0.000028942,1.893300533,0.000032998,0.000918410,0.000321032,0.029052692,-0.056771927,9.808990479
1784239788.796689,-0.007263444,-0.000029680,1.893300533,-0.000027497,0.000809468,0.000369522,-0.004216020,-0.064152233,9.772597313
1784239788.798693,-0.007263444,-0.000029680,1.893300533,0.000233031,0.000492277,0.000494265,-0.007832506,-0.065939412,9.778410912
1784239788.800697,-0.007263444,-0.000029680,1.893300533,-0.000430373,0.000016536,0.000889301,-0.021004485,-0.076759048,9.811505318
1784239788.802696,-0.007263612,-0.000028717,1.893300533,-0.001370015,-0.000721319,0.001210279,-0.022742562,-0.072640814,9.802564621
1784239788.804698,-0.007263612,-0.000028717,1.893300533,-0.001399105,-0.000956710,0.000923330,-0.048376013,-0.075198010,9.830318451
1784239788.806699,-0.007263746,-0.000027238,1.893300533,-0.001395523,-0.000568820,0.000446670,-0.062966295,-0.021116840,9.812269211
1784239788.808700,-0.007263746,-0.000027238,1.893300533,-0.001845721,-0.000318469,0.000279047,0.006139015,-0.023987653,9.776451111
1784239788.810695,-0.007263746,-0.000027238,1.893300533,-0.002101129,-0.000118763,0.000139095,0.013782536,-0.059931211,9.776677132
1784239788.812696,-0.007262962,-0.000027324,1.893300533,-0.001365557,-0.000036772,-0.000033955,0.010199990,-0.060234610,9.762773514
1784239788.814699,-0.007262962,-0.000027324,1.893300533,-0.000415912,-0.000161718,-0.000124288,0.006291608,-0.048215095,9.780778885
1784239788.816701,-0.007262241,-0.000027330,1.893300533,-0.000194319,-0.000265558,-0.000208965,0.002026045,-0.069004491,9.750603676
1784239788.818705,-0.007262241,-0.000027330,1.893300533,-0.000358601,-0.000320910,-0.000072485,-0.002865831,-0.064947754,9.756005287
1784239788.820709,-0.007262241,-0.000027330,1.893300533,-0.000478474,-0.000379231,0.000026838,0.005690127,-0.061978504,9.764102936
1784239788.822710,-0.007264900,-0.000029207,1.893327117,-0.000421837,-0.000500426,-0.000063100,0.001028675,-0.076266356,9.765501022
1784239788.824712,-0.007264900,-0.000029207,1.893327117,-0.000259720,-0.001006703,0.000284818,0.039595190,-0.038127944,9.814501762
1784239788.826726,-0.007263643,-0.000030547,1.893327117,-0.000212530,-0.001225316,0.000629256,0.008352838,-0.025871834,9.785408020
1784239788.828712,-0.007263643,-0.000030547,1.893327117,-0.000190813,-0.000985578,0.000413031,-0.004621602,-0.020542609,9.815469742
1784239788.830719,-0.007263643,-0.000030547,1.893327117,0.000076515,-0.000957747,0.000273147,-0.011421818,-0.026680132,9.808696747
1784239788.832718,-0.007262471,-0.000030258,1.893327117,0.000254848,-0.000705519,0.000533545,-0.010375459,-0.053784534,9.774898529
1784239788.834718,-0.007262471,-0.000030258,1.893327117,0.000352221,-0.000214662,0.000598539,0.002795322,-0.074890725,9.820955276
1784239788.836715,-0.007262617,-0.000030446,1.893327117,0.000528106,-0.000339760,-0.000078708,-0.007218370,-0.086423948,9.822664261
1784239788.838720,-0.007262617,-0.000030446,1.893327117,0.000269510,-0.001144810,-0.000883549,-0.002652868,-0.082214504,9.789518356
1784239788.840730,-0.007262617,-0.000030446,1.893327117,-0.000175562,-0.001930156,-0.000875673,0.018220367,-0.062403385,9.801323891
1784239788.842720,-0.007262333,-0.000031077,1.893327117,-0.000366047,-0.001785296,-0.000613002,0.010897788,-0.075600788,9.780158997
1784239788.844726,-0.007262333,-0.000031077,1.893327117,-0.000224135,-0.000818501,-0.000470561,-0.010974110,-0.064688839,9.797245026
1784239788.846728,-0.007262030,-0.000030513,1.893327117,0.000185487,-0.000137825,0.000012649,-0.011414812,-0.029056290,9.764744759
1784239788.848726,-0.007262030,-0.000030513,1.893327117,0.000639567,-0.000274164,0.000451647,-0.008459116,-0.042716615,9.790215492
1784239788.850725,-0.007262030,-0.000030513,1.893327117,0.000965336,-0.000911305,0.000425463,0.031184912,-0.067405477,9.788301468
1784239788.852728,-0.007261732,-0.000031124,1.893327117,0.000990080,-0.001011962,0.000209506,0.011708878,-0.083183117,9.773835182
1784239788.854734,-0.007261732,-0.000031124,1.893327117,0.001103483,-0.000548555,0.000416362,-0.017078197,-0.050642058,9.786121368
1784239788.856740,-0.007261009,-0.000030191,1.893327117,0.001417896,-0.000379223,0.001180246,-0.046177726,-0.044883288,9.784785271
1784239788.858736,-0.007261009,-0.000030191,1.893327117,0.001229969,-0.000306807,0.001970456,-0.029009655,-0.035259333,9.786658287
1784239788.860738,-0.007261009,-0.000030191,1.893327117,0.000591722,0.000061324,0.001897210,0.006099137,-0.061892401,9.814316750
1784239788.862742,-0.007260322,-0.000029990,1.893327117,0.000219227,0.000281261,0.000742569,0.014186194,-0.061103147,9.814778328
1784239788.864744,-0.007260322,-0.000029990,1.893327117,-0.000018030,0.000208343,-0.000298389,0.004661484,-0.069487318,9.813817024
1784239788.866747,-0.007260823,-0.000030820,1.893327117,-0.000278192,0.000514046,-0.000711872,0.029215526,-0.045760129,9.772299767
1784239788.868743,-0.007260823,-0.000030820,1.893327117,-0.000145192,0.000480837,-0.000941796,-0.014319401,-0.043261539,9.814416885
1784239788.870750,-0.007260823,-0.000030820,1.893327117,-0.000202362,-0.000318316,-0.000680612,-0.000424420,-0.045177557,9.806796074
1784239788.872746,-0.007259318,-0.000031534,1.893327117,-0.000861544,-0.001128597,-0.000366231,-0.039257035,-0.102437690,9.801011086
1784239788.874749,-0.007259318,-0.000031534,1.893327117,-0.001211988,-0.001537075,-0.000659492,-0.008282756,-0.063919611,9.810254097
1784239788.876755,-0.007258343,-0.000031151,1.893327117,-0.000973161,-0.001299667,-0.000923519,-0.005892691,-0.053470381,9.785665512
1784239788.878752,-0.007258343,-0.000031151,1.893327117,-0.000491095,-0.000988149,-0.000771614,0.005262787,-0.021377420,9.789020538
1784239788.880755,-0.007258343,-0.000031151,1.893327117,-0.000052638,-0.001050140,-0.000662424,-0.001017620,-0.059280794,9.774872780
1784239788.882762,-0.007257407,-0.000031907,1.893327117,0.000285396,-0.001041613,-0.000564499,-0.010247667,-0.080639333,9.770691872
1784239788.884776,-0.007257407,-0.000031907,1.893327117,0.000318637,-0.000568004,-0.000021550,0.005052819,-0.038434919,9.793842316
1784239788.886759,-0.007255760,-0.000033016,1.893327117,-0.000109220,-0.000078323,0.001060040,0.006476089,-0.032574609,9.786259651
1784239788.888771,-0.007255760,-0.000033016,1.893327117,-0.000099596,-0.000120600,0.001774046,-0.021195747,-0.055673696,9.808053970
1784239788.890767,-0.007255760,-0.000033016,1.893327117,0.000397186,-0.000205032,0.001374030,0.009507953,-0.078360327,9.792695045
1784239788.892766,-0.007255762,-0.000033137,1.893327117,0.000689501,-0.000083805,0.000758597,0.008867186,-0.057275582,9.790138245
1784239788.894771,-0.007255762,-0.000033137,1.893327117,0.000792716,-0.000102526,0.000345594,-0.010667923,-0.037550803,9.823871613
1784239788.896796,-0.007254496,-0.000032388,1.893327117,0.000904501,-0.000115452,-0.000135731,0.003580404,-0.085109934,9.807438850
1784239788.898779,-0.007254496,-0.000032388,1.893327117,0.000843489,0.000074771,-0.000503537,-0.025309097,-0.060266901,9.831333160
1784239788.900774,-0.007254496,-0.000032388,1.893327117,0.000472358,0.000108652,-0.000736478,-0.018950168,-0.056496613,9.793704987
1784239788.902771,-0.007254296,-0.000031691,1.893327117,0.000290115,-0.000065940,-0.000852988,-0.003082113,-0.043249466,9.792458534
1784239788.904779,-0.007254296,-0.000031691,1.893327117,0.000161275,0.000079364,-0.001351532,0.024978695,-0.059433386,9.812557220
1784239788.906780,-0.007254033,-0.000032717,1.893327117,-0.000002864,0.000366187,-0.001749923,-0.003822842,-0.068243690,9.780193329
1784239788.908780,-0.007254033,-0.000032717,1.893327117,-0.000217821,0.000318418,-0.001103034,-0.013982565,-0.054281894,9.788341522
1784239788.910776,-0.007254033,-0.000032717,1.893327117,-0.000287333,0.000046699,-0.000308031,-0.034332171,-0.030243693,9.783993721
1784239788.912784,-0.007252091,-0.000030637,1.893327117,-0.000029625,-0.000152024,-0.000143586,-0.012611255,-0.016915478,9.760787010
1784239788.914789,-0.007252091,-0.000030637,1.893327117,-0.000272650,0.000013397,0.000049461,-0.008777035,-0.034383655,9.753056526
1784239788.916786,-0.007250860,-0.000030612,1.893327117,-0.000302978,0.000347649,0.000299829,0.005085839,-0.038174182,9.757081032
1784239788.918785,-0.007250860,-0.000030612,1.893327117,0.000341528,0.000262963,-0.000005949,0.004706698,-0.102667622,9.817192078
1784239788.920793,-0.007250860,-0.000030612,1.893327117,0.000515840,-0.000370746,-0.000358723,0.001923111,-0.075085528,9.786879539
1784239788.922859,-0.007251067,-0.000031417,1.893327117,0.000267361,-0.000432588,-0.000577981,0.011262430,-0.080728061,9.807475090
1784239788.924799,-0.007251067,-0.000031417,1.893327117,0.000381550,0.000059376,-0.000770351,-0.001851499,-0.089063063,9.806064606
1784239788.926811,-0.007252162,-0.000031010,1.893327117,0.000368058,-0.000157277,-0.000895796,-0.009042412,-0.089063287,9.819059372
1784239788.928800,-0.007252162,-0.000031010,1.893327117,-0.000564058,-0.000253266,-0.000645318,-0.011473559,-0.067920566,9.811572075
1784239788.930801,-0.007252162,-0.000031010,1.893327117,-0.001074990,0.000301313,0.000136609,-0.031571772,-0.060440417,9.803978920
1784239788.932797,-0.007251910,-0.000030098,1.893327117,-0.000451687,0.000785024,0.000636053,0.003644394,-0.078120619,9.832591057
1784239788.934805,-0.007251910,-0.000030098,1.893327117,0.000142319,0.000616351,0.000600073,-0.015451631,-0.062124819,9.822813034
1784239788.936803,-0.007251743,-0.000029580,1.893327117,0.000588685,0.000079457,0.000553524,-0.025135843,-0.048362359,9.795095444
1784239788.938802,-0.007251743,-0.000029580,1.893327117,0.000752724,-0.000113374,0.000755136,-0.021222435,-0.019510278,9.826218605
1784239788.940801,-0.007251743,-0.000029580,1.893327117,0.000149985,-0.000226182,0.000594135,-0.010054036,-0.063305572,9.790081978
1784239788.942808,-0.007251329,-0.000029553,1.893327117,-0.000272822,-0.000505642,0.000331359,-0.026946893,-0.087273218,9.788566589
1784239788.944806,-0.007251329,-0.000029553,1.893327117,-0.000346841,-0.000784410,0.000248193,0.005568713,-0.071852721,9.766727448
1784239788.946805,-0.007251095,-0.000029927,1.893327117,-0.000778650,-0.000908873,-0.000227746,0.005442064,-0.081768274,9.775183678
1784239788.948806,-0.007251095,-0.000029927,1.893327117,-0.000925349,-0.000568154,-0.000770363,-0.000372704,-0.079117060,9.790886879
1784239788.950814,-0.007251095,-0.000029927,1.893327117,-0.000975795,0.000017559,-0.000531870,-0.019409005,-0.058597121,9.774860382
1784239788.952826,-0.007251010,-0.000029338,1.893327117,-0.001247492,0.000552006,0.000093392,0.023199419,-0.059693009,9.789240837
1784239788.954811,-0.007251010,-0.000029338,1.893327117,-0.001047456,0.000902605,0.000296580,-0.003707859,-0.020830369,9.791257858
1784239788.956813,-0.007249112,-0.000029116,1.893327117,-0.000510007,0.000543366,0.000189073,-0.022074280,-0.054702677,9.799092293
1784239788.958820,-0.007249112,-0.000029116,1.893327117,-0.000229187,0.000084645,0.000145585,0.024461223,-0.102018312,9.816317558
1784239788.960823,-0.007249112,-0.000029116,1.893327117,-0.000620171,-0.000117887,0.000240055,0.011071331,-0.096826054,9.803337097
1784239788.962827,-0.007250901,-0.000029979,1.893327117,-0.000688675,-0.000321871,0.000326956,0.006621955,-0.055639416,9.816150665
1784239788.964829,-0.007250901,-0.000029979,1.893327117,0.000188186,0.000021632,0.000701357,0.024997516,-0.057663798,9.815706253
1784239788.966825,-0.007250282,-0.000030713,1.893327117,0.000666985,0.000525584,0.000975264,0.019709347,-0.051161196,9.792878151
1784239788.968833,-0.007250282,-0.000030713,1.893327117,0.000306556,0.000487259,0.001027002,0.004210483,-0.033530820,9.798804283
1784239788.970828,-0.007250282,-0.000030713,1.893327117,0.000002976,0.000062360,0.001297089,0.000380499,-0.056861110,9.747093201
1784239788.972828,-0.007248889,-0.000031810,1.893327117,0.000016723,-0.000285042,0.001385696,-0.041316282,-0.048775051,9.819287300
1784239788.974831,-0.007248889,-0.000031810,1.893327117,-0.000167846,-0.000140041,0.001452154,-0.024496512,-0.069053203,9.805274963
1784239788.976832,-0.007248916,-0.000031311,1.893327117,-0.000570135,0.000274577,0.001483812,0.005588632,-0.068453446,9.792754173
1784239788.978833,-0.007248916,-0.000031311,1.893327117,-0.000698985,0.000526166,0.000640368,0.025391378,-0.062965587,9.804464340
1784239788.980840,-0.007248916,-0.000031311,1.893327117,-0.000666553,0.000602413,-0.000353556,0.007255006,-0.044058222,9.761528969
1784239788.982837,-0.007247867,-0.000032158,1.893327117,-0.000790663,0.000564131,-0.000193838,-0.012025902,-0.078459196,9.782361031
1784239788.984859,-0.007247867,-0.000032158,1.893327117,-0.001156014,0.000232115,0.000100902,-0.016160151,-0.086864673,9.774681091
1784239788.986848,-0.007248424,-0.000031585,1.893327117,-0.001240029,-0.000008288,-0.000243692,0.009054070,-0.079205997,9.786411285
1784239788.988846,-0.007248424,-0.000031585,1.893327117,-0.000811774,0.000042194,0.000012760,0.019185618,-0.055800397,9.816161156
1784239788.990844,-0.007248424,-0.000031585,1.893327117,-0.000286636,-0.000125526,0.000884751,0.005201897,-0.064311124,9.777984619
1784239788.992856,-0.007247848,-0.000031939,1.893327117,0.000276219,-0.000408435,0.000995876,-0.015670352,-0.080872402,9.813277245
1784239788.994866,-0.007247848,-0.000031939,1.893327117,0.000706873,-0.000590778,0.000102196,-0.035401747,-0.080933861,9.794427872
1784239788.996853,-0.007248103,-0.000030773,1.893327117,0.000857560,-0.000740186,-0.000495036,-0.029945444,-0.074356563,9.804786682
1784239788.998856,-0.007248103,-0.000030773,1.893327117,0.000587622,-0.000740037,-0.000424658,-0.007097656,-0.078176230,9.796713829
1784239789.000854,-0.007248103,-0.000030773,1.893327117,-0.000164785,-0.000284399,-0.000299527,0.030643802,-0.039455045,9.765167236
1784239789.002860,-0.007247787,-0.000031676,1.893327117,-0.000980890,0.000408630,0.000082045,0.023294482,-0.015678965,9.774279594
1784239789.004857,-0.007247787,-0.000031676,1.893327117,-0.000747579,0.000579809,0.000485835,0.005899475,-0.041683890,9.808169365
1784239789.006860,-0.007246939,-0.000031617,1.893327117,0.000141683,0.000319325,0.000688730,-0.012826055,-0.068764262,9.806633949
1784239789.008861,-0.007246939,-0.000031617,1.893327117,0.000467865,0.000440237,0.000639186,-0.021005640,-0.077578671,9.800741196
1784239789.010860,-0.007246939,-0.000031617,1.893327117,0.000472967,0.000747260,0.000531737,-0.005502508,-0.057990715,9.790568352
1784239789.012860,-0.007246904,-0.000031222,1.893327117,0.000078545,0.001079228,0.001103298,-0.017503532,-0.047615048,9.802280426
1784239789.014869,-0.007246904,-0.000031222,1.893327117,-0.000534972,0.001235137,0.001428418,-0.019529305,-0.029251695,9.806879997
1784239789.016864,-0.007245222,-0.000030208,1.893327117,-0.000571499,0.000665412,0.000831726,-0.034680463,-0.057308957,9.810271263
1784239789.018864,-0.007245222,-0.000030208,1.893327117,-0.000236585,0.000193806,0.000180680,-0.028903959,-0.063099086,9.794997215
1784239789.020867,-0.007245222,-0.000030208,1.893327117,0.000245415,0.000205340,0.000087844,0.009164088,-0.070637502,9.778396606
1784239789.022871,-0.007245587,-0.000029998,1.893327117,0.000865916,0.000066180,0.000128131,0.025205284,-0.078618795,9.800777435
1784239789.024872,-0.007245587,-0.000029998,1.893327117,0.001240862,-0.000466568,0.000191058,0.007710727,-0.078356430,9.795382500
1784239789.026884,-0.007245182,-0.000030134,1.893327117,0.000955020,-0.000704869,0.000272949,-0.014454165,-0.055267457,9.801785469
1784239789.028880,-0.007245182,-0.000030134,1.893327117,0.000157340,-0.000241257,0.000190805,-0.032161389,-0.070868134,9.822291374
1784239789.030874,-0.007245182,-0.000030134,1.893327117,-0.000532086,0.000080536,-0.000013711,-0.038550485,-0.081360660,9.797112465
1784239789.032876,-0.007245833,-0.000026670,1.893327117,-0.000369204,0.000018030,0.000125532,-0.021048499,-0.043569203,9.806786537
1784239789.034882,-0.007245833,-0.000026670,1.893327117,0.000238826,0.000232890,0.000933218,0.007993268,-0.018273007,9.788595200
1784239789.036882,-0.007242612,-0.000027475,1.893327117,0.000304099,0.000538586,0.001341322,-0.005853621,-0.050325114,9.784340858
1784239789.038898,-0.007242612,-0.000027475,1.893327117,0.000167459,0.000352053,0.001184754,0.022924433,-0.045752775,9.782605171
1784239789.040892,-0.007242612,-0.000027475,1.893327117,0.000265144,0.000104826,0.001268958,0.027688280,-0.060141228,9.781172752
1784239789.042888,-0.007242477,-0.000028874,1.893327117,0.000142501,0.000429795,0.001495273,0.028457949,-0.034108002,9.773269653
1784239789.044894,-0.007242477,-0.000028874,1.893327117,-0.000468325,0.000854359,0.001299322,-0.016896788,-0.075047195,9.752340317
1784239789.046889,-0.007243608,-0.000027855,1.893327117,-0.000757370,0.000462103,0.000809929,-0.047678154,-0.056621138,9.799952507
1784239789.048890,-0.007243608,-0.000027855,1.893327117,-0.000247103,-0.000047414,0.000453309,-0.033695813,-0.013773452,9.797999382
1784239789.050891,-0.007243608,-0.000027855,1.893327117,0.000239270,0.000208484,0.000467969,0.007489899,-0.023156673,9.783182144
1784239789.052899,-0.007240959,-0.000028604,1.893327117,0.000144421,0.000651956,0.000443263,0.019490175,-0.034348764,9.760257721
1784239789.054898,-0.007240959,-0.000028604,1.893327117,-0.000194086,0.001052468,0.000010077,0.033442169,-0.068136178,9.760950089
1784239789.056901,-0.007241164,-0.000029942,1.893327117,-0.000442071,0.001200700,-0.000378503,0.047502637,-0.091341056,9.785473824
1784239789.058896,-0.007241164,-0.000029942,1.893327117,-0.000521031,0.000712730,-0.000520325,0.050114643,-0.062118791,9.766833305
1784239789.060905,-0.007241164,-0.000029942,1.893327117,-0.000434521,0.000214137,-0.001021348,-0.003066919,-0.041508500,9.799643517
1784239789.062902,-0.007239914,-0.000030568,1.893327117,-0.000335642,-0.000220249,-0.001585248,-0.025328381,-0.064066432,9.798581123
1784239789.064907,-0.007239914,-0.000030568,1.893327117,-0.000502392,-0.000736206,-0.001329617,-0.009902757,-0.085922413,9.819974899
1784239789.066908,-0.007240011,-0.000030104,1.893327117,-0.001108612,-0.000695634,-0.000690547,-0.019069621,-0.065544866,9.806199074
1784239789.068914,-0.007240011,-0.000030104,1.893327117,-0.001817354,-0.000267769,-0.000132938,-0.003811329,-0.065721259,9.803523064
1784239789.070908,-0.007240011,-0.000030104,1.893327117,-0.001845284,-0.000013234,-0.000069252,0.002606762,-0.054999806,9.796423912
1784239789.072909,-0.007239344,-0.000029771,1.893327117,-0.001556654,0.000190513,-0.000617975,0.027434418,-0.042792182,9.799216270
1784239789.074914,-0.007239344,-0.000029771,1.893327117,-0.001468658,0.000806245,-0.000690371,0.011816263,-0.036640279,9.781308174
1784239789.076921,-0.007237602,-0.000029987,1.893327117,-0.001533234,0.001180759,-0.000184122,0.015564863,-0.060052771,9.790575981
1784239789.078915,-0.007237602,-0.000029987,1.893327117,-0.002003812,0.000738409,0.000143913,-0.021860749,-0.074396461,9.795826912
1784239789.080918,-0.007237602,-0.000029987,1.893327117,-0.002544647,0.000367952,-0.000213409,-0.033188205,-0.046851404,9.786129951
1784239789.082925,-0.007235830,-0.000029071,1.893327117,-0.002786853,0.000639738,-0.001012010,-0.032043613,-0.063859373,9.781538963
1784239789.084939,-0.007235830,-0.000029071,1.893327117,-0.002813594,0.001269095,-0.001753607,-0.006335878,-0.089389928,9.797091484
1784239789.086946,-0.007236497,-0.000029022,1.893327117,-0.002799579,0.001422887,-0.002566274,0.032252640,-0.088667676,9.815066338
1784239789.088934,-0.007236497,-0.000029022,1.893327117,-0.002467582,0.001242137,-0.002942792,-0.000140349,-0.059451278,9.797289848
1784239789.090933,-0.007236497,-0.000029022,1.893327117,-0.001595423,0.001062357,-0.002349861,-0.033963107,-0.072925963,9.799860954
1784239789.092931,-0.007236198,-0.000027410,1.893327117,-0.001092730,0.000497186,-0.001324838,-0.009779747,-0.078872316,9.773394585
1784239789.094937,-0.007236198,-0.000027410,1.893327117,-0.000978205,0.000196838,-0.000686209,0.008462963,-0.088429734,9.824459076
1784239789.096934,-0.007237471,-0.000027725,1.893327117,-0.000707851,0.000499217,-0.000416344,-0.012067567,-0.116783306,9.816187859
1784239789.098939,-0.007237471,-0.000027725,1.893327117,-0.000367434,0.000539949,-0.000545455,-0.014388693,-0.087072082,9.800685883
1784239789.100936,-0.007237471,-0.000027725,1.893327117,-0.000143261,-0.000057325,-0.001094337,-0.021936879,-0.080671087,9.796236038
1784239789.102935,-0.007238464,-0.000026224,1.893327117,0.000016385,-0.000799264,-0.001351492,0.006930547,-0.031319153,9.797924995
1784239789.104943,-0.007238464,-0.000026224,1.893327117,0.000028408,-0.000837868,-0.001012694,-0.014945738,-0.058842216,9.801314354
1784239789.106953,-0.007237752,-0.000025048,1.893327117,-0.000479814,-0.000106662,-0.000401438,-0.004863013,-0.081111774,9.764418602
1784239789.108945,-0.007237752,-0.000025048,1.893327117,-0.001050501,0.000231623,-0.000192220,0.009955393,-0.042812429,9.770506859
1784239789.110949,-0.007237752,-0.000025048,1.893327117,-0.000982948,-0.000029579,-0.000294592,0.001468153,-0.037134070,9.806401253
1784239789.112945,-0.007235689,-0.000025777,1.893327117,-0.000803695,0.000155169,-0.000114148,-0.026576431,-0.019606264,9.786311150
1784239789.114952,-0.007235689,-0.000025777,1.893327117,-0.000959953,0.000509061,-0.000018033,0.000537195,-0.041440021,9.783507347
1784239789.116954,-0.007234096,-0.000025917,1.893327117,-0.000952970,0.000208364,-0.000077298,0.034943309,-0.017181866,9.775626183
1784239789.118952,-0.007234096,-0.000025917,1.893327117,-0.000716815,-0.000355831,-0.000013716,-0.007667487,-0.089258231,9.780950546
1784239789.120960,-0.007234096,-0.000025917,1.893327117,-0.000377601,-0.000407220,-0.000199802,0.001461579,-0.075991601,9.789113998
1784239789.122955,-0.007235243,-0.000025557,1.893327117,-0.000089478,0.000022326,-0.000242437,0.012186920,-0.082146682,9.753219604
1784239789.124961,-0.007235243,-0.000025557,1.893327117,-0.000006617,0.000335399,-0.000075128,0.006429987,-0.073770523,9.782857895
1784239789.126968,-0.007235364,-0.000026245,1.893327117,0.000123510,0.000276168,-0.000189408,-0.032615110,-0.074144006,9.779679298
1784239789.128941,-0.007235364,-0.000026245,1.893327117,0.000612650,-0.000077441,-0.000237659,-0.040745616,-0.078923583,9.773364067
1784239789.130965,-0.007235364,-0.000026245,1.893327117,0.000824652,-0.000297708,-0.000236728,0.014404608,-0.081568845,9.794023514
1784239789.132962,-0.007235087,-0.000026281,1.893327117,0.000617289,-0.000419820,0.000016315,-0.008261706,-0.065374419,9.762721062
