time_sec,roll_rad,pitch_rad,yaw_rad,gyro_x,gyro_y,gyro_z,acc_x,acc_y,acc_z
1784240407.399664,-0.001925632,0.003676808,0.030352874,-0.000039407,-0.000315499,-0.000729020,-0.049239911,-0.000552740,9.794034958
1784240407.401568,-0.001924311,0.003678455,0.030347843,0.000341732,-0.000114065,-0.001159713,-0.047082435,-0.044118948,9.804965019
1784240407.403529,-0.001930156,0.003675521,0.030349178,-0.000125310,-0.000195607,-0.001096836,-0.051974431,-0.041278914,9.792425156
1784240407.405517,-0.001928111,0.003673503,0.030354762,-0.000289414,-0.000531323,-0.000330217,-0.043509673,-0.010355435,9.776043892
1784240407.407480,-0.001920061,0.003674667,0.030355027,0.000534456,-0.000497632,0.000159098,-0.010752505,-0.009139089,9.798050880
1784240407.409531,-0.001917650,0.003671918,0.030354226,0.001099520,-0.000470053,0.000082277,-0.023758199,-0.009324933,9.784586906
1784240407.411517,-0.001912021,0.003673988,0.030352378,0.001331692,-0.000357145,-0.000117869,-0.002449091,0.009568616,9.798626900
1784240407.413516,-0.001910626,0.003676030,0.030350007,0.001432279,0.000050496,-0.000370280,-0.028391946,-0.020152049,9.803343773
1784240407.415539,-0.001912150,0.003678220,0.030353492,0.001070393,0.000313938,-0.000194001,-0.074290834,0.004830333,9.775214195
1784240407.417533,-0.001914546,0.003673095,0.030362792,0.000546478,0.000017811,0.000725564,-0.033524398,0.001358657,9.811993599
1784240407.419508,-0.001915307,0.003671672,0.030369986,0.000179749,-0.000433615,0.001646893,-0.027246373,-0.001993911,9.768042564
1784240407.421528,-0.001910269,0.003676301,0.030371610,0.000355162,-0.000080067,0.001799074,-0.021151725,-0.016520442,9.783646584
1784240407.423550,-0.001908288,0.003682010,0.030378563,0.000669049,0.000661572,0.001894877,-0.012771378,-0.026284875,9.818562508
1784240407.425567,-0.001911472,0.003683217,0.030376466,0.000408034,0.001010686,0.001710100,-0.031941865,-0.017361058,9.795287132
1784240407.427526,-0.001908231,0.003683652,0.030373022,0.000306078,0.000908393,0.000869625,-0.005801115,0.029321717,9.799198151
1784240407.429528,-0.001902325,0.003683507,0.030374886,0.000844292,0.000681616,0.000528250,-0.028526073,0.005031732,9.790503502
1784240407.431525,-0.001902906,0.003681201,0.030375153,0.000872621,0.000374789,0.000530920,-0.039639663,-0.023893705,9.782684326
1784240407.433539,-0.001902591,0.003680833,0.030381277,0.000512703,0.000135603,0.000821002,-0.064993642,-0.041166238,9.800034523
1784240407.435539,-0.001902303,0.003685037,0.030377591,0.000507582,0.000266233,0.000763653,-0.061314244,-0.031182580,9.838658333
1784240407.437550,-0.001903317,0.003686871,0.030368041,0.000417576,0.000512851,-0.000342474,-0.022900952,-0.011274535,9.805198669
1784240407.439520,-0.001901168,0.003684662,0.030365646,0.000384245,0.000349623,-0.001059877,-0.000805166,-0.005424331,9.761769295
1784240407.441535,-0.001902807,0.003677897,0.030360576,0.000281450,-0.000274300,-0.001278555,-0.010609402,0.001716904,9.783325195
1784240407.443543,-0.001905955,0.003677570,0.030365651,-0.000154873,-0.000602029,-0.000932277,-0.023714295,-0.006141508,9.777882576
1784240407.445510,-0.001900984,0.003678242,0.030376567,-0.000000398,-0.000402530,0.000406284,-0.058584761,-0.031327989,9.791137695
1784240407.447502,-0.001896948,0.003677311,0.030380823,0.000600017,-0.000298124,0.001327804,-0.071452923,-0.018675586,9.799275398
1784240407.449510,-0.001899826,0.003678063,0.030380849,0.000514698,-0.000229890,0.001258122,-0.035502825,0.019690588,9.757861137
1784240407.451497,-0.001901338,0.003678609,0.030386457,0.000019593,-0.000068073,0.001297556,-0.039649941,0.014020212,9.806690216
1784240407.453505,-0.001906583,0.003682039,0.030386500,-0.000501850,0.000231535,0.001327040,-0.034696851,0.013283625,9.775307655
1784240407.455495,-0.001909630,0.003684802,0.030381480,-0.000986895,0.000599351,0.000627113,-0.047342926,-0.030064242,9.782189369
1784240407.457513,-0.001910374,0.003685523,0.030383365,-0.001035150,0.000683244,0.000243045,-0.040988866,-0.022685202,9.804211617
1784240407.459508,-0.001908437,0.003688354,0.030381260,-0.000673036,0.000738859,0.000162426,-0.035975661,-0.056484446,9.759613991
1784240407.461520,-0.001910846,0.003685055,0.030379405,-0.000447520,0.000529347,-0.000150483,-0.041755039,-0.049906507,9.790137291
1784240407.463506,-0.001908189,0.003679901,0.030382313,-0.000235669,-0.000165872,-0.000038397,-0.048274040,-0.031939983,9.795626640
1784240407.465513,-0.001898371,0.003682693,0.030383652,0.000699451,-0.000322095,0.000263070,-0.036103491,0.008770390,9.782449722
1784240407.467525,-0.001899081,0.003687693,0.030377047,0.001154615,0.000254490,-0.000163693,-0.010728627,-0.007734794,9.789541245
1784240407.469589,-0.001905153,0.003688477,0.030377610,0.000382320,0.000578766,-0.000531027,-0.050753575,-0.013205588,9.811884880
1784240407.471530,-0.001908581,0.003685455,0.030375216,-0.000386095,0.000239472,-0.000513331,-0.015295845,0.024416311,9.813055992
1784240407.473537,-0.001905862,0.003686412,0.030375227,-0.000348977,0.000004084,-0.000535530,-0.006751765,-0.013540075,9.779644012
1784240407.475521,-0.001900270,0.003689017,0.030372854,0.000333986,0.000293513,-0.000548091,-0.049101830,-0.027731493,9.772338867
1784240407.477519,-0.001898148,0.003684701,0.030367255,0.000792373,0.000147121,-0.000938382,-0.041336138,-0.015394421,9.787669182
1784240407.479517,-0.001896533,0.003681952,0.030368581,0.000831941,-0.000371882,-0.000972745,-0.021672113,-0.019917512,9.821284294
1784240407.481519,-0.001894783,0.003681873,0.030368330,0.000845328,-0.000428032,-0.000634972,-0.035003558,-0.046990570,9.808992386
1784240407.483537,-0.001896891,0.003679966,0.030368073,0.000602814,-0.000411554,-0.000497301,-0.015860001,-0.025021205,9.772388458
1784240407.485533,-0.001897960,0.003679525,0.030372079,0.000172341,-0.000398585,-0.000108577,-0.042403270,0.009114420,9.808448792
1784240407.487527,-0.001896033,0.003681013,0.030373691,0.000132166,-0.000158871,0.000302684,-0.059984475,0.038582686,9.791584969
1784240407.489544,-0.001895425,0.003684126,0.030371066,0.000268649,0.000196730,0.000152259,-0.018781725,0.030549711,9.775879860
1784240407.491554,-0.001893563,0.003683853,0.030367082,0.000187026,0.000352062,-0.000337277,-0.037570719,0.000536737,9.808846474
1784240407.493583,-0.001894095,0.003679533,0.030369202,0.000049006,-0.000039902,-0.000371905,-0.039401963,-0.040559869,9.794683456
1784240407.495542,-0.001895989,0.003683032,0.030371102,-0.000013607,-0.000076300,0.000001457,-0.044595886,-0.097145796,9.822560310
1784240407.497544,-0.001891868,0.003690334,0.030372212,0.000256878,0.000686184,0.000206138,-0.037228312,-0.047219001,9.782089233
1784240407.499535,-0.001887823,0.003691019,0.030370362,0.000741657,0.001042102,0.000101866,-0.034995377,-0.010957148,9.782324791
1784240407.501534,-0.001885306,0.003684813,0.030370073,0.000976807,0.000403250,-0.000069546,-0.031262524,0.003906390,9.827703476
1784240407.503592,-0.001883484,0.003676214,0.030374821,0.000995569,-0.000693242,0.000253119,-0.058797065,0.025965294,9.799574852
1784240407.505570,-0.001879365,0.003679534,0.030374572,0.001015085,-0.000952111,0.000491195,-0.058436237,-0.017187197,9.818576813
1784240407.507594,-0.001879501,0.003687140,0.030377284,0.000896908,-0.000040429,0.000526136,-0.019256279,-0.044017896,9.803647041
1784240407.509546,-0.001880273,0.003685482,0.030377293,0.000591092,0.000373990,0.000567901,-0.027295576,-0.041998561,9.786167145
1784240407.511554,-0.001874613,0.003679831,0.030375399,0.000811672,-0.000190970,0.000287321,-0.036374338,-0.013630850,9.782753944
1784240407.513547,-0.001865776,0.003679375,0.030380176,0.001623411,-0.000521554,0.000409339,-0.012212483,0.017437624,9.780733109
1784240407.515548,-0.001859122,0.003684602,0.030373026,0.002133804,0.000032670,0.000141493,-0.015191772,-0.041026127,9.816671371
1784240407.517545,-0.001864117,0.003687260,0.030366950,0.001569420,0.000649040,-0.000794057,-0.014850333,-0.051604882,9.791498184
1784240407.519547,-0.001869692,0.003684858,0.030367229,0.000427255,0.000490868,-0.000974689,-0.028680412,-0.044313334,9.799153328
1784240407.521557,-0.001873986,0.003679299,0.030366166,-0.000230096,-0.000114323,-0.000765746,-0.090853915,-0.026971428,9.803688049
1784240407.523554,-0.001869724,0.003675478,0.030363485,-0.000040531,-0.000651185,-0.000811575,-0.066537172,-0.021328028,9.785366058
1784240407.525553,-0.001864906,0.003681513,0.030365381,0.000592441,-0.000382866,-0.000641932,-0.027599087,0.008495811,9.805768967
1784240407.527548,-0.001862911,0.003689098,0.030367294,0.000898486,0.000586358,-0.000207403,-0.032101985,0.008022669,9.817418098
1784240407.529565,-0.001865776,0.003690907,0.030368391,0.000594732,0.001064449,0.000052885,-0.041831557,-0.018594358,9.797512054
1784240407.531566,-0.001874593,0.003691821,0.030364171,-0.000408420,0.000919733,-0.000176679,-0.040998142,-0.025595173,9.772359848
1784240407.533568,-0.001873533,0.003687505,0.030361235,-0.000871849,0.000399104,-0.000616580,-0.023162890,-0.034415897,9.783530235
1784240407.535558,-0.001873724,0.003685064,0.030362573,-0.000506634,-0.000116065,-0.000557595,-0.028218752,-0.042190563,9.814857483
1784240407.537573,-0.001875832,0.003683981,0.030355401,-0.000454498,-0.000271293,-0.000802568,-0.024639202,-0.007562925,9.790425301
1784240407.539563,-0.001876342,0.003682335,0.030352218,-0.000506175,-0.000381527,-0.001288036,-0.036376584,-0.013243293,9.791274071
1784240407.541566,-0.001873299,0.003681852,0.030351695,-0.000236778,-0.000395913,-0.001189544,-0.073661797,-0.053126514,9.796363831
1784240407.543571,-0.001871381,0.003682822,0.030350646,0.000123790,-0.000229057,-0.000972130,-0.058604557,-0.068263695,9.818696022
1784240407.545572,-0.001873438,0.003682317,0.030348271,0.000222880,-0.000212961,-0.000940956,-0.044680048,-0.031140929,9.802808762
1784240407.547575,-0.001876618,0.003680172,0.030344289,-0.000050303,-0.000412284,-0.001118541,-0.074323334,0.002952643,9.787306786
1784240407.549572,-0.001877607,0.003683025,0.030344587,-0.000318752,-0.000251860,-0.001065799,-0.035210114,0.008727090,9.786932945
1784240407.551578,-0.001872406,0.003685773,0.030346198,-0.000041264,0.000217566,-0.000645573,-0.039149743,0.018068375,9.803577423
1784240407.553583,-0.001869461,0.003682739,0.030348847,0.000427394,0.000159685,-0.000178781,-0.053155553,0.008572696,9.777947426
1784240407.555581,-0.001868156,0.003678220,0.030347504,0.000528210,-0.000436643,-0.000040767,-0.060435604,-0.033773735,9.823398590
1784240407.557580,-0.001871314,0.003677649,0.030347520,0.000188018,-0.000703502,-0.000120468,-0.078558169,-0.051131528,9.776643753
1784240407.559579,-0.001868306,0.003680725,0.030347276,0.000126854,-0.000342387,-0.000102930,-0.007996079,-0.005424553,9.774763107
1784240407.561584,-0.001867311,0.003680558,0.030344365,0.000373408,0.000044754,-0.000287569,-0.043399066,0.001459705,9.815571785
1784240407.563580,-0.001867785,0.003681538,0.030347047,0.000315952,0.000184127,-0.000224679,-0.057790793,-0.001050445,9.816438675
1784240407.565584,-0.001862312,0.003683621,0.030347060,0.000508650,0.000281913,0.000020057,-0.045607265,-0.034201562,9.793821335
1784240407.567580,-0.001863794,0.003690741,0.030342598,0.000582367,0.000770838,-0.000286832,-0.023572333,0.006731720,9.794551849
1784240407.569598,-0.001862342,0.003696715,0.030350886,0.000421281,0.001449885,0.000050666,-0.051458504,0.003320058,9.820508957
1784240407.571589,-0.001859115,0.003695387,0.030352477,0.000567494,0.001327204,0.000708700,-0.045132767,0.006422990,9.813808441
1784240407.573596,-0.001858564,0.003693469,0.030348225,0.000615964,0.000703684,0.000336568,-0.059189677,-0.007123415,9.790843010
1784240407.575594,-0.001860321,0.003691972,0.030355144,0.000360551,0.000196380,0.000425752,-0.057087716,-0.017185362,9.815887451
1784240407.577600,-0.001862951,0.003689761,0.030365529,-0.000045049,-0.000194905,0.001483102,-0.046573956,-0.040410645,9.786607742
1784240407.579603,-0.001860752,0.003691506,0.030368742,-0.000065413,-0.000175381,0.002002778,-0.044706576,-0.032160856,9.820285797
1784240407.581601,-0.001858347,0.003698393,0.030365594,0.000307870,0.000416275,0.001464549,-0.045915559,-0.022145383,9.800174713
1784240407.583601,-0.001858795,0.003702582,0.030361906,0.000401893,0.001014080,0.000603754,-0.061130077,-0.020002261,9.778206825
1784240407.585602,-0.001862085,0.003700242,0.030369090,0.000045462,0.000765871,0.000676210,-0.031575438,0.012684132,9.790996552
1784240407.587598,-0.001868220,0.003695193,0.030369623,-0.000601378,-0.000042515,0.001013711,0.004777619,0.013498738,9.800004005
1784240407.589615,-0.001869247,0.003695147,0.030365651,-0.000923406,-0.000376387,0.000503059,-0.014153494,0.007795884,9.816985130
1784240407.591622,-0.001863289,0.003694089,0.030366709,-0.000431014,-0.000267686,0.000170273,-0.054444410,0.013905063,9.786499977
1784240407.593649,-0.001862212,0.003691089,0.030365909,0.000069657,-0.000389348,0.000143571,-0.039598417,-0.057915881,9.778431892
1784240407.595614,-0.001861407,0.003695475,0.030366214,0.000311084,-0.000188329,0.000071381,-0.015808905,-0.055723608,9.805368423
1784240407.597611,-0.001857592,0.003699067,0.030367563,0.000672280,0.000405207,0.000165991,-0.047565199,-0.046813682,9.806740761
1784240407.599607,-0.001859700,0.003697164,0.030366508,0.000605518,0.000409722,0.000141747,-0.038120929,-0.008769308,9.795336723
1784240407.601620,-0.001857497,0.003692609,0.030363301,0.000406359,-0.000195456,-0.000186425,-0.018869316,-0.013810549,9.776493073
1784240407.603622,-0.001856641,0.003694407,0.030357473,0.000463656,-0.000384524,-0.000748703,-0.000905377,0.027726993,9.825644493
1784240407.605615,-0.001855712,0.003698404,0.030365752,0.000312651,0.000213028,-0.000378298,-0.023496959,0.012189921,9.782931328
1784240407.607615,-0.001853526,0.003698271,0.030374004,0.000289377,0.000515542,0.000847681,-0.039506979,-0.013930456,9.767506599
1784240407.609618,-0.001849543,0.003693670,0.030368401,0.000628858,0.000053864,0.000798867,-0.074348547,-0.034431022,9.814864159
1784240407.611631,-0.001844389,0.003687885,0.030355336,0.001109213,-0.000780099,-0.000683241,-0.061519507,-0.014665493,9.784516335
1784240407.613625,-0.001849153,0.003687359,0.030348975,0.000865583,-0.001110912,-0.001816498,-0.029882083,-0.032213852,9.801022530
1784240407.615626,-0.001858120,0.003685009,0.030350327,-0.000214701,-0.001024163,-0.001666874,-0.027655032,-0.033183038,9.807296753
1784240407.617625,-0.001860731,0.003685483,0.030352745,-0.000857696,-0.000894175,-0.000961564,-0.043678936,0.016171860,9.826426506
1784240407.619621,-0.001863366,0.003684389,0.030349566,-0.000980695,-0.000693328,-0.000753494,-0.030864466,-0.000956977,9.817811012
1784240407.621627,-0.001866106,0.003680937,0.030351166,-0.001163099,-0.000779670,-0.000657516,-0.028367896,-0.018341133,9.800664902
1784240407.623626,-0.001865214,0.003684811,0.030355718,-0.001058503,-0.000506355,-0.000061844,-0.019938134,-0.026094319,9.804658890
1784240407.625629,-0.001858993,0.003688325,0.030348031,-0.000288313,0.000193120,-0.000255827,-0.024483429,0.006635110,9.809794426
1784240407.627627,-0.001852027,0.003688735,0.030341117,0.000687920,0.000468974,-0.001174011,-0.085831292,-0.019054038,9.815400124
1784240407.629638,-0.001846640,0.003690471,0.030338204,0.001342126,0.000488561,-0.001519067,-0.058357183,-0.047263574,9.826453209
1784240407.631646,-0.001841989,0.003696491,0.030338507,0.001729868,0.000752789,-0.001281786,-0.023428213,-0.055152468,9.801777840
1784240407.633642,-0.001836906,0.003693687,0.030344078,0.001989551,0.000635993,-0.000533031,-0.038208459,-0.053939633,9.783839226
1784240407.635650,-0.001836294,0.003692100,0.030342225,0.001921870,0.000176581,-0.000134479,-0.010933535,-0.025157582,9.782705307
1784240407.637642,-0.001841078,0.003688619,0.030344887,0.001203522,-0.000203662,-0.000044025,-0.044338599,-0.004129718,9.784152031
1784240407.639643,-0.001853275,0.003689461,0.030347060,-0.000277083,-0.000328010,0.000291977,-0.039992791,-0.016244000,9.778698921
1784240407.641646,-0.001856023,0.003697419,0.030348185,-0.001220684,0.000336579,0.000432861,-0.026186081,-0.026556812,9.754884720
1784240407.643660,-0.001849543,0.003700430,0.030354584,-0.000641476,0.000967290,0.000827153,-0.039905660,-0.005829982,9.826289177
1784240407.645654,-0.001844548,0.003699837,0.030358303,0.000262136,0.000862480,0.001292529,-0.056760989,0.010114827,9.819649696
1784240407.647653,-0.001848481,0.003701119,0.030360991,0.000214558,0.000669294,0.001377053,-0.057863753,0.028263560,9.789727211
1784240407.649700,-0.001848666,0.003703945,0.030365545,-0.000125046,0.000765505,0.001493619,-0.050665773,-0.006838746,9.798475266
1784240407.651659,-0.001841043,0.003711510,0.030359466,0.000356061,0.001191376,0.000985966,-0.022224346,-0.032076295,9.767853737
1784240407.653658,-0.001843939,0.003711226,0.030353634,0.000525103,0.001291902,-0.000089331,-0.014499384,-0.022087144,9.798411369
1784240407.655651,-0.001849234,0.003712014,0.030354729,-0.000170393,0.001010987,-0.000388549,-0.017398855,-0.002714620,9.788669586
1784240407.657656,-0.001849914,0.003719390,0.030350531,-0.000527026,0.001326039,-0.000495081,-0.021761071,0.007649157,9.788284302
1784240407.659658,-0.001854376,0.003721490,0.030349499,-0.000731660,0.001609839,-0.000716713,-0.033835750,-0.023793936,9.821248055
1784240407.661660,-0.001853394,0.003724204,0.030345010,-0.000757254,0.001527376,-0.000897636,-0.012548413,-0.010745773,9.775173187
1784240407.663657,-0.001854389,0.003726796,0.030343978,-0.000540478,0.001500763,-0.001028877,-0.029262373,-0.054680645,9.808949471
1784240407.665664,-0.001855378,0.003721413,0.030339181,-0.000407029,0.000887777,-0.001145882,-0.047900088,-0.037804205,9.800520897
1784240407.667671,-0.001847452,0.003712272,0.030331148,0.000297436,-0.000354412,-0.001703934,-0.044125885,-0.023829857,9.781784058
1784240407.669672,-0.001850874,0.003712248,0.030327981,0.000525195,-0.000878937,-0.002000492,-0.021457901,-0.040821634,9.799181938
1784240407.671666,-0.001855690,0.003717772,0.030330429,-0.000167275,-0.000230155,-0.001508132,-0.018039595,-0.057619881,9.760969162
1784240407.673671,-0.001858834,0.003718254,0.030332047,-0.000654044,0.000276292,-0.000824303,-0.038183417,-0.014125762,9.792612076
1784240407.675667,-0.001866965,0.003716963,0.030336596,-0.001249292,0.000160964,-0.000184807,-0.020646114,-0.012024325,9.780537605
1784240407.677670,-0.001869806,0.003720067,0.030344611,-0.001663938,0.000254079,0.000715320,-0.040212072,-0.032564566,9.805940628
1784240407.679707,-0.001874799,0.003722439,0.030343050,-0.001745517,0.000556070,0.000957516,-0.036503047,0.014837738,9.812076569
1784240407.681682,-0.001873111,0.003724922,0.030342543,-0.001569111,0.000723069,0.000556374,-0.033704609,0.022936493,9.802268028
1784240407.683684,-0.001870200,0.003719255,0.030340921,-0.000904069,0.000298965,0.000261959,-0.063295498,-0.012872911,9.787663460
1784240407.685683,-0.001868816,0.003719954,0.030339345,-0.000349246,-0.000208296,-0.000025720,-0.052244235,-0.026487272,9.792070389
1784240407.687676,-0.001866024,0.003727258,0.030343117,0.000045540,0.000302018,0.000130633,-0.032175768,-0.035012785,9.820729256
1784240407.689709,-0.001867764,0.003734081,0.030346893,0.000102697,0.001178024,0.000608013,-0.005513194,-0.020079968,9.815022469
1784240407.691699,-0.001872722,0.003735003,0.030342137,-0.000400944,0.001429625,0.000375102,-0.002468660,0.006982595,9.784262657
1784240407.693697,-0.001876685,0.003734734,0.030335514,-0.000916045,0.001132849,-0.000501502,-0.034729358,0.011405931,9.787400246
1784240407.695738,-0.001878677,0.003732189,0.030332856,-0.001131849,0.000644059,-0.000996950,-0.058603805,-0.032694135,9.794267654
1784240407.697701,-0.001876011,0.003729198,0.030325934,-0.000838982,0.000103246,-0.001376245,-0.033757627,-0.055093367,9.812081337
1784240407.699698,-0.001873060,0.003727244,0.030323807,-0.000227584,-0.000259246,-0.001615645,-0.019364228,-0.053380571,9.797309875
1784240407.701694,-0.001874798,0.003728730,0.030324372,0.000057587,-0.000182704,-0.001282952,-0.002839807,-0.024720894,9.769712448
1784240407.703705,-0.001872343,0.003729959,0.030323591,0.000231294,0.000088859,-0.000949182,0.013782320,-0.021937797,9.789474487
1784240407.705697,-0.001874885,0.003722941,0.030322783,0.000118150,-0.000160152,-0.000799163,-0.014655146,0.001304789,9.785560608
1784240407.707697,-0.001879407,0.003718920,0.030326767,-0.000439016,-0.000698413,-0.000367685,-0.071352333,-0.007750009,9.837902069
1784240407.709703,-0.001879391,0.003716465,0.030325437,-0.000626308,-0.000948672,-0.000088325,-0.053873833,-0.011786484,9.806958199
1784240407.711707,-0.001875821,0.003716630,0.030319860,-0.000216076,-0.000880904,-0.000532417,-0.027644383,-0.032693740,9.801469803
1784240407.713708,-0.001874152,0.003719197,0.030318025,0.000195041,-0.000490541,-0.000889958,-0.009524188,-0.019001938,9.796644211
1784240407.715706,-0.001874827,0.003719833,0.030329214,0.000257937,-0.000102592,-0.000012959,-0.052384693,-0.037727632,9.797826767
1784240407.717711,-0.001879660,0.003711021,0.030338500,-0.000140353,-0.000593801,0.001379086,-0.038562950,-0.006279290,9.824045181
1784240407.719715,-0.001885770,0.003708632,0.030336916,-0.000846973,-0.001193827,0.001524677,-0.033432562,0.007757299,9.794102669
1784240407.721711,-0.001886191,0.003707657,0.030330811,-0.001136419,-0.001086974,0.000587123,-0.062592410,0.008582140,9.793630600
1784240407.723713,-0.001885134,0.003702800,0.030330529,-0.000861107,-0.001176920,-0.000005779,-0.028708015,-0.009372978,9.800273895
1784240407.725720,-0.001888866,0.003700261,0.030330271,-0.000879232,-0.001314520,-0.000041311,-0.019157881,-0.001598567,9.760878563
1784240407.727720,-0.001894374,0.003703404,0.030336166,-0.001339569,-0.000872508,0.000350307,-0.050257806,-0.009192406,9.813703537
1784240407.729722,-0.001897993,0.003709469,0.030335953,-0.001596753,-0.000011374,0.000638724,-0.035271455,0.004190252,9.794973373
1784240407.731729,-0.001899024,0.003707469,0.030335955,-0.001570490,0.000220102,0.000449827,-0.031512156,-0.019543014,9.786307335
1784240407.733731,-0.001902200,0.003705586,0.030333042,-0.001520614,-0.000150470,0.000128745,-0.022715276,-0.033214487,9.802816391
1784240407.735728,-0.001903247,0.003702044,0.030327193,-0.001302336,-0.000401956,-0.000501909,-0.024652731,-0.044854369,9.804980278
1784240407.737734,-0.001903247,0.003702044,0.030327193,-0.000908205,-0.000622477,-0.001159737,-0.024652731,-0.044854369,9.804980278
1784240407.739733,-0.001905908,0.003692867,0.030336751,-0.000895115,-0.000909928,-0.001026339,-0.029976331,-0.003878446,9.785961151
1784240407.741733,-0.001905908,0.003692867,0.030336751,-0.001159609,-0.001246135,-0.000316540,-0.029976331,-0.003878446,9.785961151
1784240407.743735,-0.001911322,0.003687316,0.030336760,-0.001279388,-0.001472849,0.000038293,-0.043233983,0.014920794,9.812520027
1784240407.745743,-0.001911322,0.003687316,0.030336760,-0.001293742,-0.001619799,0.000134535,-0.043233983,0.014920794,9.812520027
1784240407.747742,-0.001908839,0.003691231,0.030337332,-0.001010185,-0.001315375,0.000099095,-0.044347171,-0.002576345,9.817787170
1784240407.749758,-0.001908839,0.003691231,0.030337332,-0.000509603,-0.000682129,-0.000032273,-0.044347171,-0.002576345,9.817787170
1784240407.751752,-0.001890619,0.003710268,0.030353008,-0.000034744,0.000020075,0.000607768,-0.023528906,-0.026867937,9.793889999
1784240407.753755,-0.001888509,0.003707201,0.030364186,0.000217251,0.000189584,0.001342871,-0.047472846,-0.039195169,9.806339264
1784240407.755754,-0.001887172,0.003703443,0.030355934,0.000270300,-0.000319895,0.000635095,-0.050231639,-0.043738849,9.820206642
1784240407.757759,-0.001890845,0.003704514,0.030347189,0.000042634,-0.000413205,-0.000691720,-0.031799097,-0.004481475,9.811061859
1784240407.759756,-0.001891757,0.003703443,0.030344274,-0.000302735,-0.000283467,-0.001296438,-0.027499994,0.017788529,9.821969032
1784240407.761758,-0.001887442,0.003702788,0.030347204,-0.000015034,-0.000307635,-0.000942493,-0.011570385,-0.002420888,9.799884796
1784240407.763763,-0.001885245,0.003699817,0.030344807,0.000410639,-0.000399790,-0.000648616,-0.038737480,-0.023056976,9.789416313
1784240407.765763,-0.001886269,0.003698984,0.030340565,0.000360129,-0.000478046,-0.000922564,-0.068241626,-0.010865564,9.829367638
1784240407.767762,-0.001887270,0.003699729,0.030339792,0.000126149,-0.000353601,-0.001013124,-0.037115518,-0.000228211,9.789565086
1784240407.769822,-0.001885302,0.003699212,0.030338198,0.000099508,-0.000301599,-0.000898564,-0.049967576,-0.022201745,9.815413475
1784240407.771772,-0.001880217,0.003696175,0.030338189,0.000493065,-0.000520490,-0.000761728,-0.046106428,-0.038646806,9.789757729
1784240407.773774,-0.001880117,0.003692196,0.030331805,0.000796679,-0.000858132,-0.000987943,-0.034591842,-0.013345788,9.802484512
1784240407.775767,-0.001884264,0.003698023,0.030328406,0.000392078,-0.000501940,-0.001385050,-0.025664462,-0.017476521,9.800224304
1784240407.777774,-0.001879930,0.003699506,0.030327359,0.000299429,0.000131132,-0.001310901,-0.024976866,-0.036975730,9.768716812
1784240407.779768,-0.001875222,0.003693237,0.030331591,0.000927191,-0.000210353,-0.000736748,-0.048302986,0.001774136,9.780151367
1784240407.781781,-0.001876238,0.003691833,0.030337183,0.001019693,-0.000655946,0.000131135,-0.034839898,0.001617562,9.777921677
1784240407.783768,-0.001874008,0.003695242,0.030347856,0.000785707,-0.000331992,0.001199757,-0.046733443,-0.015427183,9.802011490
1784240407.785776,-0.001872074,0.003695388,0.030355580,0.000814946,0.000008962,0.002123553,-0.020972185,0.000702028,9.818727493
1784240407.787769,-0.001872809,0.003696401,0.030353211,0.000673711,0.000084527,0.001910769,-0.027673561,-0.001413018,9.750113487
1784240407.789801,-0.001868209,0.003699175,0.030347917,0.000683766,0.000359772,0.000872626,-0.010879502,-0.019867897,9.794843674
1784240407.791781,-0.001870266,0.003701546,0.030341301,0.000602363,0.000653008,-0.000172104,-0.027014606,-0.020327911,9.762544632
1784240407.793781,-0.001868616,0.003699050,0.030339710,0.000411805,0.000488510,-0.000682769,-0.044737186,-0.035239354,9.812196732
1784240407.795815,-0.001865647,0.003697084,0.030342367,0.000611855,0.000073160,-0.000424077,-0.040854067,-0.049079318,9.798213005
1784240407.797777,-0.001864495,0.003699928,0.030341329,0.000725047,0.000112696,-0.000197665,-0.051454902,-0.034241293,9.809955597
1784240407.799804,-0.001863361,0.003704388,0.030339776,0.000740171,0.000539977,-0.000319442,-0.045648348,-0.037362732,9.797387123
1784240407.801793,-0.001865456,0.003701941,0.030344032,0.000529471,0.000491440,-0.000049476,-0.031254772,-0.035243303,9.788448334
1784240407.803784,-0.001868991,0.003700166,0.030347770,0.000027118,0.000043648,0.000505376,-0.038300909,-0.022348046,9.814975739
1784240407.805799,-0.001874228,0.003703343,0.030346751,-0.000550831,0.000099919,0.000550337,-0.025001345,0.002447040,9.832633018
1784240407.807807,-0.001877607,0.003706518,0.030341472,-0.000984565,0.000504795,-0.000028664,-0.022024553,-0.013478147,9.798459053
1784240407.809796,-0.001877877,0.003703780,0.030333765,-0.000977920,0.000439048,-0.000903252,-0.041435160,-0.022660373,9.801521301
1784240407.811797,-0.001875988,0.003700777,0.030333759,-0.000616845,-0.000028884,-0.001181118,-0.034363866,-0.032115024,9.795190811
1784240407.813836,-0.001876847,0.003699038,0.030336430,-0.000355305,-0.000356070,-0.000679446,-0.024173068,-0.006215249,9.789090157
1784240407.815815,-0.001877574,0.003700299,0.030338043,-0.000342710,-0.000305179,-0.000204343,-0.034239974,-0.020194959,9.819925308
1784240407.817809,-0.001880728,0.003698391,0.030342842,-0.000514676,-0.000267038,0.000285896,-0.037288077,-0.013343091,9.806965828
1784240407.819799,-0.001880713,0.003698077,0.030346578,-0.000587425,-0.000366698,0.000786819,-0.016402589,0.006970043,9.811149597
1784240407.821794,-0.001873193,0.003698186,0.030348970,0.000084702,-0.000302129,0.000991186,-0.007825652,-0.028295396,9.777307510
1784240407.823798,-0.001872666,0.003692969,0.030349225,0.000644296,-0.000524395,0.000904002,-0.048825867,-0.041258737,9.783909798
1784240407.825796,-0.001879330,0.003687409,0.030348958,0.000089896,-0.001070815,0.000656300,-0.053935576,-0.016326504,9.815447807
1784240407.827800,-0.001889393,0.003688269,0.030343683,-0.001068500,-0.001098432,0.000097630,-0.045600191,-0.034550954,9.779920578
1784240407.829807,-0.001893409,0.003688537,0.030339191,-0.001727382,-0.000794789,-0.000596087,-0.014118528,-0.028707383,9.783575058
1784240407.831808,-0.001891241,0.003686040,0.030344239,-0.001379755,-0.000802819,-0.000397395,0.004772479,-0.025752708,9.775093079
1784240407.833805,-0.001893386,0.003681086,0.030342380,-0.000983871,-0.000955308,-0.000072721,-0.023123644,-0.030863998,9.788036346
1784240407.835806,-0.001893654,0.003675996,0.030339973,-0.000858922,-0.001241525,-0.000342886,-0.052425832,-0.040078726,9.813503265
1784240407.837808,-0.001889086,0.003674834,0.030336782,-0.000332412,-0.001328180,-0.000628587,-0.037446547,-0.026346684,9.808673859
1784240407.839807,-0.001887180,0.003675107,0.030331478,0.000218430,-0.001013910,-0.001032918,-0.043183528,-0.018218176,9.810066223
1784240407.841816,-0.001894344,0.003672740,0.030329634,-0.000176969,-0.000866927,-0.001238932,-0.023470961,-0.022763152,9.783603668
1784240407.843817,-0.001903459,0.003669373,0.030327527,-0.001227401,-0.000986949,-0.001174867,-0.031751972,-0.001272614,9.800770760
1784240407.845816,-0.001906956,0.003660578,0.030331494,-0.001745152,-0.001511468,-0.000733098,-0.032469627,0.012721070,9.787409782
1784240407.847812,-0.001906939,0.003655973,0.030338934,-0.001510364,-0.002012153,0.000238903,-0.024925690,0.006691730,9.802621841
1784240407.849812,-0.001901979,0.003656584,0.030336019,-0.000842645,-0.001695405,0.000482235,-0.035860609,-0.007044361,9.800730705
1784240407.851816,-0.001898754,0.003654926,0.030328037,-0.000134603,-0.001262636,-0.000386028,-0.027701236,-0.038005684,9.792469025
1784240407.853820,-0.001902375,0.003643835,0.030323483,-0.000042944,-0.001734096,-0.001131917,-0.042486548,-0.036427561,9.786188126
1784240407.855828,-0.001905259,0.003643009,0.030322438,-0.000392541,-0.002021941,-0.001206293,-0.054760661,-0.013312460,9.771080971
1784240407.857828,-0.001905404,0.003647947,0.030331258,-0.000493448,-0.001194871,-0.000351865,-0.044129908,-0.023861652,9.786268234
1784240407.859828,-0.001905145,0.003650952,0.030335015,-0.000330174,-0.000362916,0.000597165,-0.044298846,-0.036947917,9.799633026
1784240407.861825,-0.001906142,0.003652781,0.030328391,-0.000265290,0.000034168,0.000240268,-0.032930721,-0.064171821,9.764051437
1784240407.863825,-0.001912074,0.003655592,0.030324718,-0.000433565,0.000346861,-0.000525391,-0.017089752,-0.049517572,9.817064285
1784240407.865829,-0.001907226,0.003654382,0.030332165,-0.000162853,0.000366557,-0.000126954,-0.054466154,0.013733360,9.810709000
1784240407.867828,-0.001904786,0.003652960,0.030333230,0.000373965,0.000087263,0.000487140,-0.039095830,0.022141356,9.797776222
1784240407.869830,-0.001902217,0.003650661,0.030335356,0.000512010,-0.000183254,0.000572688,-0.010136231,0.041115221,9.786717415
1784240407.871837,-0.001896586,0.003648126,0.030340660,0.000828051,-0.000456414,0.000923757,-0.023084976,-0.027721912,9.787158966
1784240407.873837,-0.001895998,0.003644543,0.030345978,0.001093532,-0.000693115,0.001395975,-0.049311101,-0.043162484,9.800486565
1784240407.875833,-0.001896487,0.003643426,0.030344928,0.000873123,-0.000768435,0.001306620,-0.058477975,-0.060374901,9.780191422
1784240407.877835,-0.001903319,0.003646881,0.030344978,0.000139371,-0.000400930,0.000881933,-0.024158513,-0.041663975,9.796483040
1784240407.879834,-0.001905728,0.003652202,0.030345565,-0.000372469,0.000315865,0.000683402,0.003370980,0.008985500,9.807146072
1784240407.881923,-0.001901883,0.003657664,0.030345337,-0.000020563,0.000974332,0.000522633,-0.006388278,-0.019486969,9.796195030
1784240407.883859,-0.001900202,0.003663291,0.030345650,0.000344902,0.001506950,0.000387931,-0.077915117,0.043002918,9.832392693
1784240407.885863,-0.001901469,0.003663211,0.030352050,0.000262452,0.001517966,0.000738443,-0.085571557,0.000827954,9.791317940
1784240407.887852,-0.001898244,0.003660451,0.030353902,0.000322055,0.000912065,0.001098867,-0.061324548,0.001057666,9.778339386
1784240407.889874,-0.001893823,0.003658382,0.030357346,0.000742500,0.000179838,0.001161842,-0.026538676,0.019902730,9.774908066
1784240407.891861,-0.001893782,0.003657267,0.030354697,0.000833746,-0.000241386,0.000901121,-0.004086192,-0.015811197,9.779184341
1784240407.893860,-0.001891119,0.003658225,0.030354451,0.000797028,-0.000113601,0.000460720,-0.000441223,-0.046931237,9.801404953
1784240407.895899,-0.001883030,0.003662327,0.030351548,0.001316601,0.000333693,0.000124683,-0.035728216,-0.033457562,9.797422409
1784240407.897874,-0.001879040,0.003656378,0.030353121,0.001779349,0.000117882,0.000003362,-0.034169096,-0.016798500,9.783184052
1784240407.899866,-0.001874881,0.003646542,0.030348288,0.001853707,-0.000953685,-0.000216894,-0.033745021,-0.019024974,9.780479431
1784240407.901861,-0.001873235,0.003646213,0.030343778,0.001750255,-0.001352082,-0.000790660,-0.028733464,-0.049190033,9.791948318
1784240407.903870,-0.001872299,0.003650671,0.030345151,0.001521705,-0.000671247,-0.000788284,-0.042584181,-0.040440504,9.846686363
1784240407.905865,-0.001871479,0.003647691,0.030342491,0.001298717,-0.000355424,-0.000661284,-0.049643219,-0.033320673,9.803237915
1784240407.907857,-0.001872780,0.003645802,0.030337976,0.000915208,-0.000588511,-0.000968838,-0.045514684,-0.026986495,9.787142754
1784240407.909883,-0.001874419,0.003646985,0.030339599,0.000511693,-0.000470758,-0.000902653,-0.068601139,-0.004076809,9.820445061
1784240407.911870,-0.001873354,0.003641875,0.030338250,0.000377591,-0.000604018,-0.000638784,-0.022111887,0.016938087,9.805828094
1784240407.913868,-0.001867005,0.003639833,0.030341698,0.000693666,-0.000868326,-0.000320469,0.019487016,-0.032347437,9.793896675
1784240407.915870,-0.001863450,0.003642630,0.030345442,0.001091660,-0.000524807,0.000257658,-0.009140847,-0.023576327,9.809166908
1784240407.917866,-0.001859658,0.003643600,0.030341731,0.001293931,-0.000126630,0.000192103,-0.066191912,0.008955272,9.810667038
1784240407.919863,-0.001850168,0.003639330,0.030337181,0.001798368,-0.000376957,-0.000417703,-0.053758007,-0.002766846,9.798499107
1784240407.921866,-0.001841890,0.003635993,0.030337162,0.002469466,-0.000852128,-0.000610363,-0.058964528,-0.025914915,9.786688805
1784240407.923871,-0.001840607,0.003637558,0.030345695,0.002490452,-0.000802681,0.000135285,-0.026353911,-0.000423424,9.797644615
1784240407.925870,-0.001843723,0.003639646,0.030345993,0.001732185,-0.000398444,0.000697356,-0.006845249,0.018448604,9.817957878
1784240407.927869,-0.001843403,0.003639858,0.030342290,0.001072927,-0.000133717,0.000276100,-0.037456043,0.008736762,9.789620399
1784240407.929874,-0.001842664,0.003639397,0.030340174,0.000790368,-0.000085995,-0.000193741,-0.051175248,-0.013796873,9.769737244
1784240407.931881,-0.001840188,0.003641703,0.030337537,0.000730548,0.000090746,-0.000462785,-0.041327391,-0.051294297,9.795508385
1784240407.933884,-0.001841468,0.003642082,0.030329049,0.000724560,0.000257749,-0.001091752,-0.018079754,-0.059557989,9.781579971
1784240407.935879,-0.001848876,0.003642118,0.030323762,0.000049941,0.000225750,-0.001732386,-0.032973818,-0.067348897,9.769860268
1784240407.937883,-0.001849395,0.003638902,0.030317644,-0.000498870,-0.000049927,-0.002038113,-0.043844961,-0.036102254,9.805915833
1784240407.939885,-0.001853165,0.003632572,0.030318428,-0.000597197,-0.000706530,-0.001847700,-0.042047668,0.000673717,9.797634125
1784240407.941887,-0.001858436,0.003631739,0.030325362,-0.000994628,-0.001024777,-0.000824073,-0.063065901,0.005960535,9.785094261
1784240407.943893,-0.001862799,0.003636380,0.030327005,-0.001421119,-0.000535504,-0.000020417,-0.021639438,-0.020470034,9.772860527
1784240407.945897,-0.001860318,0.003639218,0.030324107,-0.001203177,0.000071311,-0.000100643,-0.015234697,-0.009043441,9.792666435
1784240407.947895,-0.001854709,0.003635379,0.030324090,-0.000326628,-0.000015683,-0.000269205,-0.047485083,-0.002107220,9.820477486
1784240407.949894,-0.001849181,0.003628910,0.030325653,0.000449198,-0.000694392,-0.000088331,-0.057467140,-0.013795875,9.780940056
1784240407.951900,-0.001851261,0.003628336,0.030325938,0.000492374,-0.000967316,0.000061891,-0.040578313,-0.024613157,9.822580338
1784240407.953900,-0.001848921,0.003634942,0.030330772,0.000387834,-0.000320037,0.000392446,-0.018795662,-0.006744924,9.790884972
1784240407.955896,-0.001845155,0.003633250,0.030329706,0.000708860,0.000075772,0.000543202,-0.018174618,0.006767654,9.779764175
1784240407.957899,-0.001843549,0.003629479,0.030323854,0.000882816,-0.000314781,-0.000072924,-0.048289284,0.004719086,9.807070732
1784240407.959898,-0.001843462,0.003630687,0.030321749,0.000704705,-0.000379575,-0.000593233,-0.063126884,0.002236946,9.804798126
1784240407.961904,-0.001838884,0.003630044,0.030321218,0.000775297,-0.000215160,-0.000609739,-0.028039562,0.008971773,9.802633286
1784240407.963910,-0.001832090,0.003621761,0.030319845,0.001271948,-0.000712492,-0.000570339,-0.036862969,-0.015966650,9.797084808
1784240407.965906,-0.001827755,0.003623788,0.030315612,0.001618231,-0.000893084,-0.000793374,-0.055217478,-0.047313359,9.827800751
1784240407.967903,-0.001826296,0.003630889,0.030310346,0.001574518,-0.000029835,-0.001221557,-0.051420312,-0.067910902,9.819153786
1784240407.969903,-0.001833158,0.003632555,0.030305071,0.000908706,0.000480317,-0.001607360,-0.028005239,-0.064721189,9.769433022
1784240407.971912,-0.001835258,0.003630398,0.030303484,0.000181207,0.000223051,-0.001639578,-0.027063299,-0.061949521,9.756001472
1784240407.973907,-0.001831140,0.003634142,0.030300856,0.000376894,0.000296691,-0.001479922,-0.032553639,-0.030800499,9.796097755
1784240407.975910,-0.001828434,0.003632993,0.030299263,0.000845657,0.000418817,-0.001362715,-0.032301947,0.026607862,9.787499428
1784240407.977910,-0.001827626,0.003627856,0.030305102,0.000853506,-0.000122132,-0.000703713,-0.035914164,0.027285868,9.824710846
1784240407.979924,-0.001820628,0.003627331,0.030306159,0.000985736,-0.000482680,-0.000042730,-0.028533436,0.003757799,9.780631065
1784240407.981920,-0.001817632,0.003628571,0.030303253,0.001232811,-0.000311328,-0.000154264,-0.002711309,-0.012359220,9.795347214
1784240407.983917,-0.001809502,0.003623386,0.030306153,0.001645774,-0.000351780,-0.000109703,0.002437995,-0.032926317,9.779977798
1784240407.985923,-0.001805997,0.003621953,0.030306952,0.001980216,-0.000563154,0.000174525,-0.020964837,-0.038450856,9.779919624
1784240407.987919,-0.001813645,0.003624105,0.030303808,0.001161875,-0.000361156,-0.000033314,-0.037261665,-0.010703011,9.813706398
1784240407.989924,-0.001817388,0.003623238,0.030301165,0.000042182,-0.000188919,-0.000420088,-0.044124901,-0.023416869,9.786717415
1784240407.991925,-0.001818699,0.003620009,0.030300103,-0.000343846,-0.000428949,-0.000558788,-0.038553294,-0.043792944,9.806768417
1784240407.993924,-0.001827282,0.003617520,0.030300125,-0.000879387,-0.000674169,-0.000480108,-0.046594881,-0.002986023,9.816436768
1784240407.995921,-0.001830683,0.003617748,0.030302010,-0.001412102,-0.000618501,-0.000223141,-0.047072981,-0.006049231,9.807002068
1784240407.997926,-0.001829818,0.003619290,0.030295920,-0.001199833,-0.000329885,-0.000448800,-0.027165009,-0.030431066,9.797450066
1784240407.999925,-0.001831932,0.003622171,0.030292500,-0.000952178,0.000043571,-0.000973168,-0.010705793,-0.043523371,9.781689644
1784240408.001928,-0.001837510,0.003619008,0.030286929,-0.001209264,-0.000003859,-0.001321537,-0.045046855,0.013990634,9.820582390
1784240408.003938,-0.001833619,0.003620841,0.030289333,-0.001090934,-0.000116138,-0.001178127,-0.037134737,-0.002000977,9.786863327
1784240408.005937,-0.001832980,0.003625545,0.030288581,-0.000583840,0.000335513,-0.000745082,-0.026037343,-0.050409433,9.769525528
1784240408.007932,-0.001840632,0.003626881,0.030290209,-0.000901507,0.000654277,-0.000484917,-0.012222103,-0.055791855,9.808509827
1784240408.009938,-0.001845545,0.003628733,0.030287599,-0.001441139,0.000782596,-0.000422821,-0.025771327,-0.062799476,9.810244560
1784240408.011941,-0.001845706,0.003633175,0.030288169,-0.001325521,0.001087022,-0.000447808,-0.054410815,-0.020177528,9.790764809
1784240408.013942,-0.001859532,0.003632552,0.030287679,-0.001932165,0.000991372,-0.000324462,-0.043917235,-0.007998595,9.760366440
1784240408.015939,-0.001863506,0.003629352,0.030286621,-0.002632602,0.000403167,-0.000346217,-0.037946630,0.005574991,9.794084549
1784240408.017937,-0.001856804,0.003627604,0.030291136,-0.001733500,-0.000042634,-0.000016938,-0.037348319,0.018502876,9.802238464
1784240408.019938,-0.001854065,0.003629786,0.030294877,-0.000749773,0.000005051,0.000550468,-0.051347986,-0.027318375,9.781306267
1784240408.021948,-0.001855546,0.003635581,0.030292537,-0.000587010,0.000552617,0.000496448,-0.040285274,-0.040437084,9.778991699
1784240408.023978,-0.001861723,0.003638515,0.030284069,-0.000917839,0.001015447,-0.000373646,-0.035396378,-0.007332733,9.777416229
1784240408.025971,-0.001872034,0.003640965,0.030279869,-0.001757694,0.001125857,-0.001136078,-0.021713316,-0.024295378,9.806909561
1784240408.028005,-0.001867742,0.003638186,0.030283317,-0.001688748,0.000797985,-0.000880364,-0.038128588,-0.046419688,9.797336578
1784240408.030001,-0.001862678,0.003629631,0.030288065,-0.000526682,-0.000158587,-0.000082549,-0.061102696,-0.054539166,9.783363342
1784240408.031971,-0.001864268,0.003625073,0.030288594,-0.000078761,-0.000975918,0.000298776,-0.058228288,-0.037735563,9.809477806
1784240408.034035,-0.001864956,0.003627677,0.030285697,-0.000195773,-0.000879375,0.000056216,-0.000089414,-0.018217213,9.795312881
1784240408.035968,-0.001865425,0.003628968,0.030279607,-0.000203322,-0.000411133,-0.000569442,-0.025976492,-0.003828816,9.834834099
1784240408.037967,-0.001865915,0.003627853,0.030278286,-0.000211421,-0.000286650,-0.000918127,-0.041980568,0.044061754,9.807777405
1784240408.039976,-0.001862348,0.003623810,0.030279865,-0.000113807,-0.000542277,-0.000650403,-0.040574003,-0.025794880,9.799708366
1784240408.041981,-0.001860714,0.003621869,0.030280134,0.000101093,-0.000784710,-0.000347143,-0.043681491,-0.022653881,9.804656029
1784240408.043972,-0.001860735,0.003622120,0.030283071,0.000187645,-0.000727129,-0.000034768,-0.059258491,-0.011314046,9.813234329
1784240408.045976,-0.001859580,0.003624952,0.030284693,0.000217830,-0.000361395,0.000284804,-0.035557948,-0.019145064,9.800652504
1784240408.047973,-0.001857414,0.003623834,0.030277252,0.000385563,-0.000146214,-0.000186465,-0.020010984,-0.033153590,9.789367676
1784240408.049968,-0.001860797,0.003621069,0.030282581,0.000214174,-0.000329826,-0.000279417,-0.029864019,-0.031260699,9.792958260
1784240408.051967,-0.001867961,0.003618701,0.030280739,-0.000545345,-0.000549063,0.000030471,-0.050297789,0.024029242,9.804501534
1784240408.053976,-0.001874731,0.003613124,0.030275417,-0.001461419,-0.000970423,-0.000467885,-0.065962739,-0.012641275,9.759867668
1784240408.055972,-0.001878735,0.003607275,0.030273547,-0.001914351,-0.001513681,-0.000831908,-0.043427210,-0.002409785,9.792681694
1784240408.057975,-0.001876303,0.003606157,0.030265575,-0.001498917,-0.001574384,-0.001274562,-0.046822295,-0.024233783,9.780434608
1784240408.059972,-0.001875625,0.003612171,0.030257111,-0.000880046,-0.000899279,-0.002043815,-0.037974320,-0.033854514,9.794279099
1784240408.061979,-0.001875541,0.003613935,0.030263251,-0.000592075,-0.000213592,-0.001646642,-0.050028279,-0.027138855,9.816726685
1784240408.063979,-0.001880490,0.003614662,0.030269397,-0.000731502,-0.000022384,-0.000366727,-0.084302202,-0.005063665,9.798455238
1784240408.065991,-0.001883634,0.003613543,0.030275527,-0.001052169,-0.000078720,0.000564238,-0.036158148,0.006717814,9.819199562
1784240408.067980,-0.001884098,0.003614265,0.030278739,-0.001013713,-0.000085478,0.001044491,-0.023690177,-0.002303820,9.805254936
1784240408.070023,-0.001880758,0.003618881,0.030276114,-0.000599922,0.000341073,0.000801657,-0.037778098,-0.016095061,9.816810608
1784240408.072000,-0.001875613,0.003621964,0.030271083,0.000084288,0.000813107,0.000066655,-0.034177393,-0.054048613,9.791911125
1784240408.073994,-0.001877798,0.003625592,0.030270332,0.000364106,0.001032567,-0.000343464,-0.037815616,-0.021254374,9.786289215
1784240408.076055,-0.001882274,0.003624489,0.030276198,-0.000087805,0.000906987,0.000095261,-0.039580256,0.020243974,9.813454628
1784240408.077997,-0.001884660,0.003620203,0.030276990,-0.000531406,0.000294096,0.000520092,-0.025252871,0.014951559,9.775774002
1784240408.079990,-0.001883462,0.003619770,0.030274075,-0.000616930,-0.000043304,0.000234852,-0.007196495,-0.012692457,9.787270546
1784240408.081992,-0.001887303,0.003629309,0.030269898,-0.000776748,0.000650017,-0.000310849,-0.015569356,-0.000437400,9.780168533
1784240408.083996,-0.001883496,0.003630952,0.030263003,-0.000619772,0.001297799,-0.000977935,-0.033132035,-0.005575996,9.778326035
1784240408.085993,-0.001878463,0.003623692,0.030258447,0.000097042,0.000629366,-0.001487347,-0.046949517,-0.034559149,9.783505440
1784240408.087989,-0.001875786,0.003620169,0.030253921,0.000596280,-0.000272310,-0.001698330,-0.061955269,-0.050121196,9.793703079
1784240408.089993,-0.001877616,0.003626522,0.030254500,0.000606135,-0.000135493,-0.001505184,-0.030932777,-0.044354539,9.809013367
1784240408.091999,-0.001878343,0.003628062,0.030252935,0.000381509,0.000307443,-0.001164366,-0.027836163,-0.012828259,9.780525208
1784240408.094002,-0.001878469,0.003625402,0.030249476,0.000195959,0.000218032,-0.001189191,-0.021826446,-0.034509454,9.794290543
1784240408.095999,-0.001875175,0.003628460,0.030254820,0.000332019,0.000255089,-0.000736928,-0.062626347,0.007098354,9.813348770
1784240408.098000,-0.001872432,0.003629658,0.030262554,0.000648411,0.000473085,0.000352126,-0.041279852,-0.010492286,9.791287422
1784240408.100004,-0.001873930,0.003630282,0.030263368,0.000479748,0.000440087,0.000836906,-0.036310472,-0.007858225,9.789963722
1784240408.102006,-0.001873589,0.003632623,0.030257812,0.000197115,0.000495302,0.000287661,-0.022740185,-0.034221694,9.818501472
1784240408.104011,-0.001869561,0.003630587,0.030259674,0.000478798,0.000493826,-0.000039708,-0.022869319,-0.046183098,9.799594879
1784240408.106008,-0.001870584,0.003629202,0.030260742,0.000589790,0.000239011,0.000171538,-0.032930415,-0.024958540,9.794340134
1784240408.108011,-0.001870803,0.003628619,0.030258361,0.000345719,0.000040656,0.000036013,-0.058998235,0.009787820,9.806644440
1784240408.110012,-0.001868381,0.003631548,0.030266363,0.000332815,0.000197486,0.000408572,-0.081607513,0.031700809,9.790174484
1784240408.112019,-0.001867770,0.003632773,0.030273035,0.000377540,0.000433383,0.001294503,-0.011999758,-0.002262517,9.778367043
1784240408.114017,-0.001864608,0.003633585,0.030269064,0.000520553,0.000609021,0.001127759,-0.030220538,-0.024043061,9.786727905
1784240408.116012,-0.001862175,0.003631912,0.030266676,0.000750623,0.000541385,0.000391637,-0.027270010,-0.000964817,9.812433243
1784240408.118015,-0.001859388,0.003637635,0.030270441,0.000900838,0.000669083,0.000379840,-0.036419626,-0.017230434,9.784972191
1784240408.120022,-0.001859996,0.003645940,0.030270504,0.000728211,0.001466123,0.000537187,-0.043094877,-0.050245013,9.777132034
1784240408.122018,-0.001859400,0.003646391,0.030272111,0.000454268,0.001689257,0.000505171,-0.026193148,-0.023370575,9.810945511
1784240408.124030,-0.001851658,0.003648039,0.030274516,0.000917984,0.001357682,0.000642615,-0.031974427,-0.018428681,9.819490433
1784240408.126024,-0.001845201,0.003648976,0.030271599,0.001654670,0.001149712,0.000436681,-0.029184571,-0.011613393,9.801156044
1784240408.128024,-0.001849650,0.003651081,0.030271368,0.001342433,0.001044467,0.000105051,-0.032193493,-0.037989523,9.798293114
1784240408.130030,-0.001859349,0.003645759,0.030279355,0.000077991,0.000542460,0.000599569,-0.045498036,0.011950537,9.793219566
1784240408.132038,-0.001861179,0.003643588,0.030280160,-0.000665642,-0.000113591,0.001030692,-0.055125754,-0.004541444,9.798485756
1784240408.134040,-0.001854153,0.003644350,0.030270854,-0.000152048,-0.000235718,0.000175052,-0.044230476,0.005639575,9.796319962
1784240408.136042,-0.001847154,0.003645798,0.030271394,0.000821490,-0.000079049,-0.000464004,-0.012225020,0.018149121,9.806742668
1784240408.138036,-0.001846772,0.003650751,0.030274892,0.001098418,0.000376415,-0.000061847,-0.030680289,-0.024529785,9.793001175
1784240408.140040,-0.001848852,0.003654037,0.030279990,0.000758793,0.000874165,0.000538065,-0.048985984,-0.015875014,9.806040764
1784240408.142043,-0.001844532,0.003654192,0.030279467,0.000779713,0.000911551,0.000702932,-0.071551204,-0.027961938,9.782179832
1784240408.144035,-0.001843255,0.003656302,0.030276030,0.000974405,0.000688406,0.000244268,-0.005033538,-0.019030813,9.792613029
1784240408.146047,-0.001842908,0.003657523,0.030284297,0.000844394,0.000597123,0.000505811,-0.018505827,-0.019757442,9.793043137
1784240408.148039,-0.001844423,0.003659856,0.030285390,0.000533551,0.000675067,0.001003684,-0.075491123,-0.017407149,9.817213058
1784240408.150050,-0.001844055,0.003660356,0.030277690,0.000344115,0.000576099,0.000282462,-0.064685374,0.022767579,9.818826675
1784240408.152055,-0.001843967,0.003663206,0.030277720,0.000315152,0.000539266,-0.000314778,-0.023521760,0.009562565,9.774396896
1784240408.154051,-0.001842665,0.003663228,0.030278260,0.000275407,0.000581201,-0.000189902,0.000838028,-0.015560023,9.798021317
1784240408.156046,-0.001844200,0.003663432,0.030280944,0.000135594,0.000431847,0.000080409,-0.044926096,-0.016161680,9.776003838
1784240408.158054,-0.001850538,0.003663165,0.030282037,-0.000436602,0.000309895,0.000312611,-0.042364392,-0.063326880,9.788257599
1784240408.160050,-0.001847474,0.003664234,0.030287372,-0.000455742,0.000251658,0.000663088,-0.024839858,-0.060110487,9.808469772
1784240408.162050,-0.001842372,0.003662511,0.030290022,0.000306492,0.000110203,0.001027399,-0.061460186,-0.010144543,9.778716087
1784240408.164047,-0.001847075,0.003665328,0.030290592,0.000194007,0.000052347,0.000967054,-0.067890696,-0.021774635,9.787602425
1784240408.166055,-0.001847007,0.003666047,0.030293006,-0.000229645,0.000175987,0.000905422,-0.038311798,-0.025270736,9.784918785
1784240408.168058,-0.001838700,0.003664811,0.030297520,0.000399447,0.000092294,0.001131823,-0.035409153,-0.009054627,9.767540932
1784240408.170053,-0.001835855,0.003665523,0.030295938,0.001057258,0.000030833,0.001026291,-0.029238487,-0.015686376,9.806956291
1784240408.172054,-0.001838976,0.003666254,0.030303674,0.000759899,0.000119099,0.001165541,-0.040883690,-0.014154861,9.801575661
1784240408.174064,-0.001839831,0.003668507,0.030312480,0.000271368,0.000272012,0.001971066,-0.054480653,0.010782052,9.784686089
1784240408.176062,-0.001834735,0.003666806,0.030310083,0.000475833,0.000219578,0.001871891,-0.049065754,-0.025015103,9.768321991
1784240408.178065,-0.001833060,0.003668850,0.030308509,0.000807269,0.000183729,0.001095925,-0.030990038,-0.049669664,9.800460815
1784240408.180059,-0.001831831,0.003671447,0.030307213,0.000853180,0.000483265,0.000604353,-0.025525160,-0.041808896,9.819345474
1784240408.182066,-0.001832854,0.003670339,0.030305365,0.000703536,0.000487568,0.000226713,-0.033882543,-0.029026384,9.801038742
1784240408.184072,-0.001835222,0.003664087,0.030303225,0.000316054,-0.000189932,-0.000106783,-0.053819347,-0.007303690,9.806540489
1784240408.186074,-0.001834644,0.003663228,0.030301375,0.000142449,-0.000666656,-0.000349465,-0.023532351,-0.026489928,9.803755760
1784240408.188067,-0.001828957,0.003666275,0.030303258,0.000528957,-0.000337167,-0.000250894,-0.020878796,0.007923455,9.811152458
1784240408.190078,-0.001824830,0.003666949,0.030306993,0.000974276,0.000078764,0.000201243,-0.064225346,-0.012712335,9.829809189
1784240408.192079,-0.001818407,0.003664150,0.030309906,0.001348462,-0.000015196,0.000600694,-0.058972344,-0.023545109,9.831535339
1784240408.194076,-0.001815835,0.003666220,0.030315248,0.001602518,-0.000102108,0.000999869,-0.053242497,0.004238977,9.820511818
1784240408.196075,-0.001823740,0.003669439,0.030311307,0.000816729,0.000243906,0.000822054,-0.047836095,0.003938242,9.790028572
1784240408.198080,-0.001828729,0.003671298,0.030307889,-0.000278383,0.000523261,0.000096130,-0.028034449,-0.026956711,9.814508438
1784240408.200073,-0.001829543,0.003672275,0.030310571,-0.000608938,0.000556970,0.000018393,-0.022912415,-0.049360167,9.805402756
1784240408.202082,-0.001825769,0.003670554,0.030316157,-0.000257137,0.000337385,0.000575106,-0.006338909,-0.016665654,9.777383804
1784240408.204087,-0.001814267,0.003669809,0.030319076,0.000812674,0.000168536,0.000999960,-0.015375086,0.016496092,9.792830467
1784240408.206084,-0.001809638,0.003673389,0.030323090,0.001650417,0.000405549,0.001203250,-0.023937030,0.012669068,9.779347420
1784240408.208081,-0.001815098,0.003680818,0.030320233,0.001145614,0.001042650,0.000955020,-0.049775232,-0.009741135,9.763935089
1784240408.210083,-0.001818756,0.003686003,0.030323740,0.000200004,0.001567221,0.000737502,-0.059894215,-0.028184552,9.792502403
1784240408.212096,-0.001818461,0.003683279,0.030324802,-0.000099177,0.001259534,0.000846596,-0.027982086,-0.023706516,9.798388481
1784240408.214096,-0.001809442,0.003685603,0.030324817,0.000622783,0.000954694,0.000692440,-0.012699800,-0.021261917,9.805145264
1784240408.216094,-0.001798750,0.003684381,0.030320019,0.001855941,0.000835426,0.000184695,-0.070165098,0.013979100,9.804417610
1784240408.218094,-0.001800563,0.003684354,0.030315787,0.001956954,0.000524919,-0.000476533,-0.024864245,-0.025144693,9.806004524
1784240408.220100,-0.001802082,0.003682950,0.030320583,0.001197328,0.000303717,-0.000309662,-0.027328020,-0.007096366,9.792668343
1784240408.222105,-0.001799101,0.003682317,0.030321656,0.000968119,0.000100867,0.000173221,-0.042443842,0.004336289,9.787346840
1784240408.224103,-0.001799643,0.003681593,0.030319804,0.000802423,-0.000026155,0.000073819,-0.027445637,-0.016535344,9.797090530
1784240408.226103,-0.001800452,0.003675162,0.030322175,0.000424099,-0.000512448,0.000089061,-0.049718264,-0.040802460,9.784359932
1784240408.228104,-0.001801693,0.003678568,0.030319555,0.000169823,-0.000578617,0.000047648,-0.048004635,-0.009144841,9.802946091
1784240408.230131,-0.001801879,0.003682497,0.030315343,0.000047316,0.000059240,-0.000429894,-0.049689997,-0.000963153,9.789547920
1784240408.232240,-0.001804267,0.003678216,0.030315079,-0.000120290,0.000001783,-0.000618345,-0.025326703,-0.027273821,9.791195869
1784240408.234167,-0.001808483,0.003679785,0.030316442,-0.000497386,-0.000129644,-0.000377446,0.007425797,-0.028525848,9.782252312
1784240408.236137,-0.001814203,0.003686098,0.030327411,-0.001001155,0.000492401,0.000559857,-0.017214559,-0.025070734,9.781802177
1784240408.238128,-0.001810676,0.003686515,0.030329818,-0.000881542,0.000813871,0.001314920,-0.048678316,-0.027530929,9.806414604
1784240408.240135,-0.001807622,0.003687780,0.030327177,-0.000090996,0.000686135,0.000943434,-0.049828496,-0.011377545,9.805171967
1784240408.242132,-0.001805924,0.003691671,0.030327743,0.000361191,0.000829179,0.000547566,-0.032603588,0.000721506,9.773881912
1784240408.244136,-0.001803092,0.003693621,0.030329885,0.000509225,0.000951348,0.000583925,-0.041909106,0.013114884,9.812061310
1784240408.246122,-0.001801727,0.003691970,0.030325096,0.000595761,0.000664807,0.000247250,-0.055053465,0.039697990,9.814908981
1784240408.248148,-0.001810224,0.003689623,0.030322194,-0.000048195,0.000213803,-0.000343471,-0.035987895,0.018193468,9.780267715
1784240408.250130,-0.001815481,0.003693032,0.030319843,-0.001093509,0.000142457,-0.000610822,-0.004094179,-0.013848024,9.818202019
1784240408.252127,-0.001815379,0.003697759,0.030315101,-0.001270904,0.000570937,-0.000928342,-0.019093148,0.003370343,9.755082130
1784240408.254124,-0.001811891,0.003696233,0.030306326,-0.000732691,0.000644551,-0.001593164,-0.040641446,-0.032406185,9.784422874
1784240408.256123,-0.001812698,0.003690894,0.030301262,-0.000402211,0.000014983,-0.002099436,-0.094105147,-0.037123002,9.787927628
1784240408.258132,-0.001817177,0.003689800,0.030305006,-0.000651447,-0.000425570,-0.001620492,-0.038960557,-0.002222809,9.821381569
1784240408.260129,-0.001822725,0.003692768,0.030306639,-0.001171562,-0.000187650,-0.000817716,-0.017387519,-0.000598826,9.806168556
1784240408.262124,-0.001831161,0.003695712,0.030306159,-0.001818031,0.000260316,-0.000520626,-0.057718489,-0.035637863,9.765555382
1784240408.264134,-0.001827623,0.003696808,0.030304845,-0.001621710,0.000382687,-0.000502845,-0.015142851,0.000192044,9.816935539
1784240408.266137,-0.001827045,0.003696498,0.030298471,-0.000865378,0.000251664,-0.000887283,-0.013227512,-0.029579826,9.778637886
1784240408.268132,-0.001832562,0.003698897,0.030294258,-0.000963022,0.000326420,-0.001365995,-0.037074946,0.004549920,9.810667038
1784240408.270181,-0.001835048,0.003701753,0.030296421,-0.001268236,0.000595851,-0.001136248,-0.031665429,0.005894759,9.800816536
1784240408.272162,-0.001832599,0.003700849,0.030300148,-0.000951844,0.000567009,-0.000427724,-0.028790651,-0.017725255,9.777803421
1784240408.274144,-0.001832507,0.003697954,0.030298552,-0.000507889,0.000167263,-0.000166067,-0.018256333,-0.035114698,9.809983253
1784240408.276170,-0.001835125,0.003696576,0.030302020,-0.000528326,-0.000156128,0.000005769,-0.050577570,-0.000468715,9.784617424
1784240408.278141,-0.001832691,0.003694348,0.030305477,-0.000399015,-0.000359374,0.000474344,-0.049042668,-0.020780327,9.802869797
1784240408.280146,-0.001824177,0.003695115,0.030302020,0.000474896,-0.000404971,0.000348158,-0.040708359,-0.000207654,9.793147087
1784240408.282140,-0.001823896,0.003691334,0.030301746,0.000966335,-0.000543068,0.000002693,-0.045708179,-0.005513584,9.792212486
1784240408.284164,-0.001824931,0.003691169,0.030300172,0.000600281,-0.000690635,-0.000124024,-0.052435312,-0.002158442,9.836612701
1784240408.286151,-0.001830414,0.003696477,0.030297836,-0.000057155,-0.000181065,-0.000357934,-0.037109647,-0.000587139,9.777008057
1784240408.288160,-0.001837829,0.003695713,0.030293874,-0.000915559,0.000177241,-0.000691475,-0.008881164,-0.002884269,9.797195435
1784240408.290157,-0.001843973,0.003693596,0.030294422,-0.001618372,0.000005899,-0.000738419,-0.042434752,-0.030750325,9.806847572
1784240408.292151,-0.001844395,0.003698023,0.030298982,-0.001657791,0.000232425,-0.000192251,-0.042325489,-0.022998268,9.787619591
1784240408.294150,-0.001843082,0.003701172,0.030299811,-0.001123168,0.000661250,0.000226044,-0.057658747,-0.025440050,9.843630791
1784240408.296156,-0.001845146,0.003701917,0.030301429,-0.000844429,0.000724067,0.000330630,-0.066093810,-0.019754967,9.815413475
1784240408.298156,-0.001841642,0.003700488,0.030301429,-0.000517803,0.000480842,0.000351252,-0.072847366,-0.021876736,9.810911179
1784240408.300186,-0.001841913,0.003699889,0.030300908,-0.000119139,0.000086818,0.000220907,-0.039851174,-0.004184029,9.783706665
1784240408.302161,-0.001840011,0.003697667,0.030304367,0.000061659,-0.000254479,0.000360149,-0.045112301,-0.030194746,9.796537399
1784240408.304173,-0.001838880,0.003698964,0.030306507,0.000286060,-0.000253228,0.000643643,-0.034457207,-0.040146533,9.790656090
1784240408.306165,-0.001842754,0.003704770,0.030307360,0.000058071,0.000292988,0.000672064,-0.023541048,-0.028990095,9.777287483
1784240408.308162,-0.001845104,0.003703386,0.030311631,-0.000381504,0.000512971,0.000835756,-0.042382959,0.009680027,9.791864395
1784240408.310161,-0.001845161,0.003704625,0.030316968,-0.000525182,0.000345456,0.001260340,-0.034790415,0.005655568,9.777050972
1784240408.312187,-0.001847722,0.003708006,0.030323658,-0.000644811,0.000546574,0.001733887,-0.014537125,0.010746947,9.780689240
1784240408.314170,-0.001848354,0.003706682,0.030317022,-0.000730981,0.000608060,0.001266058,-0.030146196,-0.018187763,9.782280922
1784240408.316175,-0.001849641,0.003705568,0.030317565,-0.000705673,0.000348461,0.000508502,-0.045303755,-0.047105975,9.780737877
1784240408.318168,-0.001853278,0.003708722,0.030317873,-0.000848545,0.000392198,0.000427018,-0.043981977,-0.047720626,9.801806450
1784240408.320169,-0.001854977,0.003709961,0.030315507,-0.000914625,0.000550861,0.000169855,-0.032223184,-0.039844964,9.807248116
1784240408.322208,-0.001853622,0.003707240,0.030312847,-0.000623068,0.000268019,-0.000217736,-0.006225887,-0.004831439,9.814223289
1784240408.324188,-0.001856278,0.003708160,0.030309685,-0.000572476,0.000136044,-0.000554091,-0.036026783,0.015454831,9.787425041
1784240408.326178,-0.001858336,0.003709162,0.030313434,-0.000768963,0.000291750,-0.000364847,-0.026020581,-0.010255703,9.793544769
1784240408.328178,-0.001852144,0.003708998,0.030320881,-0.000282428,0.000267969,0.000495324,-0.071391761,-0.049298499,9.821047783
1784240408.330187,-0.001849503,0.003710764,0.030320903,0.000470165,0.000229902,0.000869742,-0.052629597,-0.059518740,9.775269508
1784240408.332198,-0.001852883,0.003713393,0.030319342,0.000370992,0.000392908,0.000528773,-0.043251429,-0.024022596,9.807338715
1784240408.334184,-0.001858796,0.003714465,0.030320182,-0.000333772,0.000554142,0.000333768,-0.040403508,-0.011885829,9.796659470
1784240408.336179,-0.001856889,0.003713323,0.030318860,-0.000488371,0.000415630,0.000208905,-0.024152812,-0.004839573,9.784615517
1784240408.338178,-0.001857083,0.003714854,0.030318087,-0.000238953,0.000329485,0.000010290,-0.031666763,0.004668528,9.784220695
1784240408.340186,-0.001861714,0.003714202,0.030323956,-0.000581362,0.000395386,0.000352884,-0.068758473,-0.019097630,9.790757179
1784240408.342183,-0.001867038,0.003709426,0.030322628,-0.001178902,0.000015388,0.000563419,-0.044715263,0.002928941,9.800336838
1784240408.344187,-0.001866002,0.003713312,0.030315483,-0.001211797,-0.000026362,-0.000165798,-0.024274802,-0.015123603,9.781859398
1784240408.346185,-0.001870197,0.003714356,0.030314716,-0.001159240,0.000338159,-0.000658600,-0.028975016,-0.032149039,9.790263176
1784240408.348201,-0.001873904,0.003711972,0.030308075,-0.001379025,0.000156289,-0.000984400,-0.020273242,-0.016681388,9.804718971
1784240408.350189,-0.001875913,0.003712388,0.030305445,-0.001393612,0.000077002,-0.001347577,-0.027009238,0.018520085,9.781176567
1784240408.352194,-0.001875265,0.003716792,0.030312931,-0.001112202,0.000478206,-0.000652380,-0.052737296,-0.028858047,9.811334610
1784240408.354192,-0.001873669,0.003719596,0.030315619,-0.000564950,0.000728577,0.000215410,-0.059996285,-0.035069317,9.815771103
1784240408.356196,-0.001875811,0.003714556,0.030306034,-0.000351315,0.000272079,-0.000311584,-0.052999571,-0.015222683,9.784520149
1784240408.358196,-0.001877666,0.003710544,0.030303374,-0.000524142,-0.000414705,-0.001059024,-0.014448230,-0.018846489,9.783638954
1784240408.360197,-0.001875571,0.003709456,0.030303646,-0.000340795,-0.000598464,-0.000933355,-0.044907443,0.022791242,9.779841423
1784240408.362200,-0.001873854,0.003715209,0.030302893,0.000034712,-0.000069744,-0.000711368,-0.030204177,0.016107488,9.811195374
1784240408.364205,-0.001876614,0.003715033,0.030304510,-0.000143155,0.000391734,-0.000459686,-0.020296836,0.015453925,9.759194374
1784240408.366203,-0.001876302,0.003714724,0.030298671,-0.000366784,0.000317050,-0.000621761,-0.032869481,-0.020424874,9.786748886
1784240408.368203,-0.001872025,0.003711997,0.030289885,0.000048002,0.000026743,-0.001444247,-0.046197861,-0.045042265,9.807200432
1784240408.370237,-0.001870381,0.003708856,0.030289883,0.000509978,-0.000368894,-0.001647053,-0.046296883,-0.017555092,9.785409927
1784240408.372209,-0.001871365,0.003711188,0.030289914,0.000487207,-0.000314905,-0.001197749,-0.042839773,0.010432258,9.812939644
1784240408.374210,-0.001873376,0.003716141,0.030286241,0.000024508,0.000216765,-0.001121127,-0.057650920,0.009780112,9.805299759
1784240408.376210,-0.001871727,0.003716075,0.030281998,-0.000132830,0.000441921,-0.001354755,-0.012702616,-0.021284174,9.808282852
1784240408.378207,-0.001865811,0.003716219,0.030280141,0.000418259,0.000328003,-0.001399080,-0.004868803,-0.006382972,9.777898788
1784240408.380217,-0.001865359,0.003714933,0.030287595,0.000672982,0.000223728,-0.000637441,-0.021082787,-0.011113117,9.779197693
1784240408.382284,-0.001870644,0.003713326,0.030289477,0.000097240,0.000028430,0.000168255,-0.040399075,-0.011850852,9.791727066
1784240408.384248,-0.001876122,0.003706448,0.030289462,-0.000669346,-0.000556981,0.000246725,-0.049847949,-0.015583711,9.766588211
1784240408.386227,-0.001877483,0.003698714,0.030287847,-0.000960526,-0.001398871,0.000067326,-0.041984372,0.006036536,9.799462318
1784240408.388238,-0.001878751,0.003699461,0.030286800,-0.000877551,-0.001492941,-0.000132209,-0.040068392,-0.021298762,9.796600342
1784240408.390288,-0.001873413,0.003700395,0.030290000,-0.000377744,-0.000992225,0.000051233,-0.047632761,-0.054641686,9.773512840
1784240408.392275,-0.001870152,0.003700813,0.030292407,0.000292950,-0.000650203,0.000419903,-0.041560482,-0.034186535,9.784410477
1784240408.394266,-0.001874022,0.003700022,0.030289501,0.000184949,-0.000482061,0.000271885,-0.030051520,0.028659942,9.809930801
1784240408.396249,-0.001875320,0.003698122,0.030287651,-0.000202137,-0.000516468,-0.000126138,-0.042281974,-0.016981186,9.823525429
1784240408.398264,-0.001870192,0.003699339,0.030284733,0.000113857,-0.000421987,-0.000414478,-0.020043259,-0.035434730,9.795183182
1784240408.400247,-0.001870762,0.003701141,0.030281838,0.000473708,-0.000084125,-0.000695033,-0.019739784,-0.009939101,9.800726891
1784240408.402246,-0.001870993,0.003698949,0.030283704,0.000370953,-0.000070044,-0.000576354,-0.029746283,-0.020605024,9.806476593
1784240408.404249,-0.001867690,0.003696698,0.030280251,0.000546175,-0.000350248,-0.000527222,-0.088906802,-0.052845195,9.784245491
1784240408.406241,-0.001865523,0.003695852,0.030270943,0.000839335,-0.000461514,-0.001248826,-0.087256469,-0.026550382,9.801003456
1784240408.408245,-0.001865214,0.003694178,0.030274140,0.000781013,-0.000506407,-0.001323442,-0.026104761,-0.016593929,9.802919388
1784240408.410243,-0.001866698,0.003699282,0.030278705,0.000433599,-0.000109599,-0.000437196,-0.013350819,-0.038253251,9.801447868
1784240408.412259,-0.001869239,0.003705340,0.030279558,-0.000012317,0.000704524,0.000048577,-0.043011423,-0.004296411,9.805224419
1784240408.414253,-0.001866699,0.003704347,0.030282751,-0.000071214,0.000791313,0.000309800,-0.057599541,0.012617321,9.784247398
1784240408.416251,-0.001860015,0.003700739,0.030288054,0.000510902,0.000197946,0.000804315,-0.036691338,-0.038827952,9.798283577
1784240408.418253,-0.001858382,0.003697705,0.030296024,0.000933405,-0.000308288,0.001489081,-0.022231767,-0.032540157,9.770092964
1784240408.420251,-0.001860608,0.003699035,0.030298978,0.000703494,-0.000274299,0.001826850,-0.039514735,-0.012370725,9.800243378
1784240408.422252,-0.001860210,0.003705855,0.030300099,0.000453951,0.000420195,0.001607164,-0.059089199,0.040175430,9.818046570
1784240408.424259,-0.001860616,0.003707502,0.030298784,0.000144937,0.000803275,0.001157411,-0.045858428,0.016706174,9.755142212
1784240408.426257,-0.001867182,0.003711505,0.030294053,-0.000551426,0.000891871,0.000430820,-0.033402242,0.009212472,9.778419495
1784240408.428264,-0.001862284,0.003715075,0.030299660,-0.000515130,0.001163663,0.000372871,-0.017778635,-0.034891512,9.777703285
1784240408.430283,-0.001861935,0.003716132,0.030301549,0.000033746,0.001281262,0.000782334,-0.048513263,-0.054496646,9.754683495
1784240408.432276,-0.001865368,0.003713994,0.030298900,-0.000129805,0.000980456,0.000517969,-0.066093542,-0.058558449,9.790506363
1784240408.434303,-0.001867817,0.003711342,0.030295717,-0.000379750,0.000296856,-0.000020399,-0.043765787,-0.030208811,9.796091080
1784240408.436277,-0.001869069,0.003714234,0.030289376,-0.000412886,0.000140790,-0.000663177,-0.040908072,0.020810936,9.799109459
1784240408.438269,-0.001864955,0.003720234,0.030286754,-0.000104276,0.000707257,-0.001091013,0.000217984,0.008930355,9.820592880
1784240408.440272,-0.001854121,0.003720117,0.030284096,0.000842524,0.001056590,-0.001149167,-0.018861011,-0.008476727,9.845569611
1784240408.442268,-0.001850593,0.003720532,0.030286759,0.001491137,0.000931321,-0.000832677,-0.084505104,-0.057223685,9.825018883
1784240408.444281,-0.001858531,0.003719362,0.030292634,0.000837633,0.000506680,-0.000028105,-0.093077473,-0.061943453,9.811082840
1784240408.446274,-0.001864545,0.003724123,0.030295346,-0.000286175,0.000492305,0.000558631,-0.041642357,-0.038885541,9.815315247
1784240408.448274,-0.001863384,0.003728307,0.030290863,-0.000537442,0.000966010,0.000285640,0.009094994,-0.038861491,9.783531189
1784240408.450271,-0.001863703,0.003726588,0.030286355,-0.000307389,0.000949648,-0.000401987,-0.002784905,-0.017398084,9.811007500
1784240408.452282,-0.001857496,0.003729117,0.030283978,0.000202192,0.000825161,-0.000758585,-0.024095956,0.000472365,9.793617249
1784240408.454279,-0.001851364,0.003732183,0.030287191,0.000973022,0.001014942,-0.000492663,-0.056464836,-0.004063519,9.796694756
1784240408.456282,-0.001845730,0.003730183,0.030291172,0.001494049,0.000844989,0.000132520,-0.030939611,-0.006818625,9.823153496
1784240408.458280,-0.001843574,0.003728000,0.030284792,0.001617776,0.000331940,-0.000064481,-0.010963962,0.009760517,9.786963463
1784240408.460288,-0.001839927,0.003733825,0.030282972,0.001516425,0.000556663,-0.000602104,-0.040550634,0.011979511,9.780223846
1784240408.462282,-0.001835843,0.003736355,0.030285656,0.001571181,0.001039207,-0.000378014,-0.050178178,-0.004105845,9.791319847
1784240408.464288,-0.001826830,0.003737736,0.030280607,0.002023126,0.000991638,-0.000432958,-0.072151475,-0.038878959,9.806318283
1784240408.466295,-0.001819836,0.003739474,0.030275298,0.002551954,0.000904155,-0.001014515,-0.024812477,-0.059894271,9.777984619
1784240408.468292,-0.001820082,0.003736231,0.030274766,0.002318645,0.000557226,-0.001133853,-0.024255244,-0.050127547,9.789704323
1784240408.470288,-0.001820948,0.003733940,0.030273175,0.001729519,0.000055472,-0.000970118,-0.031499203,-0.017414501,9.802013397
1784240408.472294,-0.001818537,0.003730414,0.030270247,0.001481336,-0.000329004,-0.001013123,-0.029360406,0.010809490,9.798609734
1784240408.474292,-0.001817777,0.003729983,0.030270256,0.001174892,-0.000500405,-0.000935735,-0.047393486,0.004694870,9.808864594
1784240408.476305,-0.001816677,0.003727780,0.030271320,0.000861579,-0.000535963,-0.000608227,-0.039456327,-0.006235994,9.819561005
1784240408.478296,-0.001812365,0.003727138,0.030271323,0.000994724,-0.000583761,-0.000369188,-0.040941115,-0.019876607,9.787192345
1784240408.480300,-0.001812255,0.003728702,0.030271079,0.001022154,-0.000383289,-0.000284110,-0.058677621,-0.037329543,9.816205025
1784240408.482301,-0.001822312,0.003728994,0.030274840,0.000065829,-0.000174272,0.000029394,-0.033147112,-0.040853389,9.824726105
1784240408.484305,-0.001828326,0.003727315,0.030272201,-0.000940336,-0.000251661,0.000093540,-0.025037616,-0.038265932,9.824302673
1784240408.486304,-0.001825327,0.003728822,0.030268768,-0.000785283,-0.000224629,-0.000345253,0.007821912,-0.031378344,9.804651260
1784240408.488307,-0.001827415,0.003727449,0.030269841,-0.000509638,-0.000154244,-0.000411643,-0.019867238,-0.019861020,9.810076714
1784240408.490304,-0.001830930,0.003723350,0.030269580,-0.000728298,-0.000387761,-0.000245639,-0.044528134,0.018185057,9.796848297
1784240408.492314,-0.001839930,0.003723930,0.030265365,-0.001355420,-0.000424624,-0.000485743,-0.052683450,-0.026811834,9.775479317
1784240408.494311,-0.001851644,0.003724590,0.030268334,-0.002389381,-0.000266591,-0.000443922,-0.046429049,0.008454658,9.782436371
1784240408.496316,-0.001855857,0.003723495,0.030271543,-0.002819568,-0.000266044,0.000091869,-0.004853030,-0.004232201,9.790465355
1784240408.498312,-0.001855818,0.003722659,0.030265706,-0.002336618,-0.000324577,-0.000112585,-0.001097250,-0.029614231,9.761612892
1784240408.500320,-0.001854550,0.003723569,0.030258814,-0.001546510,-0.000115749,-0.000945399,-0.029364565,-0.028028972,9.778634071
1784240408.502314,-0.001852074,0.003726148,0.030254319,-0.000805894,0.000268036,-0.001460283,-0.036113679,-0.027278926,9.811360359
1784240408.504323,-0.001851465,0.003727952,0.030252220,-0.000358321,0.000474622,-0.001510991,-0.046110857,-0.038681787,9.794689178
1784240408.506324,-0.001851398,0.003728675,0.030253837,-0.000197346,0.000498358,-0.001133708,-0.039518237,-0.011182643,9.822218895
1784240408.508340,-0.001845433,0.003732776,0.030256519,0.000264597,0.000689932,-0.000532411,-0.022918910,-0.013847837,9.789041519
1784240408.510477,-0.001843603,0.003734301,0.030261062,0.000692012,0.000917290,0.000104832,-0.039838277,-0.001245436,9.811523438
1784240408.512364,-0.001843004,0.003735022,0.030261612,0.000639606,0.000853737,0.000422787,-0.035272203,0.003373817,9.783761024
1784240408.514344,-0.001843508,0.003739391,0.030256867,0.000423715,0.000957222,0.000023153,-0.031244807,0.004046291,9.807977676
1784240408.516343,-0.001841315,0.003739281,0.030261932,0.000373594,0.000975576,0.000038757,-0.040255629,-0.000181608,9.788664818
1784240408.518359,-0.001836165,0.003741523,0.030267537,0.000767927,0.000853989,0.000754078,-0.006940153,-0.027995657,9.796586990
1784240408.520372,-0.001836539,0.003743271,0.030261716,0.000914679,0.000987457,0.000536071,-0.008564159,0.025149681,9.823826790
1784240408.522350,-0.001836181,0.003746927,0.030258557,0.000698567,0.001181819,-0.000218427,-0.014189073,-0.034127433,9.789817810
1784240408.524367,-0.001836518,0.003747196,0.030262839,0.000537921,0.001175244,-0.000082932,-0.056452461,-0.002344803,9.807017326
1784240408.526363,-0.001836913,0.003754007,0.030267945,0.000367648,0.001383588,0.000576483,-0.059621111,-0.003334026,9.825836182
1784240408.528349,-0.001832866,0.003753089,0.030271135,0.000513604,0.001406901,0.000984367,-0.028301833,-0.012145985,9.811464310
1784240408.530372,-0.001829310,0.003742545,0.030270290,0.000861327,0.000253768,0.000878230,-0.032613531,0.001858716,9.803031921
1784240408.532360,-0.001824489,0.003740052,0.030267624,0.001168663,-0.000692419,0.000403265,-0.037722792,0.023147222,9.779850006
1784240408.534347,-0.001813922,0.003742460,0.030266296,0.001799549,-0.000539912,0.000026491,-0.024964934,0.003139839,9.798115730
1784240408.536376,-0.001808548,0.003740992,0.030270549,0.002294953,-0.000360078,0.000221802,-0.054948658,-0.027764859,9.787576675
1784240408.538351,-0.001805540,0.003742470,0.030274021,0.002238853,-0.000262566,0.000688167,-0.045516290,-0.026999213,9.788935661
1784240408.540384,-0.001807047,0.003739684,0.030279335,0.001762152,-0.000349264,0.001098546,-0.041596673,-0.000529647,9.777005196
1784240408.542393,-0.001802730,0.003738753,0.030284656,0.001503220,-0.000576144,0.001523093,-0.003928300,-0.003217413,9.772090912
1784240408.544392,-0.001798912,0.003744412,0.030283641,0.001595399,0.000050170,0.001403984,0.000658109,0.007641134,9.812067032
1784240408.546360,-0.001797743,0.003749395,0.030278362,0.001451625,0.000909115,0.000597050,-0.036792137,-0.008923282,9.814614296
1784240408.548361,-0.001796914,0.003746660,0.030280223,0.001193977,0.000815312,0.000203526,-0.044385497,-0.042495143,9.823807716
1784240408.550370,-0.001791094,0.003743421,0.030287661,0.001396095,0.000197485,0.000780892,-0.050113264,-0.033483442,9.826996803
1784240408.552378,-0.001785185,0.003742767,0.030286329,0.001888924,-0.000111000,0.000986214,-0.045897555,-0.020382151,9.804221153
1784240408.554363,-0.001789255,0.003744718,0.030292215,0.001492187,-0.000020929,0.001028031,-0.032709740,-0.005384977,9.813744545
1784240408.556370,-0.001792657,0.003745221,0.030291708,0.000571042,0.000123168,0.001112082,-0.022263112,0.003991727,9.799468994
1784240408.558364,-0.001790702,0.003748592,0.030289344,0.000318533,0.000353053,0.000615067,-0.014252532,-0.002306897,9.788675308
1784240408.560378,-0.001793083,0.003749187,0.030286981,0.000081820,0.000629861,0.000127160,-0.023673493,-0.036519956,9.828348160
1784240408.562372,-0.001798352,0.003748897,0.030290725,-0.000582494,0.000582281,0.000184746,-0.040773500,-0.042769708,9.792874336
1784240408.564373,-0.001801897,0.003747725,0.030289941,-0.000979227,0.000276028,0.000333634,-0.077723823,-0.016482478,9.817216873
1784240408.566374,-0.001800248,0.003747385,0.030288097,-0.000797269,0.000050172,0.000063741,-0.061656218,-0.024660535,9.804178238
1784240408.568371,-0.001791708,0.003744060,0.030284353,0.000112200,-0.000211518,-0.000330749,-0.043115575,-0.013223832,9.800683022
1784240408.570375,-0.001790447,0.003738569,0.030283269,0.000716081,-0.000797837,-0.000566274,-0.030805888,0.002747538,9.800797462
1784240408.572379,-0.001786652,0.003738703,0.030288856,0.000831589,-0.000991351,-0.000105251,-0.031380542,0.029217362,9.796932220
1784240408.574403,-0.001786246,0.003743537,0.030292619,0.000724270,-0.000376285,0.000559439,-0.004259722,0.008250901,9.798169136
1784240408.576404,-0.001793867,0.003748068,0.030291080,-0.000127030,0.000371095,0.000556700,-0.021489482,-0.006723142,9.792675972
1784240408.578386,-0.001790862,0.003749829,0.030290568,-0.000405330,0.000697648,0.000265204,-0.028532233,-0.030985791,9.814929008
1784240408.580385,-0.001789562,0.003750249,0.030290322,0.000040035,0.000694007,0.000142796,-0.032079626,-0.029795855,9.779964447
1784240408.582434,-0.001793260,0.003748107,0.030289007,-0.000090298,0.000426603,-0.000002730,-0.028909987,0.009196313,9.772595406
1784240408.584399,-0.001788211,0.003743174,0.030287391,-0.000116803,-0.000146367,-0.000201002,-0.040850021,-0.011457551,9.800248146
1784240408.586390,-0.001779406,0.003739301,0.030287368,0.000712231,-0.000681465,-0.000254490,-0.043441195,-0.004141215,9.784152985
1784240408.588414,-0.001776435,0.003737609,0.030288167,0.001317927,-0.000874302,-0.000129888,-0.037937552,0.005241491,9.777940750
1784240408.590431,-0.001779075,0.003742972,0.030289279,0.000898403,-0.000339974,0.000035482,-0.013776957,-0.000479476,9.782859802
1784240408.592408,-0.001773655,0.003746572,0.030286644,0.000759961,0.000408899,-0.000076452,0.003681050,-0.005488183,9.762669563
1784240408.594400,-0.001779091,0.003739357,0.030284511,0.000506612,0.000183451,-0.000379155,-0.015780877,-0.018317688,9.774673462
1784240408.596416,-0.001788946,0.003733814,0.030287977,-0.000716294,-0.000602107,-0.000189590,-0.035637300,-0.025445133,9.804646492
1784240408.598411,-0.001792905,0.003731661,0.030290110,-0.001460889,-0.000961736,0.000238752,-0.053726308,-0.035648637,9.822945595
1784240408.600402,-0.001791263,0.003726182,0.030287435,-0.001170865,-0.001248152,0.000136790,-0.042767342,-0.022938460,9.779997826
1784240408.602406,-0.001786472,0.003720490,0.030288739,-0.000365373,-0.001696867,0.000007962,-0.010768902,0.023863535,9.756567001
1784240408.604426,-0.001780515,0.003715941,0.030287394,0.000331434,-0.001863498,0.000005440,-0.033396196,0.012097005,9.813856125
1784240408.606427,-0.001776683,0.003720622,0.030283971,0.000775118,-0.001280237,-0.000317506,-0.036597706,0.005579998,9.790946960
1784240408.608415,-0.001769093,0.003728189,0.030278426,0.001342252,-0.000100231,-0.000837003,-0.025054222,0.035566937,9.837777138
1784240408.610412,-0.001759089,0.003722591,0.030277060,0.002054802,0.000053309,-0.001074495,-0.019044807,0.009425578,9.785608292
1784240408.612416,-0.001756178,0.003715325,0.030279154,0.002254362,-0.000842558,-0.000730125,-0.013347317,-0.039441336,9.779472351
1784240408.614413,-0.001756263,0.003716948,0.030275464,0.001899953,-0.000930829,-0.000639372,-0.046164721,-0.043564841,9.788379669
1784240408.616418,-0.001755427,0.003715562,0.030272013,0.001502334,-0.000595322,-0.000950340,-0.049356390,-0.046762075,9.802703857
1784240408.618411,-0.001749563,0.003710385,0.030274382,0.001549529,-0.000879064,-0.000764094,-0.045672502,-0.037553504,9.824286461
1784240408.620432,-0.001747202,0.003706313,0.030269053,0.001744782,-0.001284718,-0.000755630,-0.016082952,-0.002970342,9.822294235
1784240408.622423,-0.001749077,0.003700444,0.030266646,0.001362919,-0.001626587,-0.001075489,-0.029533494,-0.003525269,9.798517227
1784240408.624424,-0.001742747,0.003696425,0.030268757,0.001264508,-0.001862673,-0.000802693,-0.046151523,-0.004249800,9.804324150
1784240408.626427,-0.001734415,0.003699226,0.030259725,0.001887350,-0.001445408,-0.001050874,-0.025977604,-0.008295335,9.769796371
1784240408.628420,-0.001733773,0.003704197,0.030258438,0.001986689,-0.000524201,-0.001463468,-0.037962347,-0.032138981,9.805049896
1784240408.630423,-0.001735685,0.003706532,0.030268846,0.001404837,0.000127863,-0.000447402,-0.039208271,-0.024036182,9.801962852
1784240408.632429,-0.001729214,0.003707693,0.030275770,0.001374633,0.000343220,0.000851576,-0.045932081,-0.025112584,9.776393890
1784240408.634455,-0.001726178,0.003706868,0.030270724,0.001660157,0.000287219,0.000750166,-0.024284638,-0.015606535,9.786787987
1784240408.636440,-0.001726103,0.003708388,0.030271811,0.001435405,0.000271523,0.000278602,-0.037465032,-0.030139852,9.775025368
1784240408.638428,-0.001731894,0.003708620,0.030278755,0.000655609,0.000315749,0.000746735,-0.059613686,-0.002870166,9.823597908
1784240408.640435,-0.001732163,0.003711783,0.030281710,0.000015305,0.000383969,0.001214214,-0.055006929,-0.029846050,9.828361511
1784240408.642431,-0.001731869,0.003709335,0.030279851,-0.000035841,0.000252850,0.000958710,-0.049725089,-0.003266551,9.798499107
1784240408.644432,-0.001736061,0.003704598,0.030278781,-0.000330824,-0.000324208,0.000498708,-0.032331239,-0.012834365,9.789488792
1784240408.646433,-0.001736781,0.003706663,0.030278280,-0.000614935,-0.000438410,0.000255457,-0.055187963,-0.011111420,9.777372360
1784240408.648438,-0.001737468,0.003711913,0.030277267,-0.000543115,0.000177359,0.000082588,-0.044548556,0.016402751,9.795491219
1784240408.650459,-0.001736081,0.003715958,0.030275440,-0.000417090,0.000733693,-0.000132887,-0.027172020,0.006698220,9.805757523
1784240408.652442,-0.001735182,0.003719858,0.030276008,-0.000218041,0.001047161,-0.000181888,-0.015118815,-0.035587002,9.807741165
1784240408.654442,-0.001738981,0.003720054,0.030278698,-0.000328834,0.001096403,0.000087891,-0.023941580,-0.023335731,9.801982880
1784240408.656441,-0.001745869,0.003718755,0.030274468,-0.000936964,0.000779970,-0.000043310,-0.074218519,-0.026920239,9.766493797
1784240408.658441,-0.001749326,0.003715049,0.030266488,-0.001381753,0.000229914,-0.000862745,-0.058307402,-0.006849113,9.813711166
1784240408.660444,-0.001748567,0.003716506,0.030266507,-0.001144648,-0.000052623,-0.001169316,-0.064958647,-0.002489569,9.779659271
1784240408.662446,-0.001751407,0.003718832,0.030272391,-0.000933535,0.000149364,-0.000451622,-0.015034349,-0.030462297,9.779976845
1784240408.664456,-0.001758298,0.003713358,0.030272130,-0.001271154,-0.000004069,0.000050703,-0.030808210,-0.036481656,9.772749901
1784240408.666455,-0.001761996,0.003710944,0.030272672,-0.001573985,-0.000437002,0.000053725,-0.030294137,-0.031918757,9.760225296
1784240408.668456,-0.001764270,0.003716175,0.030279642,-0.001553912,-0.000128000,0.000547187,-0.050395679,0.014746062,9.786957741
1784240408.670486,-0.001761082,0.003719713,0.030286580,-0.001174650,0.000468499,0.001342561,-0.054673824,-0.004521758,9.794898987
1784240408.672467,-0.001750120,0.003718202,0.030286830,0.000001817,0.000446124,0.001469572,-0.016404562,-0.031445891,9.794763565
1784240408.674468,-0.001744222,0.003717067,0.030294010,0.001181905,0.000210239,0.001579440,-0.049957752,-0.024555648,9.768323898
1784240408.676459,-0.001744947,0.003718051,0.030298289,0.001247200,0.000207297,0.001929933,-0.055978063,-0.038926952,9.783917427
1784240408.678456,-0.001744664,0.003713719,0.030303065,0.000876213,-0.000077324,0.002020559,-0.038394194,-0.031189620,9.798331261
1784240408.680456,-0.001741104,0.003710631,0.030310770,0.000981740,-0.000596145,0.002320114,-0.019613201,-0.002050313,9.762220383
1784240408.682458,-0.001738376,0.003710782,0.030315038,0.001224730,-0.000669683,0.002504193,-0.034273583,0.011050791,9.773500443
1784240408.684471,-0.001735130,0.003709976,0.030320356,0.001241567,-0.000522541,0.002476690,-0.048894331,-0.009883001,9.782317162
1784240408.686461,-0.001732713,0.003706982,0.030316897,0.001234674,-0.000627923,0.001931938,-0.013560776,-0.017720783,9.812787056
1784240408.688462,-0.001735021,0.003709032,0.030323839,0.000905914,-0.000521875,0.001643906,-0.043608341,0.020781832,9.808074951
1784240408.690461,-0.001738299,0.003712550,0.030327072,0.000145319,-0.000045785,0.001886767,-0.037230421,-0.008024787,9.815068245
1784240408.692466,-0.001734004,0.003710591,0.030324936,0.000041769,0.000029959,0.001449133,-0.018996514,0.016290894,9.828243256
1784240408.694467,-0.001730322,0.003709469,0.030328663,0.000488014,-0.000154699,0.001165918,-0.041489989,0.009633552,9.796796799
1784240408.696467,-0.001729699,0.003712580,0.030328428,0.000563389,0.000054682,0.001087480,-0.032464333,-0.022800790,9.805115700
1784240408.698466,-0.001730442,0.003712799,0.030325787,0.000402973,0.000266190,0.000597082,-0.017534535,-0.013106755,9.801156998
1784240408.700470,-0.001726910,0.003704929,0.030326020,0.000477490,-0.000265984,0.000272416,-0.045388263,-0.016667485,9.784966469
1784240408.702473,-0.001727950,0.003701406,0.030330809,0.000509751,-0.000908518,0.000539897,-0.026486143,-0.045946695,9.835908890
1784240408.704486,-0.001728730,0.003698675,0.030335071,0.000319158,-0.001051963,0.001006999,-0.048349719,-0.039021507,9.783475876
1784240408.706476,-0.001733221,0.003697347,0.030331628,-0.000051813,-0.001006534,0.000788139,-0.047346197,0.005473516,9.762242317
1784240408.708483,-0.001730467,0.003699885,0.030335907,-0.000155839,-0.000651246,0.000630760,-0.029859627,0.007174313,9.806654930
1784240408.710484,-0.001721135,0.003703472,0.030337520,0.000657341,-0.000044127,0.000862449,-0.032295849,-0.008907642,9.804307938
1784240408.712490,-0.001718428,0.003702596,0.030334068,0.001248458,0.000167387,0.000506442,-0.025224904,-0.016338706,9.828476906
1784240408.714483,-0.001713848,0.003700307,0.030332470,0.001404319,-0.000052220,0.000027954,-0.009474355,-0.014150678,9.807434082
1784240408.716516,-0.001701516,0.003702775,0.030329021,0.002171252,0.000014742,-0.000318317,-0.030622169,-0.020018376,9.788547516
1784240408.718500,-0.001700145,0.003701105,0.030328758,0.002512785,0.000065312,-0.000480648,-0.057902206,-0.010035106,9.819967270
1784240408.720494,-0.001705946,0.003700756,0.030326394,0.001547760,-0.000101193,-0.000529758,-0.059927061,0.006714467,9.799449921
1784240408.722496,-0.001710942,0.003701267,0.030328281,0.000412058,-0.000074716,-0.000420984,-0.021746518,-0.027799573,9.795678139
1784240408.724493,-0.001710421,0.003703880,0.030328576,0.000038795,0.000172558,-0.000159234,-0.049674358,-0.037619039,9.777654648
1784240408.726497,-0.001706098,0.003705672,0.030317426,0.000402754,0.000441257,-0.000851587,-0.042520784,-0.039534673,9.782133102
1784240408.728494,-0.001698584,0.003706351,0.030310512,0.001101412,0.000491323,-0.001843480,-0.041666228,-0.002699872,9.830342293
1784240408.730501,-0.001694680,0.003709199,0.030312670,0.001573216,0.000630656,-0.001662959,-0.054976311,0.007985564,9.800807953
1784240408.732504,-0.001700972,0.003713177,0.030313248,0.000977919,0.000955175,-0.001026251,-0.021110518,-0.012142582,9.798022270
1784240408.734512,-0.001703815,0.003709239,0.030305542,0.000107081,0.000750413,-0.001233484,-0.045602553,-0.035380110,9.770501137
1784240408.736506,-0.001702459,0.003706793,0.030300753,-0.000006825,0.000165866,-0.001747087,-0.043304771,-0.027685773,9.818522453
1784240408.738503,-0.001705632,0.003703575,0.030301820,-0.000127396,-0.000263217,-0.001525609,-0.062693268,0.001706918,9.815555573
1784240408.740507,-0.001709282,0.003710187,0.030302674,-0.000572271,-0.000070296,-0.000982928,-0.029050553,-0.000423905,9.802572250
1784240408.742508,-0.001709732,0.003713334,0.030296864,-0.000709757,0.000503092,-0.001054229,-0.027425729,-0.015972918,9.780953407
1784240408.744508,-0.001706369,0.003711548,0.030299790,-0.000345072,0.000464921,-0.000963558,-0.056795016,-0.030985700,9.802797318
1784240408.746505,-0.001710246,0.003716812,0.030303299,-0.000314394,0.000579768,-0.000265271,-0.039819822,-0.037879068,9.796493530
1784240408.748520,-0.001712538,0.003721555,0.030300956,-0.000648085,0.001101465,-0.000115737,-0.023825115,-0.014716362,9.786792755
1784240408.750518,-0.001706391,0.003722759,0.030294850,-0.000187443,0.001207925,-0.000657075,-0.016900040,0.000917369,9.781072617
1784240408.752517,-0.001707928,0.003723242,0.030294344,0.000198945,0.000996170,-0.000926602,-0.020160863,-0.007283741,9.806123734
1784240408.754519,-0.001712584,0.003725907,0.030296247,-0.000296730,0.000990962,-0.000581800,-0.037052285,-0.031645291,9.796983719
1784240408.756519,-0.001713632,0.003723235,0.030288273,-0.000622788,0.000773898,-0.000837198,-0.054258678,-0.043598078,9.807650566
1784240408.758518,-0.001711176,0.003724507,0.030279517,-0.000353920,0.000470743,-0.001745329,-0.029369222,-0.027660508,9.789844513
1784240408.760516,-0.001718789,0.003728463,0.030281430,-0.000534647,0.000681844,-0.001737168,-0.033123918,-0.003485633,9.799409866
1784240408.762514,-0.001721103,0.003730808,0.030281730,-0.000992429,0.000907379,-0.001117579,-0.027827872,-0.010331274,9.807441711
1784240408.764521,-0.001720285,0.003727616,0.030274019,-0.000804148,0.000692053,-0.001317366,-0.030580513,-0.016447406,9.790363312
1784240408.766528,-0.001717565,0.003727794,0.030272167,-0.000324693,0.000388391,-0.001607598,-0.041720543,-0.006776038,9.836592674
1784240408.768543,-0.001710052,0.003727378,0.030273231,0.000458225,0.000266844,-0.001222075,-0.046404827,-0.024080915,9.821232796
1784240408.770530,-0.001703675,0.003727757,0.030272435,0.001299200,0.000138940,-0.000868807,-0.034634762,-0.016116224,9.814122200
1784240408.772528,-0.001698375,0.003721043,0.030263629,0.001764134,-0.000380530,-0.001281982,-0.031845819,-0.007687151,9.820903778
1784240408.774544,-0.001694642,0.003715920,0.030261485,0.001865095,-0.001025830,-0.001675099,-0.012831332,0.004347570,9.795445442
1784240408.776533,-0.001684994,0.003714917,0.030270254,0.002229337,-0.001110382,-0.000767452,-0.070065610,-0.014314968,9.813651085
1784240408.778533,-0.001679868,0.003715037,0.030275578,0.002623337,-0.000870477,0.000401095,-0.063330725,-0.016393002,9.778676033
1784240408.780538,-0.001680865,0.003718621,0.030271094,0.002246326,-0.000431025,0.000350198,-0.053064652,-0.021004844,9.778655052
1784240408.782540,-0.001686389,0.003720220,0.030267943,0.001250869,-0.000009579,-0.000265119,-0.022139069,-0.024108391,9.781355858
1784240408.784544,-0.001687663,0.003722392,0.030271962,0.000488335,0.000312300,-0.000135689,-0.012308007,-0.025769532,9.808254242
1784240408.786542,-0.001684396,0.003723344,0.030273840,0.000528240,0.000502263,0.000302282,-0.027116375,0.012000621,9.816102982
1784240408.788546,-0.001683000,0.003724335,0.030271465,0.000701428,0.000497758,0.000187528,-0.026604561,0.014114216,9.769939423
1784240408.790542,-0.001682198,0.003726463,0.030270429,0.000594600,0.000642199,-0.000094186,-0.038187742,-0.015780881,9.773324013
1784240408.792545,-0.001684814,0.003724807,0.030276557,0.000242248,0.000566849,0.000276804,-0.014755737,-0.044373918,9.782577515
1784240408.794548,-0.001680282,0.003725274,0.030279759,0.000381054,0.000361929,0.000835688,-0.049767118,-0.045240737,9.778503418
1784240408.796552,-0.001677556,0.003725707,0.030280305,0.000846230,0.000355038,0.000865113,-0.039173823,-0.058922481,9.793219566
1784240408.798557,-0.001682799,0.003727803,0.030283799,0.000444590,0.000429889,0.000903868,0.003481443,-0.020842867,9.780056000
1784240408.800554,-0.001685997,0.003726532,0.030281428,-0.000191616,0.000435342,0.000732712,0.020792805,0.002880552,9.815194130
1784240408.802552,-0.001689921,0.003726456,0.030293418,-0.000567638,0.000290836,0.001184997,-0.025028111,-0.001006280,9.814228058
1784240408.804561,-0.001687804,0.003724767,0.030297676,-0.000572436,0.000089900,0.001965671,-0.030709399,-0.025975415,9.807338715
1784240408.806555,-0.001689909,0.003722078,0.030296352,-0.000449154,-0.000232305,0.001631015,-0.057850122,-0.005571394,9.822237968
1784240408.808559,-0.001694941,0.003719959,0.030293176,-0.000810501,-0.000495062,0.000880898,-0.062081717,0.015549806,9.821024895
1784240408.810567,-0.001692405,0.003721857,0.030288672,-0.000835457,-0.000435730,0.000119600,-0.072117843,0.002218385,9.823618889
1784240408.812562,-0.001694801,0.003716506,0.030290259,-0.000675964,-0.000612405,-0.000111008,-0.029443109,-0.034322690,9.781731606
1784240408.814578,-0.001700793,0.003710840,0.030287873,-0.000980432,-0.001151443,-0.000137544,-0.031135038,-0.062161699,9.793207169
1784240408.816572,-0.001702069,0.003710239,0.030292140,-0.001126842,-0.001222061,0.000025557,-0.031238377,-0.033492800,9.794288635
1784240408.818568,-0.001701997,0.003711495,0.030292958,-0.000903914,-0.000846407,0.000363900,-0.025982888,-0.007526597,9.787734032
1784240408.820565,-0.001701722,0.003713535,0.030287672,-0.000665099,-0.000335597,-0.000038044,-0.030356437,0.003558221,9.812010765
1784240408.822567,-0.001700069,0.003712909,0.030290598,-0.000384360,-0.000091508,-0.000186985,-0.064796552,0.010542640,9.773915291
1784240408.824590,-0.001696985,0.003713610,0.030297525,-0.000003388,-0.000136676,0.000533935,-0.049417950,-0.016142348,9.781380653
1784240408.826587,-0.001692427,0.003710832,0.030300179,0.000471502,-0.000315591,0.001040565,-0.042181112,-0.010105962,9.801600456
1784240408.828579,-0.001691531,0.003714193,0.030302601,0.000712446,-0.000190926,0.001104014,-0.039475568,-0.048435565,9.768181801
1784240408.830577,-0.001693059,0.003719451,0.030304246,0.000531822,0.000390153,0.001080193,-0.015581447,-0.038122755,9.787098885
1784240408.832600,-0.001696123,0.003726035,0.030307230,0.000131301,0.001032132,0.001099735,-0.020204134,-0.010867430,9.806100845
1784240408.834584,-0.001698280,0.003728400,0.030313915,-0.000271139,0.001372903,0.001456073,-0.004972432,-0.014090526,9.790850639
1784240408.836583,-0.001699561,0.003728919,0.030304894,-0.000440287,0.001210812,0.000901240,-0.016289134,-0.022429438,9.786751747
1784240408.838608,-0.001697941,0.003725101,0.030309942,-0.000296738,0.000658538,0.000386744,-0.035398688,-0.043725081,9.791528702
1784240408.840606,-0.001697004,0.003722508,0.030320577,0.000001350,0.000047944,0.001346921,-0.047040012,-0.002141585,9.824511528
1784240408.842644,-0.001694515,0.003726143,0.030317154,0.000279591,0.000109993,0.001471662,-0.073273100,-0.018852912,9.827518463
1784240408.844630,-0.001695781,0.003729254,0.030317184,0.000342507,0.000449117,0.000841878,-0.065686941,-0.026575148,9.765606880
1784240408.846617,-0.001697053,0.003729467,0.030317204,0.000132131,0.000463500,0.000616057,-0.028335564,-0.016870057,9.782741547
1784240408.848613,-0.001696194,0.003729379,0.030320140,0.000067429,0.000345811,0.000649546,-0.031415246,-0.010672828,9.798917770
1784240408.850614,-0.001695229,0.003729049,0.030322548,0.000164538,0.000257525,0.000836623,-0.006406973,-0.020039856,9.810985565
1784240408.852609,-0.001697036,0.003729275,0.030320976,0.000055421,0.000215029,0.000665862,-0.047841050,0.002683392,9.777467728
1784240408.854627,-0.001697012,0.003727205,0.030318316,-0.000152139,-0.000028435,0.000197092,-0.054108895,0.004495311,9.785990715
1784240408.856606,-0.001695371,0.003725794,0.030318854,-0.000069830,-0.000317194,-0.000000237,-0.016031517,-0.000943207,9.789131165
1784240408.858610,-0.001700660,0.003724746,0.030313818,-0.000297383,-0.000397461,-0.000306187,-0.059463352,-0.029546907,9.794286728
1784240408.860609,-0.001699214,0.003727266,0.030311184,-0.000406444,-0.000275226,-0.000744594,-0.040722914,-0.037102014,9.814878464
1784240408.862608,-0.001691897,0.003732382,0.030320786,0.000366124,0.000230528,-0.000067443,-0.049356438,-0.011198872,9.779170036
1784240408.864612,-0.001693266,0.003735243,0.030326406,0.000657761,0.000724451,0.000985728,-0.036221098,0.002168254,9.829032898
1784240408.866610,-0.001697186,0.003737079,0.030325644,0.000110043,0.000862793,0.001046490,-0.017192863,-0.021252120,9.811864853
1784240408.868613,-0.001694754,0.003735136,0.030324584,-0.000020393,0.000621460,0.000637980,-0.030456454,-0.006957551,9.778767586
1784240408.870614,-0.001689125,0.003733187,0.030319523,0.000515329,0.000188632,0.000051126,-0.032605715,-0.035264213,9.793827057
1784240408.872619,-0.001691479,0.003731268,0.030324589,0.000579170,-0.000125704,0.000038287,-0.053613529,-0.063837782,9.817385674
1784240408.874624,-0.001695077,0.003731434,0.030327799,0.000119084,-0.000262668,0.000588249,-0.074019693,-0.008735074,9.792164803
1784240408.876612,-0.001687299,0.003731292,0.030326203,0.000473380,-0.000241116,0.000539366,-0.085563503,0.000891547,9.782352448
1784240408.878617,-0.001685322,0.003736238,0.030327309,0.001007112,0.000150480,0.000361873,-0.029684380,-0.018495211,9.761656761
1784240408.880615,-0.001687451,0.003742131,0.030328158,0.000712814,0.000838106,0.000396194,-0.001677365,-0.002782298,9.769854546
1784240408.882676,-0.001685252,0.003742825,0.030330831,0.000513121,0.001050225,0.000527921,-0.026618784,-0.024803732,9.761172295
1784240408.884623,-0.001683406,0.003739751,0.030333221,0.000668496,0.000624868,0.000729441,-0.021406239,-0.073951073,9.795383453
1784240408.886622,-0.001689733,0.003740547,0.030333787,0.000203494,0.000322121,0.000730953,-0.000456915,-0.009465279,9.825407028
1784240408.888623,-0.001693868,0.003747434,0.030330662,-0.000561228,0.000756460,0.000355938,-0.030425366,0.032904018,9.780815125
1784240408.890642,-0.001692502,0.003745796,0.030324278,-0.000685042,0.000909086,-0.000386827,-0.030183699,0.017079728,9.800442696
1784240408.892631,-0.001695435,0.003741013,0.030318694,-0.000693029,0.000228416,-0.001094671,-0.074918360,-0.007923037,9.805618286
1784240408.894631,-0.001703002,0.003745829,0.030317951,-0.001257099,0.000024239,-0.001230502,-0.084294721,-0.002573039,9.826266289
1784240408.896637,-0.001713566,0.003748784,0.030320130,-0.002187924,0.000399872,-0.000803856,-0.046894908,-0.028859656,9.801028252
1784240408.898643,-0.001717504,0.003749034,0.030318297,-0.002578333,0.000508863,-0.000565716,-0.003932675,-0.038815584,9.800557137
1784240408.900641,-0.001712625,0.003740340,0.030320121,-0.001713029,-0.000107993,-0.000412338,-0.001636497,0.003619150,9.814730644
1784240408.902637,-0.001709161,0.003734925,0.030321965,-0.000581145,-0.000942307,-0.000049226,-0.035710953,0.002242361,9.754611969
1784240408.904651,-0.001715237,0.003736938,0.030322535,-0.000635621,-0.000928092,0.000127107,-0.026637657,-0.025763249,9.770132065
1784240408.906639,-0.001718071,0.003739797,0.030327890,-0.001103732,-0.000356580,0.000492683,-0.041019779,-0.027387016,9.772349358
1784240408.908652,-0.001714272,0.003740192,0.030334283,-0.000741581,-0.000040253,0.001156701,-0.053598735,0.010243105,9.795891762
1784240408.910658,-0.001714132,0.003739697,0.030334026,-0.000317056,-0.000079208,0.001260098,-0.054885570,0.015591367,9.802202225
1784240408.912660,-0.001714831,0.003743338,0.030336984,-0.000312239,0.000113126,0.001101494,-0.032752205,0.025790820,9.777181625
1784240408.914649,-0.001712135,0.003742679,0.030336464,-0.000199625,0.000306171,0.000968369,-0.034613349,0.023669036,9.826931953
1784240408.916654,-0.001713981,0.003739189,0.030335933,-0.000194602,-0.000036907,0.000633898,-0.033809807,-0.023183810,9.798386574
1784240408.918664,-0.001713686,0.003736738,0.030334869,-0.000246654,-0.000430007,0.000353249,-0.049152520,-0.031779036,9.774555206
1784240408.920652,-0.001709892,0.003734338,0.030335927,0.000131770,-0.000649533,0.000258144,-0.065075979,-0.047895197,9.801336288
1784240408.922650,-0.001712261,0.003732467,0.030330086,0.000227826,-0.000769528,-0.000136134,-0.017026804,-0.010214882,9.771585464
1784240408.924655,-0.001715779,0.003731779,0.030325586,-0.000259601,-0.000650618,-0.000802185,-0.005532533,-0.023069438,9.794380188
1784240408.926659,-0.001717602,0.003730134,0.030327460,-0.000579591,-0.000549582,-0.000763759,-0.028490335,0.009771698,9.816984177
1784240408.928655,-0.001718091,0.003729289,0.030325076,-0.000578992,-0.000569380,-0.000591500,-0.043000318,-0.004614003,9.786841393
1784240408.930651,-0.001720060,0.003726363,0.030323220,-0.000615276,-0.000689853,-0.000719385,-0.027772857,-0.004628608,9.824515343
1784240408.932659,-0.001714727,0.003722286,0.030317888,-0.000245824,-0.000996657,-0.001011710,-0.053750060,-0.001083112,9.813753128
1784240408.934665,-0.001707023,0.003716506,0.030312799,0.000672160,-0.001459818,-0.001441591,-0.070261829,0.005515534,9.797638893
1784240408.936666,-0.001705398,0.003713774,0.030312262,0.001087984,-0.001706495,-0.001429719,-0.057946522,-0.016058549,9.784958839
1784240408.938657,-0.001713855,0.003714864,0.030311238,0.000329230,-0.001354432,-0.001149018,-0.029503593,-0.039663240,9.776764870
1784240408.940661,-0.001718007,0.003718719,0.030307563,-0.000543744,-0.000661196,-0.001159227,-0.016398454,0.005381698,9.782446861
1784240408.942665,-0.001711780,0.003722830,0.030307323,-0.000183124,0.000048732,-0.001109783,-0.038310990,-0.025264379,9.784022331
1784240408.944671,-0.001713851,0.003722159,0.030314252,0.000164540,0.000218579,-0.000353492,-0.064555325,0.033115208,9.812616348
1784240408.946663,-0.001719143,0.003720297,0.030313469,-0.000363999,-0.000063019,0.000157854,-0.040338133,0.030272776,9.790653229
1784240408.948669,-0.001720151,0.003720513,0.030312430,-0.000692324,-0.000157456,-0.000010483,-0.044161383,-0.026136437,9.791185379
1784240408.950677,-0.001721813,0.003720321,0.030311380,-0.000623334,-0.000157467,-0.000150293,-0.027821671,-0.012713791,9.764386177
1784240408.952678,-0.001724166,0.003718949,0.030312726,-0.000665032,-0.000265475,-0.000090426,-0.047579862,-0.012581655,9.781404495
1784240408.954673,-0.001728310,0.003721757,0.030313028,-0.000964477,-0.000125820,0.000044235,-0.045860540,-0.016442711,9.817247391
1784240408.956679,-0.001727412,0.003725658,0.030313328,-0.000961594,0.000333962,0.000072473,-0.044974271,-0.056563422,9.786953926
1784240408.958677,-0.001721185,0.003729773,0.030312292,-0.000216661,0.000787446,0.000004626,-0.036643289,-0.034396037,9.805036545
1784240408.960679,-0.001717722,0.003725018,0.030309884,0.000573322,0.000540270,-0.000228143,-0.027400350,-0.012935759,9.794872284
1784240408.962677,-0.001716951,0.003717529,0.030307461,0.000778869,-0.000427218,-0.000492946,-0.012380613,0.004357715,9.793203354
1784240408.964688,-0.001717051,0.003715680,0.030303752,0.000588047,-0.000875808,-0.000775226,-0.049289681,-0.003377228,9.813292503
1784240408.966680,-0.001721220,0.003718839,0.030304328,0.000112848,-0.000480227,-0.000778803,-0.049638964,-0.033692319,9.792475700
1784240408.968683,-0.001728057,0.003721211,0.030309420,-0.000666326,0.000024957,-0.000185178,-0.008841181,-0.036105908,9.806396484
1784240408.970719,-0.001736340,0.003720073,0.030311041,-0.001472077,0.000125115,0.000317608,0.017374648,-0.020341387,9.810559273
1784240408.972689,-0.001736581,0.003716817,0.030313697,-0.001610777,-0.000183742,0.000520001,-0.001132914,0.005262538,9.771699905
1784240408.974689,-0.001734590,0.003717530,0.030316638,-0.001149822,-0.000253362,0.000759460,-0.037947435,0.005568628,9.794981003
1784240408.976695,-0.001732112,0.003720105,0.030312944,-0.000627896,0.000092553,0.000503165,-0.039930463,0.026295794,9.782109261
1784240408.978693,-0.001735519,0.003719802,0.030315094,-0.000520102,0.000221823,0.000261185,-0.044989035,0.016878724,9.792356491
1784240408.980693,-0.001739476,0.003721788,0.030314326,-0.000967328,0.000230451,0.000282163,-0.034393840,0.001996176,9.786890984
1784240408.982696,-0.001743425,0.003720701,0.030315146,-0.001329653,0.000183686,0.000206833,-0.031552941,0.013672267,9.778001785
1784240408.984701,-0.001740809,0.003723297,0.030314898,-0.001159006,0.000216707,0.000189124,-0.037571698,0.000123752,9.803912163
1784240408.986698,-0.001750595,0.003724118,0.030318132,-0.001431463,0.000370040,0.000338779,-0.041751511,-0.013504622,9.774679184
1784240408.988706,-0.001758756,0.003727582,0.030319512,-0.002262202,0.000559891,0.000555542,-0.043809462,-0.033795677,9.796514511
1784240408.990700,-0.001759630,0.003735505,0.030316914,-0.002246470,0.001179914,0.000319983,-0.048271745,-0.033137597,9.774994850
1784240408.992707,-0.001756832,0.003742295,0.030319091,-0.001491354,0.001857233,0.000204975,-0.026185036,-0.024117058,9.789870262
1784240408.994705,-0.001756610,0.003743384,0.030324165,-0.000856606,0.001932548,0.000642500,-0.039883286,-0.006058547,9.795351982
1784240408.996710,-0.001753621,0.003743002,0.030328427,-0.000381731,0.001500416,0.001102953,-0.044101305,-0.020799058,9.796598434
1784240408.998735,-0.001747451,0.003741263,0.030332142,0.000341560,0.000948108,0.001347406,-0.071044549,-0.021026067,9.814057350
1784240409.000728,-0.001745898,0.003740093,0.030334802,0.000758305,0.000367619,0.001416009,-0.051797267,-0.027722437,9.775923729
1784240409.002734,-0.001743703,0.003740800,0.030334551,0.000793115,0.000111289,0.001195709,-0.011587149,-0.042574622,9.775866508
1784240409.004733,-0.001745529,0.003743373,0.030335655,0.000679363,0.000412697,0.000929411,-0.023141481,-0.032220602,9.789820671
1784240409.006720,-0.001748368,0.003746518,0.030336224,0.000254612,0.000797617,0.000789949,-0.029700322,-0.021052614,9.743259430
1784240409.008727,-0.001744312,0.003747768,0.030328525,0.000269902,0.000880187,0.000092056,-0.055120513,-0.004500110,9.792657852
1784240409.010720,-0.001748423,0.003744860,0.030323481,0.000205152,0.000529499,-0.000797849,-0.041878164,-0.023420176,9.783134460
1784240409.012724,-0.001758533,0.003740384,0.030326148,-0.000806205,-0.000115876,-0.000745819,-0.010121227,0.004859604,9.781552315
1784240409.014731,-0.001760890,0.003738679,0.030321116,-0.001486585,-0.000388642,-0.000706726,-0.019520428,0.008408220,9.803533554
1784240409.016737,-0.001752613,0.003735620,0.030318171,-0.000732680,-0.000490504,-0.001054811,-0.051687185,-0.017127167,9.797961235
1784240409.018725,-0.001745962,0.003729925,0.030315481,0.000480983,-0.000950853,-0.001147017,-0.055154353,-0.042357169,9.823799133
1784240409.020733,-0.001741916,0.003736458,0.030321373,0.001152781,-0.000729599,-0.000615714,-0.025603475,-0.013752934,9.780522346
1784240409.022731,-0.001739711,0.003737680,0.030324578,0.001338944,-0.000099604,0.000170605,-0.020796409,-0.023747627,9.791221619
1784240409.024746,-0.001741642,0.003733056,0.030322716,0.001035483,-0.000226689,0.000215964,-0.053102974,-0.023333680,9.791193008
1784240409.026742,-0.001744482,0.003736479,0.030320361,0.000473380,-0.000169275,-0.000129786,-0.034959465,-0.005810548,9.814637184
1784240409.028742,-0.001746043,0.003734571,0.030320903,0.000046593,-0.000020264,-0.000218625,-0.033630550,0.030005300,9.816212654
1784240409.030746,-0.001742256,0.003734368,0.030324630,0.000057774,-0.000133720,0.000131123,-0.040977363,-0.022999614,9.785379410
1784240409.032750,-0.001737918,0.003735834,0.030327573,0.000465808,0.000012310,0.000550286,-0.034085482,-0.008033237,9.810588837
1784240409.034750,-0.001732052,0.003737635,0.030325990,0.000982242,0.000244536,0.000495656,-0.012030133,-0.002907616,9.806159973
1784240409.036748,-0.001731012,0.003729863,0.030327024,0.001134988,-0.000213077,0.000325648,-0.011791523,-0.021187562,9.793040276
1784240409.038747,-0.001730211,0.003725297,0.030323291,0.000952466,-0.000992371,0.000054433,-0.044328254,-0.040016867,9.790198326
1784240409.040746,-0.001733898,0.003726212,0.030318007,0.000519433,-0.000978211,-0.000573622,-0.045045443,-0.026830079,9.764279366
1784240409.042751,-0.001739966,0.003726752,0.030315647,-0.000262604,-0.000621434,-0.000939706,-0.049470838,-0.020612413,9.780006409
1784240409.044753,-0.001745968,0.003727169,0.030312486,-0.000995955,-0.000414644,-0.001062535,-0.048153553,-0.023288812,9.775955200
1784240409.046754,-0.001746973,0.003728200,0.030306928,-0.001185776,-0.000230386,-0.001367903,-0.049028520,-0.021479113,9.775070190
1784240409.048756,-0.001746921,0.003727871,0.030306144,-0.000926898,-0.000119434,-0.001427392,-0.041212812,-0.003884163,9.807022095
1784240409.050754,-0.001746652,0.003726300,0.030307738,-0.000687193,-0.000222139,-0.000984272,-0.041961890,-0.030565301,9.779949188
1784240409.052754,-0.001746853,0.003726755,0.030310417,-0.000530628,-0.000244204,-0.000426524,-0.043305811,-0.030125527,9.783537865
1784240409.054760,-0.001749539,0.003726110,0.030307246,-0.000559841,-0.000202744,-0.000345051,-0.027952105,-0.020227753,9.813205719
1784240409.056762,-0.001741737,0.003728088,0.030305928,-0.000036922,-0.000068753,-0.000555033,-0.020386817,0.011501396,9.811175346
1784240409.058762,-0.001740361,0.003727220,0.030303812,0.000596957,0.000025687,-0.000635411,-0.027794596,0.029952822,9.813079834
1784240409.060762,-0.001736189,0.003722390,0.030313632,0.000636990,-0.000283599,0.000061434,-0.043219995,0.016652230,9.821050644
1784240409.062771,-0.001738218,0.003725765,0.030320324,0.000432809,-0.000222059,0.001166015,-0.031598967,0.012093089,9.811168671
1784240409.064769,-0.001740892,0.003726997,0.030315565,-0.000071429,0.000174676,0.000979237,-0.020732304,-0.018378450,9.792152405
1784240409.066769,-0.001740363,0.003721080,0.030318208,-0.000264139,-0.000166500,0.000569161,-0.034535516,-0.046843693,9.787474632
1784240409.068772,-0.001742434,0.003721300,0.030318759,-0.000297894,-0.000508403,0.000631110,-0.031729896,-0.037877627,9.781706810
1784240409.070773,-0.001746464,0.003726107,0.030312698,-0.000530401,-0.000049613,0.000084143,-0.016912924,0.000815626,9.795418739
1784240409.072772,-0.001748555,0.003725018,0.030309258,-0.000700103,0.000196279,-0.000585587,0.009358432,-0.014087273,9.827628136
1784240409.074776,-0.001745678,0.003718541,0.030309506,-0.000451539,-0.000225235,-0.000642989,-0.036659982,-0.037769873,9.775424957
1784240409.076772,-0.001747490,0.003718782,0.030304478,-0.000251148,-0.000441853,-0.000792583,-0.041604090,-0.000993506,9.779242516
1784240409.078779,-0.001747152,0.003720311,0.030302638,-0.000281322,-0.000200889,-0.001044033,-0.074040174,-0.009707307,9.802917480
1784240409.080780,-0.001747368,0.003720391,0.030304248,-0.000269595,-0.000154473,-0.000776582,-0.058992259,-0.026944382,9.805511475
1784240409.082778,-0.001753726,0.003718546,0.030302403,-0.000715569,-0.000349749,-0.000583745,-0.059915621,-0.030379847,9.786211014
1784240409.084783,-0.001758064,0.003723536,0.030301919,-0.001234888,-0.000111039,-0.000585867,-0.024660503,-0.011378355,9.759914398
1784240409.086784,-0.001760380,0.003726707,0.030295044,-0.001337487,0.000403973,-0.000928058,-0.016454795,-0.036300331,9.784420967
1784240409.088794,-0.001758942,0.003731680,0.030291628,-0.001031307,0.000848261,-0.001374920,-0.023762120,-0.045729998,9.800494194
1784240409.090785,-0.001757470,0.003735041,0.030300707,-0.000466772,0.001215595,-0.000616560,-0.017298849,-0.029788820,9.815396309
1784240409.092785,-0.001753406,0.003735712,0.030304175,0.000121031,0.001190425,0.000403893,-0.045604836,-0.031345647,9.833293915
1784240409.094794,-0.001747534,0.003735010,0.030300982,0.000818917,0.000850287,0.000315535,-0.029754346,-0.023505455,9.773281097
1784240409.096790,-0.001748232,0.003738649,0.030304477,0.001004037,0.000803977,0.000251777,-0.047762264,0.011410497,9.810252190
1784240409.098792,-0.001750281,0.003740719,0.030306369,0.000543596,0.000972548,0.000548495,-0.032919008,0.013937153,9.806247711
1784240409.100794,-0.001743738,0.003736003,0.030310066,0.000599829,0.000533041,0.000780192,-0.028683390,-0.007152251,9.802977562
1784240409.102797,-0.001736699,0.003740618,0.030313814,0.001257137,0.000385436,0.001077284,-0.021304600,-0.025832606,9.833351135
1784240409.104806,-0.001738432,0.003745451,0.030314665,0.001309960,0.000967688,0.001098309,-0.025347589,-0.028249236,9.802396774
1784240409.106803,-0.001739413,0.003748047,0.030314697,0.000805110,0.001255266,0.000859276,-0.018757273,-0.002389317,9.808397293
1784240409.108800,-0.001734788,0.003751643,0.030314986,0.000833799,0.001334717,0.000648945,-0.038837425,0.006043988,9.792740822
1784240409.110809,-0.001736640,0.003755360,0.030312100,0.000747091,0.001430972,0.000297193,-0.029358290,0.009205244,9.772146225
1784240409.112808,-0.001737160,0.003751597,0.030309971,0.000335350,0.001001870,-0.000124855,-0.036606226,-0.031266667,9.805953026
1784240409.114805,-0.001732721,0.003749307,0.030303851,0.000574208,0.000306809,-0.000650210,-0.062956080,-0.061057530,9.758214951
1784240409.116815,-0.001735818,0.003753801,0.030299645,0.000573810,0.000361205,-0.001174493,-0.076523013,-0.030615088,9.786192894
1784240409.118814,-0.001742642,0.003757234,0.030304749,-0.000255664,0.000801107,-0.000797338,-0.005315826,-0.004337743,9.806157112
1784240409.120814,-0.001745139,0.003756860,0.030308759,-0.000809959,0.000847612,0.000035574,-0.002126338,0.036026932,9.794761658
1784240409.122814,-0.001745597,0.003759210,0.030303206,-0.000778896,0.000809232,-0.000079443,-0.006473491,0.009325017,9.777101517
1784240409.124818,-0.001745166,0.003759846,0.030304022,-0.000592642,0.000816835,-0.000379395,-0.031739555,-0.037953939,9.792466164
1784240409.126822,-0.001742979,0.003759757,0.030303767,-0.000278788,0.000656246,-0.000237513,-0.045633670,-0.034004796,9.829241753
1784240409.128824,-0.001746955,0.003756284,0.030304570,-0.000324652,0.000236233,-0.000136278,-0.043139506,-0.013818054,9.821302414
1784240409.130823,-0.001747582,0.003761186,0.030306203,-0.000572200,0.000219779,0.000065107,-0.020770226,-0.020704109,9.804243088
1784240409.132826,-0.001750678,0.003765953,0.030300403,-0.000691169,0.000767873,-0.000236264,-0.075109690,-0.023617577,9.807759285
1784240409.134831,-0.001749263,0.003769276,0.030295908,-0.000579526,0.001023568,-0.000871487,-0.052635223,-0.021973288,9.788064957
1784240409.136848,-0.001742573,0.003767020,0.030295098,0.000164847,0.000732608,-0.000992860,-0.000621666,-0.024949957,9.797958374
1784240409.138829,-0.001741254,0.003760301,0.030297467,0.000663394,-0.000075733,-0.000615325,-0.033351202,0.014073272,9.787865639
1784240409.140828,-0.001748747,0.003760612,0.030294575,-0.000001644,-0.000472637,-0.000485273,-0.055103537,-0.002339795,9.803879738
1784240409.142836,-0.001747903,0.003759201,0.030296974,-0.000518377,-0.000401446,-0.000388575,-0.017157063,0.017430907,9.790594101
1784240409.144834,-0.001747872,0.003758467,0.030303638,-0.000390348,-0.000377007,0.000332382,-0.010897229,-0.022844641,9.772408485
1784240409.146851,-0.001745891,0.003764499,0.030299162,-0.000218175,0.000146801,0.000391190,-0.038307950,-0.025645565,9.774604797
1784240409.148836,-0.001742611,0.003767876,0.030292012,0.000201117,0.000746967,-0.000502979,-0.090449810,-0.031787097,9.787068367
1784240409.150840,-0.001743844,0.003766959,0.030285105,0.000301652,0.000593415,-0.001320455,-0.086238988,-0.052667022,9.817424774
1784240409.152842,-0.001749142,0.003764294,0.030286446,-0.000209521,0.000070331,-0.001341540,-0.017716309,-0.027104840,9.816759109
1784240409.154842,-0.001754368,0.003764806,0.030289665,-0.000869705,-0.000023845,-0.000669790,0.000718804,0.009741402,9.768592834
1784240409.156840,-0.001755879,0.003767404,0.030290760,-0.001093589,0.000264870,-0.000196079,-0.030045552,-0.008072264,9.808798790
1784240409.158846,-0.001757123,0.003769719,0.030295053,-0.000985086,0.000525823,0.000221934,-0.037866320,-0.025301926,9.788505554
1784240409.160846,-0.001755451,0.003764074,0.030296633,-0.000658867,0.000173062,0.000559925,-0.067917116,-0.024414707,9.780859947
1784240409.162848,-0.001752504,0.003760532,0.030295825,-0.000135414,-0.000480882,0.000461406,-0.061814900,0.000329284,9.818685532
1784240409.164850,-0.001750232,0.003760894,0.030298494,0.000213287,-0.000615379,0.000463695,-0.056059521,-0.043622781,9.814373970
1784240409.166849,-0.001750175,0.003760826,0.030299043,0.000270757,-0.000477803,0.000556623,-0.008297881,-0.028880689,9.797478676
1784240409.168851,-0.001750322,0.003766323,0.030300949,0.000190487,0.000020050,0.000572185,-0.005702035,0.001024464,9.808880806
1784240409.170851,-0.001751553,0.003766684,0.030297250,0.000007516,0.000511838,0.000295215,-0.032200959,-0.000053345,9.819158554
1784240409.172852,-0.001758472,0.003762187,0.030296724,-0.000584777,0.000192076,-0.000073528,-0.050975580,-0.031168548,9.818045616
1784240409.174856,-0.001761598,0.003761304,0.030297276,-0.001055449,-0.000258205,-0.000054598,-0.047780354,-0.029969469,9.769637108
1784240409.176856,-0.001764956,0.003765786,0.030296521,-0.001156626,0.000023247,-0.000055080,-0.036731325,-0.005606310,9.789081573
1784240409.178863,-0.001768653,0.003762820,0.030301848,-0.001322681,0.000119290,0.000268748,-0.023092696,-0.029809093,9.765626907
1784240409.180860,-0.001763247,0.003754669,0.030304210,-0.000837661,-0.000574574,0.000717982,-0.053097915,-0.023698973,9.779534340
1784240409.182862,-0.001764244,0.003755949,0.030302107,-0.000299202,-0.000790955,0.000541698,-0.037896737,0.009616183,9.792764664
1784240409.184870,-0.001763051,0.003759399,0.030302407,-0.000242106,-0.000206121,0.000272467,-0.029775754,-0.025700741,9.766991615
1784240409.186871,-0.001757673,0.003758470,0.030304536,0.000231137,0.000069506,0.000365012,-0.041432232,-0.024258254,9.774162292
1784240409.188875,-0.001759784,0.003755526,0.030301085,0.000390440,-0.000212133,0.000176722,-0.029572740,-0.007077160,9.794010162
1784240409.190877,-0.001769234,0.003753758,0.030294996,-0.000523074,-0.000438769,-0.000521807,-0.040474739,-0.016095538,9.821739197
1784240409.192873,-0.001775525,0.003758004,0.030294785,-0.001473086,-0.000116154,-0.000811791,-0.025662275,-0.017054001,9.803813934
1784240409.194876,-0.001780431,0.003759953,0.030300412,-0.001838913,0.000362469,-0.000226886,-0.015165360,-0.003632938,9.787770271
1784240409.196880,-0.001781974,0.003758809,0.030308399,-0.001785232,0.000344273,0.000757282,-0.047810886,0.006568773,9.798116684
1784240409.198880,-0.001777422,0.003755505,0.030309986,-0.001098712,-0.000052286,0.001202354,-0.071082987,-0.024571601,9.808652878
1784240409.200880,-0.001772220,0.003754271,0.030303070,-0.000108796,-0.000412254,0.000516065,-0.070911109,-0.010246383,9.810090065
1784240409.202881,-0.001773211,0.003756079,0.030301500,0.000236906,-0.000327126,-0.000199172,-0.061899554,-0.008038894,9.798456192
1784240409.204890,-0.001779467,0.003758759,0.030295696,-0.000303409,0.000066973,-0.000647416,-0.006865702,-0.058513638,9.803565025
1784240409.206887,-0.001779922,0.003761647,0.030288285,-0.000659128,0.000428094,-0.001370624,-0.027083246,-0.024111919,9.790764809
1784240409.208890,-0.001775596,0.003761783,0.030292280,-0.000216534,0.000517512,-0.001229409,-0.059386589,0.011080588,9.751505852
1784240409.210893,-0.001772527,0.003761820,0.030299466,0.000317726,0.000322292,-0.000134800,-0.047858130,0.002143218,9.790465355
1784240409.212898,-0.001774302,0.003764137,0.030304816,0.000292447,0.000327986,0.000753035,-0.040266056,-0.038664311,9.781692505
1784240409.214896,-0.001771685,0.003763542,0.030306417,0.000329376,0.000351860,0.001020924,-0.043175839,-0.056557804,9.782919884
1784240409.216903,-0.001769225,0.003763703,0.030309089,0.000644422,0.000223259,0.001035205,-0.049519561,-0.023833994,9.792090416
1784240409.218897,-0.001768375,0.003762273,0.030316006,0.000691683,0.000075328,0.001406052,0.001967390,0.004091075,9.804871559
1784240409.220902,-0.001767749,0.003758088,0.030321850,0.000578228,-0.000284161,0.001891195,0.020197436,0.028781582,9.828361511
1784240409.222900,-0.001765845,0.003757233,0.030315742,0.000570411,-0.000505430,0.001360423,0.003264935,0.036012001,9.787144661
1784240409.224905,-0.001762219,0.003752784,0.030309342,0.000675386,-0.000644725,0.000143676,-0.024847895,0.012169013,9.788311005
1784240409.226908,-0.001756287,0.003753975,0.030310415,0.001023437,-0.000608124,-0.000254112,-0.016916506,-0.037613031,9.780825615
