time_sec,roll_rad,pitch_rad,yaw_rad,gyro_x,gyro_y,gyro_z,acc_x,acc_y,acc_z
1784239837.560896,-0.001147088,0.003207275,1.943006039,-0.000328819,0.000089651,-0.000371148,-0.043718882,0.010993466,9.798596382
1784239837.562834,-0.001141389,0.003207777,1.942998409,-0.000447867,-0.000141579,-0.001149729,-0.045100264,-0.029289279,9.795198441
1784239837.564800,-0.001131651,0.003215228,1.943000793,0.000556900,0.000412960,-0.001187651,-0.034051314,-0.044542857,9.778074265
1784239837.566782,-0.001125000,0.003221215,1.943001747,0.001761822,0.001204277,-0.000634710,-0.035554219,-0.020736588,9.772396088
1784239837.568808,-0.001120984,0.003216786,1.943005800,0.002250852,0.000974196,-0.000110647,-0.029342812,-0.025020432,9.796586037
1784239837.570788,-0.001127084,0.003212437,1.943015695,0.001495186,0.000112841,0.000879257,-0.017177962,-0.021134473,9.795277596
1784239837.572797,-0.001129723,0.003216444,1.943012118,0.000537144,0.000140928,0.001079894,-0.028842956,-0.021785524,9.781811714
1784239837.574806,-0.001129332,0.003222451,1.943005085,0.000283506,0.000865651,0.000075370,-0.070307739,0.002316215,9.806586266
1784239837.576806,-0.001131585,0.003230269,1.943000674,0.000007298,0.001286929,-0.000711310,-0.056745213,0.047018729,9.796573639
1784239837.578798,-0.001126199,0.003229553,1.943001509,0.000143415,0.001136889,-0.000744854,-0.015840981,0.052334942,9.794404030
1784239837.580801,-0.001121905,0.003225905,1.943008423,0.000759789,0.000531382,-0.000013057,-0.021909125,-0.004461693,9.790448189
1784239837.582808,-0.001122419,0.003224648,1.943012714,0.000612410,0.000167265,0.000754204,-0.033877134,-0.028578423,9.801041603
1784239837.584823,-0.001122041,0.003228752,1.943015337,0.000240205,0.000428612,0.001026830,-0.071481004,-0.020518305,9.806437492
1784239837.586798,-0.001119563,0.003229960,1.943009734,0.000383412,0.000330755,0.000538519,-0.031752151,-0.001679237,9.794939995
1784239837.588809,-0.001119810,0.003225869,1.943008423,0.000446143,-0.000296508,-0.000073100,-0.037853122,0.014013120,9.804450035
1784239837.590803,-0.001122133,0.003225997,1.943016768,0.000149004,-0.000485533,0.000420985,-0.050180871,0.031841718,9.776755333
1784239837.592796,-0.001118326,0.003228591,1.943022966,-0.000101518,-0.000319979,0.001288006,-0.052583251,0.018863691,9.778911591
1784239837.594798,-0.001114501,0.003231623,1.943020225,0.000135729,-0.000001372,0.001181268,-0.035910223,-0.012299071,9.783659935
1784239837.596807,-0.001108032,0.003237486,1.943024993,0.000801057,0.000604066,0.000998062,-0.043078762,-0.012527860,9.765718460
1784239837.598803,-0.001103418,0.003239160,1.943027139,0.001338223,0.000952568,0.001189099,-0.039604031,0.017219538,9.797742844
1784239837.600798,-0.001102592,0.003236139,1.943021655,0.001344900,0.000602827,0.000638324,0.001349975,0.025360236,9.776314735
1784239837.602809,-0.001105006,0.003232722,1.943024397,0.000714910,0.000174565,0.000289271,0.018603491,0.005768765,9.791001320
1784239837.604815,-0.001105416,0.003238184,1.943022251,0.000171288,0.000438139,0.000254683,-0.013992500,0.019198412,9.788366318
1784239837.606824,-0.001104670,0.003233795,1.943022013,-0.000026704,0.000503348,0.000012473,-0.024228023,-0.012727988,9.759906769
1784239837.608809,-0.001110255,0.003228702,1.943020463,-0.000522373,-0.000165659,-0.000114370,-0.061890170,-0.006749066,9.806087494
1784239837.610806,-0.001117697,0.003224148,1.943021297,-0.001264711,-0.000775459,-0.000117802,-0.082544245,-0.008619478,9.791259766
1784239837.612809,-0.001122143,0.003223964,1.943019152,-0.001659562,-0.001112937,-0.000173632,-0.071919456,0.017563529,9.807577133
1784239837.614806,-0.001120170,0.003228636,1.943010807,-0.001306088,-0.000731853,-0.000841605,-0.051822335,0.008453696,9.792295456
1784239837.616810,-0.001110755,0.003235697,1.943005800,-0.000317721,0.000205070,-0.001521951,-0.001813382,0.023602279,9.777196884
1784239837.618808,-0.001114429,0.003234540,1.943008423,0.000016517,0.000491138,-0.001262222,0.012318664,0.005420372,9.788302422
1784239837.620817,-0.001118150,0.003229429,1.943006873,-0.000490193,-0.000067780,-0.000843806,-0.063104056,0.004038325,9.803463936
1784239837.622813,-0.001114990,0.003227624,1.943007350,-0.000443696,-0.000532429,-0.000701120,-0.082406066,0.003818507,9.806134224
1784239837.624814,-0.001113829,0.003230122,1.943011284,-0.000079653,-0.000354828,-0.000214687,-0.034766875,0.009083457,9.799041748
1784239837.626815,-0.001110193,0.003233029,1.943017602,0.000171192,0.000204252,0.000539185,-0.003546288,-0.009018039,9.768019676
1784239837.628826,-0.001107441,0.003234705,1.943023324,0.000461519,0.000555603,0.001214595,-0.031914230,-0.011874607,9.842845917
1784239837.630823,-0.001100659,0.003240084,1.943022251,0.000982363,0.000883320,0.001202065,-0.069634169,0.019485606,9.785177231
1784239837.632822,-0.001092636,0.003244708,1.943020463,0.001562511,0.001177102,0.000670060,-0.046208613,-0.009158298,9.801602364
1784239837.634822,-0.001093652,0.003244115,1.943010688,0.001457748,0.000986366,-0.000298251,-0.020465374,0.002370838,9.772111893
1784239837.636836,-0.001093190,0.003244600,1.943011880,0.000981604,0.000706407,-0.000788454,-0.038629699,0.020652194,9.754278183
1784239837.638825,-0.001088366,0.003240680,1.943018675,0.001027452,0.000275372,-0.000026991,-0.067047141,0.010920773,9.787812233
1784239837.640829,-0.001089390,0.003238729,1.943015456,0.001005598,-0.000198147,0.000219869,-0.051666182,-0.017771898,9.762538910
1784239837.642832,-0.001099979,0.003242161,1.943009734,-0.000053374,-0.000202664,-0.000448491,-0.014093268,-0.026886923,9.779552460
1784239837.644838,-0.001102830,0.003243956,1.943003774,-0.000948216,0.000048471,-0.001114682,-0.006740141,-0.012637797,9.778753281
1784239837.646837,-0.001099248,0.003239177,1.943005800,-0.000700705,-0.000087475,-0.001076840,-0.030469514,-0.007465929,9.787282944
1784239837.648840,-0.001100809,0.003236406,1.943008423,-0.000434746,-0.000497073,-0.000455156,-0.049751803,-0.042283077,9.803628922
1784239837.650836,-0.001101306,0.003233921,1.943005085,-0.000456259,-0.000718818,-0.000381270,-0.048739325,-0.034091368,9.783955574
1784239837.652842,-0.001101168,0.003233738,1.943003535,-0.000307114,-0.000754257,-0.000633360,-0.035783395,-0.001976888,9.781035423
1784239837.654842,-0.001096575,0.003233278,1.943008184,0.000145258,-0.000643219,-0.000256091,-0.015109873,0.038852811,9.798802376
1784239837.656846,-0.001090735,0.003232092,1.943009615,0.000601426,-0.000511024,0.000235855,-0.002875055,0.047749013,9.785869598
1784239837.658844,-0.001089118,0.003227987,1.943007231,0.000733268,-0.000661672,0.000123190,0.006415511,0.001294941,9.812030792
1784239837.660847,-0.001092041,0.003222879,1.943003297,0.000446856,-0.001106954,-0.000340450,-0.041315980,-0.012398596,9.807415009
1784239837.662845,-0.001094945,0.003218530,1.943003893,-0.000033850,-0.001465620,-0.000480260,-0.016985653,-0.005026953,9.798071861
1784239837.664854,-0.001096486,0.003217335,1.943009973,-0.000292369,-0.001462110,0.000105480,-0.026355810,-0.002059463,9.775664330
1784239837.666856,-0.001094621,0.003221405,1.943008780,-0.000256617,-0.000831223,0.000409679,-0.044006292,-0.010728068,9.829391479
1784239837.668854,-0.001088191,0.003219394,1.943001509,0.000313393,-0.000425958,-0.000270744,-0.053318102,-0.000815781,9.838413239
1784239837.670851,-0.001085492,0.003216869,1.942999005,0.000850149,-0.000617461,-0.000859203,-0.033674937,-0.012798034,9.786797523
1784239837.672857,-0.001084795,0.003217646,1.942994356,0.000880514,-0.000628192,-0.001107226,-0.038448334,-0.000106034,9.774768829
1784239837.674857,-0.001085503,0.003219906,1.942996979,0.000670287,-0.000311622,-0.000943487,-0.030333482,0.003739456,9.786458015
1784239837.676862,-0.001090380,0.003217654,1.942997694,0.000081002,-0.000204509,-0.000464549,-0.032837026,-0.017737107,9.786767006
1784239837.678871,-0.001097032,0.003212303,1.942997098,-0.000751163,-0.000642783,-0.000335786,-0.030170063,0.017997902,9.797307968
1784239837.680862,-0.001096170,0.003211612,1.943002939,-0.000941455,-0.000878764,0.000120178,-0.041561805,0.002177197,9.774332047
1784239837.682863,-0.001096106,0.003214120,1.943012476,-0.000714491,-0.000536844,0.001141755,-0.032873914,-0.020459849,9.791679382
1784239837.684871,-0.001097987,0.003206593,1.943012595,-0.000734056,-0.000751310,0.001485947,-0.044673488,-0.029873354,9.813576698
1784239837.686870,-0.001097402,0.003204726,1.943003893,-0.000568072,-0.001225948,0.000507677,-0.024915451,-0.027575279,9.832889557
1784239837.688866,-0.001099986,0.003206231,1.943002105,-0.000494461,-0.000958459,-0.000328004,-0.027696220,0.000029068,9.799438477
1784239837.690866,-0.001104149,0.003209054,1.943005562,-0.000818557,-0.000404521,-0.000123057,-0.004131412,0.017369110,9.775810242
1784239837.692876,-0.001104213,0.003203960,1.943009138,-0.000969027,-0.000364104,0.000385394,-0.009824193,0.030304356,9.794269562
1784239837.694874,-0.001107123,0.003199900,1.943007469,-0.000992490,-0.000801466,0.000410347,-0.039616458,0.016310895,9.799530983
1784239837.696880,-0.001109558,0.003198697,1.943003893,-0.001206112,-0.001006976,-0.000058556,-0.041144054,0.001116539,9.796742439
1784239837.698880,-0.001109041,0.003191140,1.943004727,-0.001129670,-0.001394287,-0.000220584,-0.038876019,0.004928670,9.823668480
1784239837.700914,-0.001113288,0.003186276,1.943007946,-0.001077018,-0.001859165,0.000111653,-0.014440114,-0.016756129,9.804723740
1784239837.702895,-0.001119456,0.003185263,1.943009138,-0.001503698,-0.001724941,0.000373631,-0.033264149,-0.015129441,9.798886299
1784239837.704918,-0.001121813,0.003183336,1.943004012,-0.001684485,-0.001427140,0.000006195,-0.056661520,-0.021016087,9.786723137
1784239837.706887,-0.001120884,0.003183202,1.943001747,-0.001310180,-0.001286209,-0.000495772,-0.029237451,-0.016083466,9.799781799
1784239837.708889,-0.001127747,0.003183166,1.942999244,-0.001343921,-0.001055349,-0.000680704,-0.003989757,-0.008970952,9.762190819
1784239837.710883,-0.001130895,0.003181765,1.942996979,-0.001657532,-0.000865944,-0.000833818,-0.034073636,-0.010371239,9.761258125
1784239837.712888,-0.001127970,0.003179700,1.942993522,-0.001236178,-0.000842635,-0.000999121,-0.021489531,-0.005913071,9.804785728
1784239837.714887,-0.001127414,0.003176429,1.942985415,-0.000676612,-0.000952159,-0.001480883,-0.012182334,-0.016266963,9.794864655
1784239837.716898,-0.001131314,0.003173544,1.942986846,-0.000649573,-0.001047723,-0.001525653,-0.052612666,-0.018958390,9.805120468
1784239837.718919,-0.001128628,0.003169409,1.942988276,-0.000487346,-0.001176750,-0.000926559,-0.027864931,-0.013460638,9.806525230
1784239837.720922,-0.001126986,0.003167126,1.942992687,-0.000062533,-0.001293378,-0.000273142,-0.018067596,-0.019845860,9.804699898
1784239837.722908,-0.001130153,0.003163536,1.942996621,-0.000078490,-0.001339829,0.000365029,-0.008948314,-0.007872256,9.805682182
1784239837.724910,-0.001133811,0.003163977,1.942997932,-0.000449232,-0.001188476,0.000613769,-0.027843002,0.024707658,9.794665337
1784239837.726912,-0.001131265,0.003166506,1.942999721,-0.000605809,-0.000646574,0.000653145,-0.021493496,0.030835027,9.803677559
1784239837.728908,-0.001128823,0.003165060,1.942993879,-0.000304284,-0.000379403,0.000212432,-0.046500001,0.003031432,9.789127350
1784239837.730919,-0.001126192,0.003156168,1.942991853,0.000124356,-0.000977439,-0.000365433,-0.034143083,-0.014161608,9.790373802
1784239837.732917,-0.001124089,0.003149903,1.942992210,0.000504034,-0.001776359,-0.000373126,-0.003379001,0.007702418,9.810718536
1784239837.734917,-0.001120570,0.003148661,1.942996740,0.000839475,-0.001839678,0.000057496,-0.003887095,0.001160447,9.786466599
1784239837.736916,-0.001115714,0.003138181,1.943000913,0.001046295,-0.001958947,0.000623458,-0.006071738,0.006517033,9.793223381
1784239837.738919,-0.001121860,0.003130157,1.943003416,0.000541342,-0.002505971,0.000905788,-0.029681427,0.020333707,9.782978058
1784239837.740924,-0.001127994,0.003123758,1.942999244,-0.000438887,-0.002804441,0.000551440,-0.034356721,0.007152317,9.817859650
1784239837.742928,-0.001126108,0.003119656,1.942996979,-0.000679010,-0.002737005,-0.000029291,-0.037672330,-0.007154911,9.819557190
1784239837.744924,-0.001124165,0.003120838,1.942997098,-0.000306598,-0.002173575,-0.000159783,-0.013291147,0.001834075,9.771667480
1784239837.746922,-0.001122411,0.003120222,1.943000913,-0.000051259,-0.001477509,0.000161912,-0.027178530,0.004620573,9.782879829
1784239837.748923,-0.001120512,0.003117144,1.943004727,0.000131027,-0.001259929,0.000647370,-0.027841857,-0.012062703,9.798911095
1784239837.750922,-0.001117573,0.003111960,1.943003416,0.000423308,-0.001478913,0.000638135,-0.030151660,-0.017825656,9.794389725
1784239837.752925,-0.001113829,0.003104913,1.943005562,0.000795308,-0.001999475,0.000521338,-0.009775763,-0.040440481,9.787538528
1784239837.754926,-0.001109848,0.003097315,1.943007231,0.001136347,-0.002542775,0.000652072,-0.031455256,-0.052631121,9.776679993
1784239837.756977,-0.001118718,0.003093187,1.943003535,0.000828252,-0.002660029,0.000332785,-0.055694483,-0.013993754,9.805598259
1784239837.758945,-0.001120002,0.003092048,1.942997575,0.000248157,-0.002306421,-0.000421433,-0.074381217,0.000874624,9.827643394
1784239837.760938,-0.001119666,0.003092173,1.943000436,0.000117062,-0.001748745,-0.000517443,-0.021967644,-0.008976278,9.795351982
1784239837.762936,-0.001115822,0.003089579,1.943005085,0.000343302,-0.001530371,0.000134152,-0.005082034,0.014934125,9.804935455
1784239837.764950,-0.001116356,0.003083642,1.943002462,0.000450262,-0.001782433,0.000245413,-0.011680686,0.024977259,9.790646553
1784239837.766948,-0.001116641,0.003076226,1.942997932,0.000093070,-0.002209480,-0.000307395,-0.046975400,0.001610622,9.800774574
1784239837.768945,-0.001109735,0.003068340,1.942997932,0.000337326,-0.002653009,-0.000547580,-0.033513989,-0.000585443,9.770286560
1784239837.770947,-0.001103011,0.003068140,1.942999244,0.001170622,-0.002481641,-0.000321617,0.016688289,-0.042069510,9.779932976
1784239837.772948,-0.001099153,0.003064883,1.943000078,0.001674088,-0.001888149,-0.000082351,0.018543750,-0.036345329,9.790731430
1784239837.774948,-0.001098340,0.003060249,1.942999244,0.001640145,-0.001756576,-0.000054775,-0.030516142,-0.049881719,9.766386986
1784239837.776955,-0.001104766,0.003059882,1.942996979,0.001055284,-0.001671358,-0.000252257,-0.066477656,-0.013563612,9.827558517
1784239837.778949,-0.001112180,0.003057985,1.942996979,0.000070577,-0.001423593,-0.000341819,-0.050491072,0.007508733,9.796773911
1784239837.780952,-0.001120367,0.003058195,1.943001509,-0.001008469,-0.001151971,0.000044165,0.010499283,0.002412568,9.773486137
1784239837.782947,-0.001123804,0.003058618,1.943006873,-0.001557304,-0.000670993,0.000706392,0.012650506,0.031545199,9.768296242
1784239837.784960,-0.001119755,0.003057671,1.943004131,-0.001125083,-0.000398586,0.000702307,-0.008718479,0.048147712,9.803351402
1784239837.786962,-0.001111142,0.003052542,1.943002105,-0.000234747,-0.000599229,0.000192571,-0.001490456,0.015714100,9.814805984
1784239837.788960,-0.001112952,0.003051362,1.943005443,0.000014916,-0.000761640,0.000235700,-0.011776850,-0.020666465,9.782732964
1784239837.790958,-0.001110543,0.003046443,1.943005443,0.000050881,-0.000969152,0.000392754,-0.020456227,0.004064116,9.786020279
1784239837.792960,-0.001108149,0.003044646,1.943005681,0.000330712,-0.001121729,0.000290939,-0.015984505,0.003885799,9.803059578
1784239837.794964,-0.001110764,0.003043520,1.942999959,0.000194700,-0.000974903,-0.000161422,-0.059144970,-0.003933633,9.783242226
1784239837.796966,-0.001115858,0.003042015,1.943003058,-0.000358599,-0.001026253,-0.000293997,-0.055018675,-0.031965032,9.811311722
1784239837.798962,-0.001117404,0.003041143,1.942997456,-0.000689159,-0.001046442,-0.000390365,-0.018697277,-0.036668673,9.777242661
1784239837.800970,-0.001123173,0.003044325,1.942985296,-0.000994938,-0.000604162,-0.001487078,0.006690313,-0.015888769,9.770676613
1784239837.802979,-0.001128074,0.003038411,1.942981005,-0.001364735,-0.000479036,-0.002179043,0.003507802,0.017360402,9.763263702
1784239837.805011,-0.001128869,0.003032723,1.942982197,-0.001299225,-0.000991002,-0.001783370,0.005446652,0.032253295,9.807746887
1784239837.806985,-0.001122855,0.003027829,1.942980766,-0.000727439,-0.001352723,-0.001313713,0.001220749,0.017855816,9.823789597
1784239837.808984,-0.001128115,0.003028320,1.942975640,-0.000612721,-0.001196341,-0.001402956,-0.043746628,0.007127152,9.775259018
1784239837.810982,-0.001130739,0.003026120,1.942972660,-0.000979898,-0.000986897,-0.001576464,-0.040501852,-0.020362107,9.791673660
1784239837.812982,-0.001126454,0.003025112,1.942965388,-0.000598324,-0.001038423,-0.001847383,-0.031197347,-0.029521558,9.802831650
1784239837.814980,-0.001124007,0.003023640,1.942964792,0.000023350,-0.001026664,-0.001881457,-0.016745823,0.014292613,9.790124893
1784239837.816983,-0.001120703,0.003024392,1.942967653,0.000260946,-0.000713996,-0.001218959,-0.015183358,0.032193806,9.790241241
1784239837.818986,-0.001119326,0.003022395,1.942968488,0.000361109,-0.000521987,-0.000646392,-0.025099929,-0.008462637,9.791763306
1784239837.820985,-0.001120339,0.003021219,1.942969322,0.000287406,-0.000595746,-0.000357069,0.006387759,-0.040161334,9.782176971
1784239837.822989,-0.001127226,0.003019206,1.942968488,-0.000252024,-0.000445587,-0.000254247,-0.002977503,-0.035128929,9.784441948
1784239837.824996,-0.001138862,0.003021071,1.942967415,-0.001365717,-0.000129661,-0.000305700,0.020261168,-0.041842435,9.804594994
1784239837.826995,-0.001144780,0.003016398,1.942963719,-0.002087522,-0.000025256,-0.000542310,-0.029510707,-0.000913811,9.809291840
1784239837.828992,-0.001144729,0.003015229,1.942960978,-0.001819700,-0.000154974,-0.000840927,-0.052047767,0.028458716,9.814840317
1784239837.831003,-0.001141462,0.003015878,1.942958593,-0.001099383,-0.000147804,-0.000948754,-0.035768647,0.038160942,9.807296753
1784239837.833008,-0.001132475,0.003019789,1.942959547,-0.000246504,0.000158318,-0.000772382,0.011984878,0.016059542,9.804957390
1784239837.835013,-0.001131074,0.003020187,1.942958474,0.000247886,0.000364252,-0.000571986,0.003378214,-0.028547235,9.792559624
1784239837.837015,-0.001131009,0.003016591,1.942956805,0.000388406,0.000229759,-0.000608452,-0.051673435,-0.052582260,9.806251526
1784239837.839053,-0.001128536,0.003017503,1.942957163,0.000563263,0.000166444,-0.000544450,-0.036025599,-0.059715562,9.773043633
1784239837.841036,-0.001136461,0.003017449,1.942960382,0.000039504,0.000179124,-0.000137496,0.009544446,-0.038050801,9.794746399
1784239837.843035,-0.001144732,0.003014368,1.942964315,-0.000976603,0.000085657,0.000410111,0.009250993,-0.025066905,9.796623230
1784239837.845044,-0.001143103,0.003010749,1.942970872,-0.001068983,-0.000224625,0.001007286,-0.001324805,-0.008004970,9.810620308
1784239837.847105,-0.001138912,0.003009117,1.942967772,-0.000429278,-0.000383412,0.000974474,-0.028654613,0.031070093,9.783496857
1784239837.849059,-0.001135355,0.003011596,1.942970395,0.000168431,-0.000084866,0.000682310,-0.013618316,0.012930741,9.786980629
1784239837.851025,-0.001134710,0.003015976,1.942970276,0.000407431,0.000403509,0.000669239,-0.005315772,-0.005147807,9.794046402
1784239837.853027,-0.001133450,0.003012508,1.942971230,0.000253839,0.000529492,0.000549604,-0.012054895,-0.043935012,9.778996468
1784239837.855028,-0.001134182,0.003012080,1.942981243,0.000046394,0.000294108,0.001146446,-0.062394526,-0.012045719,9.795741081
1784239837.857030,-0.001130901,0.003016418,1.942989588,0.000149355,0.000314897,0.002070113,-0.018860217,-0.011307201,9.802511215
1784239837.859027,-0.001129242,0.003016011,1.942989707,0.000388682,0.000332367,0.002075352,0.001307845,-0.014993808,9.780540466
1784239837.861025,-0.001123301,0.003017707,1.942984581,0.000800036,0.000330071,0.001176871,-0.004064719,-0.011589142,9.815526962
1784239837.863054,-0.001123482,0.003018312,1.942982912,0.001029639,0.000509921,0.000396874,-0.018082894,0.014786435,9.786091805
1784239837.865345,-0.001128531,0.003013190,1.942986250,0.000449192,0.000177481,0.000402542,-0.026834598,-0.001075490,9.827227592
1784239837.867070,-0.001130894,0.003013281,1.942988515,-0.000228979,-0.000207600,0.000676247,-0.024493843,0.005742366,9.809339523
1784239837.869056,-0.001127091,0.003013896,1.942992210,-0.000122156,-0.000098734,0.000896814,-0.021251837,0.012173895,9.781140327
1784239837.871077,-0.001127091,0.003013896,1.942992210,0.000425899,0.000010949,0.001148670,-0.021251837,0.012173895,9.781140327
1784239837.873061,-0.001123150,0.003016600,1.942987204,0.000341152,0.000334154,0.000664814,-0.003533151,0.031107077,9.796072960
1784239837.875057,-0.001131288,0.003021598,1.942988396,-0.000530644,0.000867321,0.000150235,-0.023381304,-0.013950195,9.804284096
1784239837.877065,-0.001132706,0.003026606,1.942994237,-0.001003419,0.001392990,0.000588724,-0.025406051,-0.033573896,9.795188904
1784239837.879054,-0.001131004,0.003029893,1.942998171,-0.000680499,0.001659637,0.001089090,-0.040675055,-0.035913564,9.773640633
1784239837.881056,-0.001133842,0.003032167,1.943002224,-0.000574475,0.001585954,0.001343591,-0.000753496,-0.035716921,9.800130844
1784239837.883095,-0.001135267,0.003030707,1.942999244,-0.000642498,0.001374727,0.001058538,0.006243571,-0.015057046,9.780544281
1784239837.885063,-0.001134927,0.003031086,1.943004370,-0.000476639,0.001092091,0.000922711,-0.023989899,0.011035835,9.820136070
1784239837.887082,-0.001131952,0.003032075,1.943010092,-0.000248963,0.000863389,0.001419515,-0.013938129,0.022464504,9.770005226
1784239837.889072,-0.001131061,0.003034603,1.943008661,-0.000044299,0.000843125,0.001331014,-0.005624938,0.004875244,9.771245956
1784239837.891060,-0.001128562,0.003037900,1.943008780,0.000198055,0.001009673,0.000888612,-0.016904518,0.001692469,9.798113823
1784239837.893064,-0.001131354,0.003037586,1.943009853,0.000011418,0.001025815,0.000745681,-0.012169504,-0.015355140,9.792629242
1784239837.895068,-0.001136609,0.003038326,1.943008065,-0.000650447,0.000864138,0.000495342,-0.042989668,-0.001287868,9.823176384
1784239837.897077,-0.001139269,0.003041137,1.943011403,-0.001041975,0.000798493,0.000457821,-0.045411777,0.020331439,9.811655998
1784239837.899065,-0.001140215,0.003045777,1.943015575,-0.001036004,0.001014975,0.000847614,-0.019208230,-0.004832859,9.774756432
1784239837.901067,-0.001137447,0.003049331,1.943016887,-0.000632196,0.001295252,0.000988478,-0.016740069,0.015553824,9.801789284
1784239837.903064,-0.001136213,0.003046111,1.943013787,-0.000287684,0.001033896,0.000601183,-0.026619686,0.014400017,9.792805672
1784239837.905077,-0.001134765,0.003050740,1.943014979,-0.000126328,0.000916465,0.000319307,-0.045321558,-0.008035771,9.831201553
1784239837.907076,-0.001134101,0.003060485,1.943015814,0.000052842,0.001566671,0.000370885,-0.038178992,-0.014090785,9.787680626
1784239837.909071,-0.001136102,0.003066490,1.943014383,-0.000050258,0.002133962,0.000228092,-0.006451222,0.010716597,9.770384789
1784239837.911069,-0.001128300,0.003067610,1.943014264,0.000357451,0.002038375,0.000067845,0.001881085,0.034110215,9.805065155
1784239837.913086,-0.001117692,0.003070750,1.943017244,0.001303996,0.001905856,0.000258670,-0.022150500,0.047739044,9.758952141
1784239837.915078,-0.001114913,0.003075088,1.943020940,0.001651769,0.002027445,0.000651081,-0.039710827,0.008676476,9.802171707
1784239837.917078,-0.001114302,0.003076719,1.943022728,0.001341757,0.001834661,0.000844227,-0.023503415,-0.025450921,9.783587456
1784239837.919088,-0.001108377,0.003077100,1.943015575,0.001331726,0.001426444,0.000243658,-0.032958608,-0.028017953,9.783561707
1784239837.921087,-0.001108377,0.003077100,1.943015575,0.001777487,0.001091941,-0.000807099,-0.032958608,-0.028017953,9.783561707
1784239837.923090,-0.001101813,0.003081056,1.943018913,0.001651942,0.001190008,-0.000740992,-0.023218632,-0.000508182,9.803921700
1784239837.925091,-0.001100005,0.003080981,1.943029761,0.000887841,0.001066724,-0.000045122,-0.024743393,0.021909690,9.804512024
1784239837.927091,-0.001099640,0.003084325,1.943025231,0.000403523,0.000836124,-0.000188723,-0.007054130,0.000183947,9.803494453
1784239837.929091,-0.001097677,0.003087362,1.943025708,0.000452846,0.001042556,-0.000416972,-0.005380505,-0.010116722,9.799842834
1784239837.931089,-0.001096262,0.003090138,1.943021774,0.000597946,0.001263536,-0.000546579,-0.032162871,0.002678937,9.812900543
1784239837.933095,-0.001097763,0.003093510,1.943015814,0.000469855,0.001447695,-0.001074482,-0.028185010,0.034876600,9.814456940
1784239837.935100,-0.001091434,0.003098572,1.943014860,0.000431041,0.001651933,-0.001241955,-0.020997498,0.034444764,9.799216270
1784239837.937103,-0.001090591,0.003097438,1.943003416,0.000563078,0.001495328,-0.001744492,-0.012574630,0.027447587,9.822941780
1784239837.939091,-0.001092407,0.003096306,1.942997098,0.000347913,0.000936833,-0.002474592,-0.025225373,-0.018368656,9.798873901
1784239837.941102,-0.001092120,0.003097891,1.942997932,0.000174209,0.000813053,-0.002174529,-0.041600589,-0.036934715,9.792910576
1784239837.943094,-0.001087966,0.003106480,1.942996979,0.000451757,0.001382280,-0.001590584,-0.021314168,-0.065119028,9.813371658
1784239837.945106,-0.001084288,0.003106139,1.942993999,0.001177100,0.001630872,-0.001418005,-0.019196430,-0.038277082,9.815340996
1784239837.947108,-0.001082686,0.003100717,1.942989945,0.001532977,0.000861198,-0.001514477,-0.018218929,0.003581052,9.786916733
1784239837.949108,-0.001081189,0.003110139,1.942987204,0.001328558,0.000899361,-0.001564104,-0.010687071,0.032209452,9.779933929
1784239837.951100,-0.001080441,0.003122642,1.942993045,0.000939351,0.002257598,-0.000925309,-0.031726368,0.036114231,9.772767067
1784239837.953106,-0.001085579,0.003133975,1.942993641,0.000204678,0.003376590,-0.000243327,-0.063145824,0.036840625,9.790225029
1784239837.955110,-0.001075495,0.003141705,1.942994475,0.000224286,0.003593801,-0.000073892,-0.044263106,0.002545186,9.790472031
1784239837.957116,-0.001070859,0.003145220,1.942999482,0.000901116,0.003221036,0.000354514,-0.036833759,-0.050894290,9.794170380
1784239837.959114,-0.001072596,0.003150665,1.943003297,0.000851322,0.002954116,0.000864336,-0.005467854,-0.017290456,9.800693512
1784239837.961119,-0.001076592,0.003152422,1.942998409,0.000291378,0.002679413,0.000566540,-0.007206103,-0.013578839,9.785921097
1784239837.963118,-0.001077888,0.003150230,1.942991257,-0.000084206,0.001961619,-0.000411410,-0.045538548,0.009199178,9.802169800
1784239837.965214,-0.001073675,0.003153338,1.942992449,0.000002384,0.001396285,-0.000708308,-0.054448206,0.013469821,9.784703255
1784239837.967141,-0.001072241,0.003156356,1.942997694,0.000248116,0.001337259,-0.000073905,-0.038143180,0.027429080,9.808569908
1784239837.969139,-0.001074250,0.003160994,1.943004489,0.000139093,0.001493032,0.000767989,-0.038374156,0.008179472,9.806652069
1784239837.971142,-0.001075721,0.003165238,1.943008661,-0.000210175,0.001717858,0.001309284,-0.031229103,0.004170299,9.790493965
1784239837.973132,-0.001074847,0.003165601,1.943015814,-0.000268903,0.001591433,0.001720358,-0.024579071,-0.003035620,9.783730507
1784239837.975124,-0.001069394,0.003168580,1.943011999,0.000213138,0.001424998,0.001478687,-0.030107584,-0.014235609,9.793516159
1784239837.977137,-0.001071424,0.003171646,1.943014979,0.000368027,0.001487520,0.001032566,-0.005933015,-0.018225146,9.806964874
1784239837.979128,-0.001072917,0.003174965,1.943019509,0.000027339,0.001516526,0.001266366,-0.004931749,-0.010932539,9.787732124
1784239837.981133,-0.001071636,0.003173275,1.943017483,0.000049605,0.001392848,0.001093325,-0.024702732,-0.012522291,9.794876099
1784239837.983140,-0.001075042,0.003172666,1.943015933,-0.000062698,0.001036583,0.000568439,-0.050539367,-0.034109704,9.789782524
1784239837.985141,-0.001081896,0.003178838,1.943016291,-0.000539679,0.001050411,0.000331375,-0.041126292,-0.037143588,9.758387566
1784239837.987140,-0.001080480,0.003180556,1.943016410,-0.000560235,0.001218289,0.000268386,-0.031737708,-0.000754701,9.790910721
1784239837.989141,-0.001077494,0.003179601,1.943017244,-0.000109566,0.000939252,0.000275158,-0.046110164,-0.002302157,9.782368660
1784239837.991136,-0.001074113,0.003180286,1.943017721,0.000308511,0.000680899,0.000297979,-0.030770671,0.006267635,9.809786797
1784239837.993144,-0.001081503,0.003180504,1.943018675,-0.000091239,0.000572283,0.000313929,-0.010827871,0.022992676,9.816190720
1784239837.995144,-0.001076761,0.003183688,1.943020701,-0.000470379,0.000745430,0.000435124,-0.018805269,-0.007631306,9.789533615
1784239837.997144,-0.001078233,0.003189137,1.943023324,-0.000345193,0.001226556,0.000634341,-0.061568361,-0.053856898,9.814302444
1784239837.999146,-0.001079453,0.003193259,1.943025589,-0.000435223,0.001542899,0.000797041,-0.069579802,-0.012001425,9.802457809
1784239838.001151,-0.001081230,0.003197298,1.943022370,-0.000449516,0.001415251,0.000516513,-0.057437330,-0.007886901,9.832087517
1784239838.003161,-0.001083535,0.003200139,1.943018079,-0.000532134,0.001235810,-0.000139740,-0.033279508,0.020312933,9.792389870
1784239838.005169,-0.001083081,0.003205044,1.943019390,-0.000607044,0.001481350,-0.000308860,0.002946264,0.008775403,9.774415970
1784239838.007154,-0.001082189,0.003207000,1.943026304,-0.000447070,0.001599263,0.000326115,-0.033198781,-0.010560799,9.786362648
1784239838.009152,-0.001079443,0.003208718,1.943023443,-0.000079694,0.001414128,0.000516799,-0.018920008,-0.017858097,9.778708458
1784239838.011156,-0.001077996,0.003210744,1.943022728,0.000297865,0.001299284,0.000132494,-0.024403049,0.012538091,9.798624992
1784239838.013158,-0.001077975,0.003206644,1.943022847,0.000387353,0.000820421,0.000048606,-0.025835991,0.003764638,9.774805069
1784239838.015155,-0.001074576,0.003203556,1.943021536,0.000413159,0.000166234,-0.000050374,-0.019273648,0.026161697,9.763746262
1784239838.017163,-0.001073416,0.003206066,1.943022966,0.000508933,0.000138262,-0.000029599,-0.064898051,0.004067685,9.802566528
1784239838.019208,-0.001076738,0.003212862,1.943025231,0.000223138,0.000732142,0.000241118,-0.032002211,0.016105050,9.814779282
1784239838.021202,-0.001082979,0.003221201,1.943024516,-0.000595662,0.001514343,0.000276844,-0.023664920,-0.000483358,9.801231384
1784239838.023196,-0.001094320,0.003225717,1.943022847,-0.001735633,0.001929695,0.000030369,-0.033171225,-0.009937957,9.761709213
1784239838.025176,-0.001098313,0.003224269,1.943026185,-0.002319912,0.001651875,0.000136800,-0.018477103,0.019274980,9.785672188
1784239838.027177,-0.001096439,0.003219365,1.943023801,-0.001848322,0.000810061,0.000176094,-0.045297056,-0.009868580,9.773803711
1784239838.029184,-0.001095567,0.003220315,1.943019748,-0.001158687,0.000322169,-0.000299483,-0.037267312,-0.013584374,9.777820587
1784239838.031183,-0.001099244,0.003222530,1.943020105,-0.001013247,0.000437467,-0.000463363,-0.013013962,-0.008846802,9.824053764
1784239838.033188,-0.001100997,0.003226944,1.943018436,-0.001085946,0.000756380,-0.000419256,-0.041015845,0.011854891,9.798604012
1784239838.035197,-0.001102811,0.003223389,1.943013668,-0.001124441,0.000576781,-0.000750433,-0.053584762,-0.025615431,9.797904015
1784239838.037192,-0.001109734,0.003217219,1.943018436,-0.001504874,-0.000272990,-0.000544962,-0.006062599,-0.029379657,9.800614357
1784239838.039189,-0.001110725,0.003217330,1.943027258,-0.001636477,-0.000611266,0.000527160,-0.013107535,-0.019311702,9.783637047
1784239838.041189,-0.001108392,0.003216217,1.943021297,-0.001057193,-0.000446569,0.000589480,-0.015107004,0.003311872,9.819198608
1784239838.043188,-0.001110991,0.003216122,1.943021536,-0.000742472,-0.000339889,0.000056977,-0.033372261,0.012691234,9.793236732
1784239838.045192,-0.001107587,0.003220113,1.943028569,-0.000620836,0.000003662,0.000536851,-0.031822048,0.030090410,9.800972939
1784239838.047190,-0.001102408,0.003225543,1.943020701,-0.000002528,0.000629527,0.000347814,-0.052029014,0.028201530,9.787939072
1784239838.049189,-0.001099408,0.003226482,1.943014264,0.000556450,0.000891948,-0.000711445,-0.044501323,0.017991470,9.760980606
1784239838.051191,-0.001091477,0.003230341,1.943004489,0.001034571,0.000921246,-0.001628308,-0.030127956,-0.016827988,9.780050278
1784239838.053191,-0.001090277,0.003237128,1.942999244,0.001260436,0.001339450,-0.002222010,-0.033869769,-0.030141337,9.768752098
1784239838.055187,-0.001095080,0.003239223,1.942998171,0.000771865,0.001575389,-0.002042174,-0.055644363,-0.045109138,9.833642960
1784239838.057190,-0.001100383,0.003236008,1.942991734,-0.000025194,0.001068498,-0.001987855,-0.048900884,-0.008313726,9.813711166
1784239838.059196,-0.001099497,0.003238004,1.942990541,-0.000316529,0.000696225,-0.001965894,-0.045130413,0.004415298,9.781068802
1784239838.061196,-0.001097371,0.003245402,1.942999244,-0.000035451,0.001115479,-0.000934363,-0.037391521,0.016945958,9.832264900
1784239838.063193,-0.001102883,0.003246931,1.942999244,-0.000265156,0.001389145,-0.000111563,-0.056821465,0.004774269,9.814682961
1784239838.065203,-0.001109256,0.003250188,1.942991853,-0.001030058,0.001277496,-0.000579902,-0.040415760,-0.047140967,9.839921951
1784239838.067202,-0.001101942,0.003255568,1.942989349,-0.000716159,0.001457753,-0.001080706,-0.036971435,-0.023712358,9.815418243
1784239838.069205,-0.001093606,0.003255833,1.943000197,0.000538718,0.001444482,-0.000217189,-0.020056829,0.000426984,9.792723656
1784239838.071204,-0.001088544,0.003254940,1.943003535,0.001230493,0.001020795,0.000806354,0.022087693,-0.002404124,9.799919128
1784239838.073201,-0.001087973,0.003252706,1.943000197,0.001210495,0.000543668,0.000593478,-0.021278318,-0.027246078,9.779991150
1784239838.075203,-0.001091807,0.003254041,1.942997336,0.000709801,0.000293980,0.000004929,-0.062729582,-0.038195979,9.819334030
1784239838.077206,-0.001084278,0.003255209,1.942988157,0.000818603,0.000343404,-0.000818921,-0.045652431,-0.001831330,9.778338432
1784239838.079209,-0.001084479,0.003255078,1.942990422,0.001095283,0.000321069,-0.001058063,-0.044453446,-0.012736368,9.797546387
1784239838.081206,-0.001093066,0.003260935,1.942989230,0.000267161,0.000510573,-0.000691210,-0.051610474,-0.010442735,9.802934647
1784239838.083228,-0.001093810,0.003259746,1.942992210,-0.000373143,0.000576805,-0.000388317,-0.060688276,-0.022088826,9.755776405
1784239838.085217,-0.001090585,0.003261093,1.942991972,-0.000082779,0.000400462,-0.000095504,-0.019923864,-0.025576405,9.794797897
1784239838.087217,-0.001089141,0.003265746,1.942988515,0.000278714,0.000669019,-0.000312986,0.005379815,-0.049938209,9.772698402
1784239838.089219,-0.001086665,0.003266639,1.942992449,0.000469088,0.000863787,-0.000200763,-0.024667289,-0.046995606,9.791069984
1784239838.091214,-0.001084037,0.003258432,1.942991495,0.000815518,0.000192362,0.000057307,-0.059315816,-0.018655937,9.774629593
1784239838.093217,-0.001071559,0.003249195,1.942984462,0.001749275,-0.000983543,-0.000497560,-0.036416400,-0.017204996,9.781386375
1784239838.095226,-0.001070646,0.003248705,1.942990422,0.002197831,-0.001426575,-0.000430491,-0.021921434,-0.004153640,9.810175896
1784239838.097223,-0.001078522,0.003252884,1.942995906,0.001140197,-0.000839634,0.000469672,-0.050760087,-0.015283229,9.789007187
1784239838.099224,-0.001084083,0.003249906,1.942995310,-0.000082583,-0.000530513,0.000690808,-0.063232251,-0.006700019,9.801602364
1784239838.101219,-0.001087149,0.003247102,1.942987323,-0.000688315,-0.000896724,-0.000071580,-0.033399135,-0.023895072,9.834697723
1784239838.103223,-0.001088171,0.003245139,1.942986488,-0.000821369,-0.001094609,-0.000662202,0.010105595,0.008120985,9.790558815
1784239838.105231,-0.001088326,0.003241665,1.942986846,-0.000772517,-0.001009892,-0.000513299,-0.016333826,0.011970747,9.800870895
1784239838.107243,-0.001093870,0.003239999,1.942989469,-0.001044647,-0.000928300,-0.000170530,-0.045983054,0.006806509,9.761354446
1784239838.109236,-0.001097574,0.003236199,1.942990780,-0.001389605,-0.001047601,0.000132101,-0.079525881,-0.019353554,9.783123970
1784239838.111232,-0.001104774,0.003238609,1.942993283,-0.001748014,-0.001007361,0.000353102,-0.056682006,-0.021988319,9.797475815
1784239838.113232,-0.001104192,0.003236876,1.942996144,-0.001718544,-0.000837850,0.000623653,-0.013119053,-0.021834126,9.760307312
1784239838.115239,-0.001103120,0.003231967,1.942994475,-0.001120376,-0.000952800,0.000531505,-0.041114595,0.003375428,9.794067383
1784239838.117237,-0.001103106,0.003227065,1.942995667,-0.000722854,-0.001251456,0.000354807,-0.070806623,-0.003342552,9.784131050
1784239838.119239,-0.001099053,0.003226088,1.942998648,-0.000251498,-0.001310981,0.000552187,-0.066584572,-0.023323365,9.814046860
1784239838.121236,-0.001100167,0.003229707,1.942999959,0.000042125,-0.000939825,0.000698206,-0.037366688,-0.021663571,9.780011177
1784239838.123240,-0.001102786,0.003227478,1.943002820,-0.000196887,-0.000754444,0.000785335,-0.003817586,0.006977583,9.787400246
1784239838.125246,-0.001100259,0.003229078,1.943003535,-0.000224724,-0.000476759,0.000813730,-0.011325437,-0.019029820,9.803814888
1784239838.127248,-0.001098073,0.003227851,1.943007708,0.000080988,-0.000206541,0.000925572,-0.075136259,0.010925693,9.801703453
1784239838.129244,-0.001095055,0.003229532,1.943011880,0.000410438,-0.000120274,0.001241274,-0.057363439,-0.001224717,9.840200424
1784239838.131246,-0.001094728,0.003227466,1.943013787,0.000468045,-0.000234568,0.001325569,-0.023566524,0.007182851,9.794107437
1784239838.133272,-0.001096602,0.003220460,1.943015695,0.000178497,-0.000907344,0.001238751,-0.021286240,0.011496994,9.813416481
1784239838.135297,-0.001099014,0.003218119,1.943011761,-0.000246829,-0.001248603,0.000760802,-0.043989204,-0.010187896,9.816394806
1784239838.137258,-0.001100017,0.003218300,1.943006277,-0.000495957,-0.001008785,-0.000090012,-0.042083696,-0.002852735,9.789541245
1784239838.139292,-0.001098091,0.003218171,1.943003535,-0.000296826,-0.000730742,-0.000618381,-0.026666770,-0.027208881,9.784469604
1784239838.141264,-0.001099345,0.003217796,1.943007708,-0.000063123,-0.000551130,-0.000353414,-0.021541676,-0.012403555,9.772462845
1784239838.143265,-0.001097488,0.003211023,1.943008184,0.000101732,-0.000871535,0.000053710,-0.005394796,-0.051061440,9.761022568
1784239838.145260,-0.001104588,0.003206633,1.943011403,-0.000123695,-0.001298881,0.000294511,-0.039135270,-0.022243962,9.738759995
1784239838.147260,-0.001110176,0.003200990,1.943014026,-0.000793707,-0.001533633,0.000613970,-0.040405415,-0.013521870,9.774681091
1784239838.149259,-0.001116062,0.003193006,1.943008184,-0.001356304,-0.002041955,0.000212881,-0.028340677,0.019058427,9.770865440
1784239838.151258,-0.001119887,0.003198359,1.943008900,-0.001739773,-0.001673805,-0.000201515,-0.052402515,0.033258867,9.770485878
1784239838.153265,-0.001126455,0.003200128,1.943016291,-0.002068323,-0.000744645,0.000402797,-0.053403258,0.027186131,9.807209015
1784239838.155265,-0.001127434,0.003190769,1.943018436,-0.002101697,-0.001060602,0.000946139,-0.039239798,0.009252236,9.783346176
1784239838.157269,-0.001124553,0.003179994,1.943021417,-0.001483622,-0.002141892,0.001049407,-0.044257466,0.002589699,9.784195900
1784239838.159269,-0.001126146,0.003173743,1.943030715,-0.000996034,-0.002717000,0.001613280,-0.040373113,-0.008403889,9.811029434
1784239838.161268,-0.001128458,0.003176425,1.943037152,-0.001030326,-0.002323124,0.002244587,-0.012371006,0.005244101,9.794554710
1784239838.163274,-0.001130556,0.003173693,1.943033218,-0.001086760,-0.001796326,0.001803183,-0.030912336,-0.004982266,9.816886902
1784239838.165282,-0.001131602,0.003169393,1.943025112,-0.001021144,-0.001785717,0.000504918,-0.047340192,0.046758085,9.816306114
1784239838.167281,-0.001131292,0.003167702,1.943020105,-0.000809633,-0.001707203,-0.000530459,-0.043736905,-0.028359732,9.788032532
1784239838.169275,-0.001129418,0.003163084,1.943013549,-0.000439054,-0.001671004,-0.001176183,-0.035847668,-0.042505812,9.809917450
1784239838.171274,-0.001130503,0.003157931,1.943004131,-0.000189205,-0.001894635,-0.001936840,-0.042029448,-0.035556465,9.788883209
1784239838.173282,-0.001125621,0.003159876,1.943004608,0.000195425,-0.001612630,-0.002018822,-0.045222197,-0.037546542,9.822492599
1784239838.175285,-0.001120960,0.003162827,1.943012714,0.000876350,-0.000878842,-0.000883546,-0.019899463,-0.022952231,9.803781509
1784239838.177286,-0.001122506,0.003161099,1.943019509,0.000934765,-0.000594100,0.000356596,-0.022146598,-0.022952104,9.807813644
1784239838.179283,-0.001125412,0.003157297,1.943019152,0.000377413,-0.000808639,0.000679064,-0.034161203,-0.014304691,9.810548782
1784239838.181281,-0.001126380,0.003152113,1.943016291,0.000060964,-0.001178012,0.000281120,-0.038283020,0.012951612,9.765438080
1784239838.183302,-0.001122399,0.003144791,1.943015814,0.000297962,-0.001686126,-0.000009367,-0.003459974,-0.001447217,9.774345398
1784239838.185289,-0.001122805,0.003140548,1.943018436,0.000435102,-0.001914231,0.000158840,-0.015286542,-0.013910599,9.784117699
1784239838.187292,-0.001122781,0.003136713,1.943018675,0.000266265,-0.001843737,0.000318372,-0.037127711,-0.001540295,9.785071373
1784239838.189289,-0.001117187,0.003130411,1.943022728,0.000574422,-0.002031574,0.000524200,-0.053290594,0.000617133,9.825868607
1784239838.191297,-0.001114196,0.003129455,1.943018436,0.000908127,-0.002167706,0.000367441,-0.051663760,-0.014915982,9.802008629
1784239838.193290,-0.001111805,0.003123521,1.943008900,0.000936684,-0.002240919,-0.000667595,-0.001191299,0.004801484,9.836705208
1784239838.195292,-0.001112883,0.003118004,1.943006039,0.000704550,-0.002256083,-0.001331538,-0.014967243,0.012925726,9.790118217
1784239838.197294,-0.001123483,0.003116926,1.943007708,-0.000348758,-0.001938260,-0.001056610,-0.039913487,-0.009133857,9.786814690
1784239838.199300,-0.001129017,0.003116900,1.943000436,-0.001348079,-0.001486466,-0.001144298,-0.032834489,-0.016501330,9.802016258
1784239838.201301,-0.001129397,0.003118312,1.942989945,-0.001385697,-0.001033697,-0.002036776,-0.001839917,-0.015007611,9.788158417
1784239838.203302,-0.001127745,0.003117384,1.942988634,-0.000926500,-0.000765539,-0.002289367,0.005950855,-0.038846675,9.787116051
1784239838.205304,-0.001123382,0.003108715,1.942986727,-0.000110687,-0.001082898,-0.001897811,-0.016526712,-0.004546583,9.792695045
1784239838.207304,-0.001119392,0.003102192,1.942985415,0.000642200,-0.001693896,-0.001596379,-0.004855446,-0.004251280,9.793155670
1784239838.209306,-0.001118550,0.003100499,1.942979455,0.000797281,-0.001791114,-0.001646252,-0.036511216,0.013557446,9.803102493
1784239838.211303,-0.001120211,0.003103404,1.942969203,0.000430218,-0.001241025,-0.002293650,-0.064671747,-0.013904204,9.809177399
1784239838.213302,-0.001119373,0.003100597,1.942973971,0.000160301,-0.000916687,-0.002043629,-0.056992538,-0.009544590,9.812350273
1784239838.215306,-0.001120502,0.003097210,1.942981005,0.000100023,-0.001193052,-0.000690764,-0.052157339,-0.018506635,9.803778648
1784239838.217316,-0.001122600,0.003093913,1.942983985,-0.000142891,-0.001427569,0.000185973,-0.020531991,0.036192704,9.804609299
1784239838.219313,-0.001119924,0.003089555,1.942977071,-0.000064048,-0.001559306,-0.000131456,-0.028048942,0.007681947,9.795002937
1784239838.221313,-0.001112738,0.003086316,1.942968607,0.000483787,-0.001619805,-0.001137950,-0.029927703,0.000963272,9.798097610
1784239838.223319,-0.001111383,0.003082468,1.942968607,0.000791744,-0.001629775,-0.001401778,-0.011714010,-0.014496767,9.797118187
1784239838.225320,-0.001107218,0.003081176,1.942977428,0.001015604,-0.001428237,-0.000419444,0.005829148,-0.050344221,9.765970230
1784239838.227315,-0.001100484,0.003082334,1.942972064,0.001544842,-0.000941170,-0.000062383,-0.024495589,-0.033077020,9.786675453
1784239838.229319,-0.001101768,0.003081203,1.942964554,0.001498005,-0.000682817,-0.000922704,-0.037806459,0.018028863,9.806717873
1784239838.231322,-0.001098190,0.003080518,1.942963123,0.001136638,-0.000600737,-0.001279773,-0.042664669,0.024782909,9.810791016
1784239838.233321,-0.001091508,0.003076334,1.942965388,0.001412014,-0.000748836,-0.000872280,-0.043382958,0.001586891,9.797639847
1784239838.235323,-0.001086383,0.003076273,1.942969680,0.001810389,-0.000879181,-0.000196148,-0.014055177,-0.024154641,9.773291588
1784239838.237334,-0.001089027,0.003071930,1.942970991,0.001467759,-0.000984979,0.000241186,-0.003918688,-0.037084159,9.809085846
1784239838.239360,-0.001090363,0.003065455,1.942971587,0.000798608,-0.001452073,0.000322266,0.010277002,-0.014336873,9.798037529
1784239838.241366,-0.001094288,0.003065791,1.942973137,0.000334870,-0.001270626,0.000384276,-0.009153679,0.010264977,9.775759697
1784239838.243349,-0.001099525,0.003067825,1.942977428,-0.000268475,-0.000561046,0.000666918,-0.010845763,0.022446139,9.830085754
1784239838.245341,-0.001099898,0.003070617,1.942975521,-0.000689165,-0.000024890,0.000638284,-0.039677050,0.012590487,9.818785667
1784239838.247338,-0.001101697,0.003070795,1.942972541,-0.000760794,0.000240156,0.000129699,-0.026025981,0.026886299,9.800060272
1784239838.249338,-0.001098180,0.003069562,1.942974687,-0.000437513,0.000103434,0.000046788,-0.026186472,-0.023723148,9.797493935
1784239838.251338,-0.001096809,0.003065206,1.942975879,0.000065369,-0.000288808,0.000274012,-0.019721892,-0.009392575,9.786831856
1784239838.253337,-0.001094663,0.003060557,1.942975163,0.000339261,-0.000806327,0.000239534,-0.028731830,0.026002621,9.803191185
1784239838.255347,-0.001086803,0.003057067,1.942976475,0.000774600,-0.001113881,0.000215178,-0.001527820,0.008124570,9.747957230
1784239838.257357,-0.001084617,0.003056129,1.942975760,0.001094470,-0.001085971,0.000198844,-0.021072133,-0.007786978,9.815533638
1784239838.259361,-0.001084572,0.003054429,1.942972898,0.000949453,-0.000969907,-0.000083900,-0.002797547,0.019686688,9.825591087
1784239838.261383,-0.001085791,0.003048589,1.942976117,0.000478887,-0.001134960,-0.000039121,-0.008932600,-0.004911410,9.830359459
1784239838.263352,-0.001086264,0.003048218,1.942973852,0.000100814,-0.001165044,0.000030050,-0.039182257,0.016190685,9.815671921
1784239838.265349,-0.001088794,0.003052137,1.942971706,-0.000222519,-0.000680252,-0.000277849,-0.065970957,-0.010274652,9.805164337
1784239838.267353,-0.001086855,0.003053063,1.942970395,-0.000294504,-0.000239185,-0.000447245,-0.031971611,-0.018406421,9.816352844
1784239838.269349,-0.001090001,0.003051650,1.942970037,-0.000296129,-0.000207183,-0.000445817,0.010508434,0.004105841,9.787396431
1784239838.271349,-0.001092859,0.003052605,1.942972898,-0.000676699,-0.000091555,-0.000156036,0.031528268,-0.004005091,9.755980492
1784239838.273353,-0.001095708,0.003053828,1.942975163,-0.000934345,0.000171353,0.000236611,0.006219059,-0.016061075,9.795780182
1784239838.275359,-0.001087131,0.003051640,1.942970634,-0.000273238,0.000158833,0.000017411,-0.052256726,-0.029422676,9.763807297
1784239838.277358,-0.001080389,0.003053308,1.942969203,0.000860224,0.000180232,-0.000393793,-0.027326245,-0.044266984,9.790186882
1784239838.279357,-0.001083524,0.003052668,1.942973733,0.000870894,0.000200844,-0.000080856,0.012848153,-0.023432339,9.812328339
1784239838.281361,-0.001084574,0.003045175,1.942978144,0.000402775,-0.000231425,0.000541007,-0.015666822,-0.006880559,9.804337502
1784239838.283371,-0.001082106,0.003045551,1.942979336,0.000442721,-0.000477111,0.000778396,-0.041283298,0.027475687,9.807670593
1784239838.285372,-0.001077782,0.003049072,1.942984104,0.000639757,-0.000172034,0.000972348,-0.031150604,0.048864063,9.806025505
1784239838.287366,-0.001071585,0.003049413,1.942984223,0.001036581,0.000047925,0.001041822,0.009291805,0.016897747,9.817963600
1784239838.289363,-0.001071863,0.003042694,1.942978263,0.001158058,-0.000397577,0.000366719,-0.009784437,-0.002513835,9.809750557
1784239838.291367,-0.001073506,0.003038085,1.942974210,0.000629433,-0.001001683,-0.000416453,-0.011522697,-0.036392190,9.788459778
1784239838.293370,-0.001071039,0.003038179,1.942978501,0.000428503,-0.000980091,-0.000280100,-0.003835088,-0.031155733,9.794328690
1784239838.295375,-0.001068874,0.003035812,1.942981720,0.000681039,-0.000755661,0.000308427,-0.006438863,-0.025154658,9.774190903
1784239838.297370,-0.001069585,0.003037814,1.942982674,0.000649986,-0.000462416,0.000502870,-0.028203374,0.032300115,9.798748016
1784239838.299375,-0.001071933,0.003036103,1.942987323,0.000264738,-0.000317540,0.000751872,-0.017508121,0.024286442,9.772255898
1784239838.301376,-0.001070291,0.003032908,1.942988515,0.000052464,-0.000572832,0.000949417,-0.014976153,0.013665851,9.812091827
1784239838.303377,-0.001064936,0.003028986,1.942994475,0.000420349,-0.000908990,0.001183579,-0.030042443,-0.009263524,9.787272453
1784239838.305381,-0.001061913,0.003034655,1.942995667,0.000857691,-0.000543731,0.001357833,-0.010307130,0.027202995,9.790213585
1784239838.307386,-0.001063999,0.003032981,1.942992449,0.000673149,-0.000124351,0.000853016,-0.001114379,0.008245638,9.793238640
1784239838.309379,-0.001067458,0.003027619,1.942987204,0.000115742,-0.000567588,0.000047174,0.007386912,0.006325477,9.795926094
1784239838.311382,-0.001066608,0.003021082,1.942985177,-0.000165544,-0.001036375,-0.000450228,-0.001296954,-0.005758808,9.809738159
1784239838.313383,-0.001064437,0.003018829,1.942982435,0.000011157,-0.001167002,-0.000648333,-0.048509542,0.022738667,9.793734550
1784239838.315385,-0.001061148,0.003015319,1.942981482,0.000246625,-0.001407749,-0.000721084,-0.052885409,-0.005405699,9.789963722
1784239838.317389,-0.001057931,0.003011189,1.942980528,0.000488811,-0.001710660,-0.000648319,-0.022177670,-0.025223704,9.812283516
1784239838.319388,-0.001054649,0.003012876,1.942982793,0.000796928,-0.001412100,-0.000375586,0.015668385,-0.015971955,9.766201019
1784239838.321387,-0.001056347,0.003011857,1.942984581,0.000735973,-0.000796651,0.000005379,-0.012674078,-0.020248346,9.788561821
1784239838.323394,-0.001056521,0.003014385,1.942985296,0.000457382,-0.000291116,0.000174544,-0.023676205,-0.003409228,9.771622658
1784239838.325397,-0.001053700,0.003016037,1.942982793,0.000400541,0.000149353,0.000009583,0.006642513,0.019702675,9.806323051
1784239838.327396,-0.001050694,0.003016934,1.942984581,0.000574743,0.000359467,-0.000038655,-0.019778963,0.023288900,9.790627480
1784239838.329393,-0.001053105,0.003009395,1.942988157,0.000458015,-0.000189356,0.000337097,-0.002635238,-0.005274519,9.807049751
1784239838.331395,-0.001058008,0.003003432,1.942987680,-0.000227190,-0.000941796,0.000463496,-0.020736491,-0.015980033,9.832967758
1784239838.333395,-0.001061383,0.003005472,1.942986846,-0.000790915,-0.000839391,0.000252218,-0.026351614,-0.036374170,9.812655449
1784239838.335402,-0.001066781,0.003009749,1.942989588,-0.001032135,-0.000101865,0.000300836,-0.007330049,-0.024688836,9.773295403
1784239838.337406,-0.001072315,0.003009146,1.942991495,-0.001354923,0.000255790,0.000533589,-0.016098317,-0.005117938,9.809279442
1784239838.339403,-0.001076769,0.003010145,1.942988992,-0.001664876,0.000213260,0.000358356,0.011807027,0.038466524,9.804654121
1784239838.341405,-0.001078554,0.003004349,1.942987084,-0.001873891,0.000003764,-0.000041045,0.016594293,0.026289256,9.807271004
1784239838.343403,-0.001076111,0.003002618,1.942985296,-0.001558173,-0.000334223,-0.000278138,0.009684219,0.009153020,9.772184372
1784239838.345406,-0.001072011,0.003002314,1.942993522,-0.000801777,-0.000248229,0.000219747,-0.004495072,-0.011843755,9.789072037
1784239838.347408,-0.001071457,0.002998205,1.942993999,-0.000379451,-0.000347186,0.000743812,-0.009089695,-0.020335672,9.794393539
1784239838.349447,-0.001072975,0.002999992,1.942986727,-0.000340506,-0.000410071,0.000096259,0.002048847,-0.028803069,9.767897606
1784239838.351425,-0.001077942,0.003002549,1.942977428,-0.000538500,0.000198735,-0.001058158,-0.030629596,-0.020482238,9.790785789
1784239838.353418,-0.001084000,0.003003046,1.942972779,-0.000991494,0.000554470,-0.001719600,-0.021430219,-0.038982093,9.792469025
1784239838.355418,-0.001082253,0.003001526,1.942965269,-0.000893354,0.000304251,-0.002077248,-0.010227500,-0.002463575,9.803473473
1784239838.357433,-0.001081932,0.003001191,1.942954063,-0.000387457,0.000066055,-0.002788708,0.011001789,0.008099946,9.791904449
1784239838.359421,-0.001084318,0.002996042,1.942956805,-0.000420694,-0.000323445,-0.002604820,-0.000105292,0.016005279,9.771322250
1784239838.361425,-0.001082943,0.002982100,1.942963362,-0.000455223,-0.001298468,-0.001265256,-0.040371269,0.028795345,9.809473991
1784239838.363431,-0.001084742,0.002981990,1.942964792,-0.000440297,-0.001666656,-0.000377687,-0.041938860,0.009232676,9.790965080
1784239838.365433,-0.001081180,0.002986705,1.942961335,-0.000327435,-0.001013810,-0.000411778,-0.031429406,-0.012810879,9.784556389
1784239838.367435,-0.001080862,0.002985531,1.942958832,-0.000100708,-0.000610113,-0.000707560,0.002943389,-0.025189914,9.825310707
1784239838.369427,-0.001085855,0.002985727,1.942958951,-0.000390277,-0.000510663,-0.000672117,-0.008894866,-0.040582344,9.805921555
1784239838.371431,-0.001090696,0.002983485,1.942955732,-0.000816877,-0.000327563,-0.000700178,-0.041696787,-0.006588439,9.810141563
1784239838.373429,-0.001089035,0.002983354,1.942954183,-0.000675559,-0.000216276,-0.000846387,-0.052082021,-0.012238363,9.804266930
1784239838.375434,-0.001094884,0.002984519,1.942957163,-0.000773110,-0.000189696,-0.000520278,-0.047368854,0.006915598,9.811568260
1784239838.377433,-0.001097973,0.002988124,1.942960858,-0.001167742,0.000082932,0.000079222,-0.031845655,-0.010117370,9.784573555
1784239838.379438,-0.001101618,0.002989899,1.942960382,-0.001308468,0.000425389,0.000282313,-0.021866834,-0.001290990,9.785537720
1784239838.381438,-0.001110557,0.002991799,1.942958951,-0.001826960,0.000591457,0.000086152,-0.046378415,0.013312283,9.792331696
1784239838.383470,-0.001110154,0.002998013,1.942963719,-0.001930997,0.001013368,0.000288347,-0.000754874,-0.001379960,9.760001183
1784239838.385458,-0.001098540,0.002992926,1.942960143,-0.000671688,0.001019227,0.000291671,0.025580060,-0.012133555,9.775650024
1784239838.387450,-0.001092154,0.002986675,1.942952394,0.000654409,0.000178326,-0.000558402,-0.013427403,-0.008967868,9.778769493
1784239838.389448,-0.001086776,0.002985159,1.942954421,0.001276428,-0.000396878,-0.000798922,-0.023281176,-0.005054571,9.813308716
1784239838.391448,-0.001084857,0.002986242,1.942957401,0.001408202,-0.000277005,-0.000231522,-0.019986624,0.007870621,9.816981316
1784239838.393449,-0.001092767,0.002987516,1.942960382,0.000602008,-0.000000402,0.000253652,-0.030467374,-0.006233329,9.802981377
1784239838.395454,-0.001093939,0.002991564,1.942955256,-0.000217422,0.000351029,0.000047956,-0.025638342,-0.016459774,9.783193588
1784239838.397458,-0.001084837,0.002990050,1.942948699,0.000342324,0.000418562,-0.000750969,0.012824906,-0.025236906,9.814109802
1784239838.399452,-0.001083445,0.002989367,1.942951918,0.000962383,0.000156052,-0.000774771,0.000960756,-0.042049527,9.805471420
1784239838.401455,-0.001090673,0.002989324,1.942953110,0.000457939,0.000277901,-0.000268382,-0.014084411,-0.061570097,9.805333138
1784239838.403457,-0.001092235,0.002986562,1.942953944,-0.000109628,0.000225715,-0.000045001,-0.031845789,-0.048924029,9.760114670
1784239838.405478,-0.001095339,0.002989305,1.942951798,-0.000233847,0.000132022,-0.000116795,-0.036141638,0.006848179,9.800818443
1784239838.407519,-0.001096540,0.002995579,1.942947865,-0.000298852,0.000677457,-0.000490569,-0.037167285,0.034521367,9.817584038
1784239838.409469,-0.001097527,0.002996797,1.942947030,-0.000365282,0.001002456,-0.000673033,-0.026745573,0.042890850,9.818992615
1784239838.411466,-0.001100178,0.003000335,1.942950130,-0.000687163,0.001131290,-0.000337645,-0.016735461,0.015995424,9.802689552
1784239838.413466,-0.001098194,0.003004933,1.942956448,-0.000721415,0.001453986,0.000395673,0.019167433,-0.023217121,9.770640373
1784239838.415469,-0.001094361,0.003004211,1.942961693,-0.000061412,0.001518912,0.001056391,0.001071930,-0.032661423,9.808223724
1784239838.417469,-0.001090359,0.002998449,1.942966938,0.000556555,0.000863093,0.001479862,-0.006457382,-0.025300922,9.794813156
1784239838.419468,-0.001087174,0.002991116,1.942970276,0.000891505,-0.000260728,0.001676263,-0.073664375,0.021627715,9.806258202
1784239838.421470,-0.001084052,0.002992610,1.942966223,0.000995950,-0.000749943,0.001171087,-0.066417746,0.063710235,9.798015594
1784239838.423470,-0.001083197,0.002991966,1.942962646,0.000915326,-0.000651784,0.000336009,-0.022437111,0.026023880,9.788849831
1784239838.425471,-0.001080642,0.002989848,1.942964673,0.000782692,-0.000636022,0.000142426,-0.012397645,0.003007473,9.794092178
1784239838.427477,-0.001072767,0.002997888,1.942959428,0.001162870,-0.000034933,-0.000120916,-0.000192303,-0.027945172,9.777317047
1784239838.429500,-0.001065461,0.003002762,1.942952037,0.001880123,0.000852059,-0.000941370,-0.011815289,-0.024212006,9.777329445
1784239838.431493,-0.001066587,0.003005213,1.942956448,0.001873412,0.001193848,-0.000873682,-0.019928640,-0.026424633,9.788065910
1784239838.433485,-0.001068698,0.003000857,1.942959428,0.001227273,0.000815575,-0.000142917,-0.028539319,-0.033473235,9.786669731
1784239838.435484,-0.001068661,0.002998973,1.942954183,0.000844434,0.000165060,-0.000262377,-0.072270453,-0.011144141,9.812773705
1784239838.437488,-0.001066951,0.003003351,1.942951918,0.000825907,0.000284436,-0.000688667,-0.053877864,-0.011818280,9.811442375
1784239838.439551,-0.001066344,0.003003721,1.942958117,0.000758060,0.000529221,-0.000222195,-0.036156021,0.005113568,9.792737007
1784239838.441500,-0.001068551,0.003001701,1.942963958,0.000394526,0.000203633,0.000655873,-0.034597240,0.023796219,9.808999062
1784239838.443531,-0.001072482,0.003001338,1.942967534,-0.000177805,-0.000083130,0.001114254,-0.028423596,-0.022833459,9.802429199
1784239838.445511,-0.001080579,0.003005540,1.942972898,-0.000843131,0.000142737,0.001432155,-0.038009647,-0.035754468,9.809510231
1784239838.447503,-0.001088200,0.003008940,1.942974567,-0.001577849,0.000562849,0.001520355,-0.037983179,0.000828660,9.768498421
1784239838.449501,-0.001092872,0.003014165,1.942975879,-0.001984467,0.000995275,0.001296687,-0.013642530,0.013550031,9.825990677
1784239838.451498,-0.001088870,0.003014398,1.942973256,-0.001612657,0.001160755,0.000863198,-0.021676823,0.016014151,9.808960915
1784239838.453500,-0.001086455,0.003010301,1.942967653,-0.000859350,0.000649009,0.000075303,-0.014784250,0.029770190,9.815333366
1784239838.455504,-0.001083714,0.003013955,1.942965984,-0.000452997,0.000493402,-0.000443531,-0.039638728,0.014919318,9.806247711
1784239838.457505,-0.001086230,0.003020973,1.942975163,-0.000494724,0.001133453,0.000193066,-0.014713475,0.034786794,9.802812576
1784239838.459519,-0.001089582,0.003025127,1.942975640,-0.000760694,0.001583377,0.000800770,0.005898390,-0.005723606,9.791810989
1784239838.461506,-0.001083627,0.003027959,1.942962527,-0.000427672,0.001806764,-0.000272621,-0.008262556,-0.026980741,9.782246590
1784239838.463507,-0.001082712,0.003032893,1.942957163,0.000105783,0.002022905,-0.001469007,-0.017047744,-0.010380225,9.794898033
1784239838.465565,-0.001085778,0.003029035,1.942957163,-0.000093327,0.001533194,-0.001442511,-0.047748510,-0.024044588,9.818542480
1784239838.467516,-0.001085172,0.003029704,1.942956805,-0.000260444,0.000886482,-0.001063823,-0.034586862,-0.053327814,9.754256248
1784239838.469522,-0.001087968,0.003036257,1.942953706,-0.000337666,0.001136286,-0.001018539,-0.033067759,-0.034553319,9.820731163
1784239838.471523,-0.001095036,0.003038889,1.942955971,-0.000826896,0.001447821,-0.000804998,-0.054107975,-0.031871598,9.796518326
1784239838.473522,-0.001094213,0.003034763,1.942959547,-0.000939111,0.000949293,-0.000183743,-0.050318111,-0.014126337,9.814570427
1784239838.475521,-0.001087673,0.003032655,1.942963958,-0.000193455,0.000216330,0.000412504,-0.036520008,0.015514266,9.843016624
1784239838.477520,-0.001089454,0.003034412,1.942963123,0.000173981,0.000082134,0.000541931,-0.034775790,0.009823577,9.821014404
1784239838.479522,-0.001097049,0.003040480,1.942961097,-0.000509075,0.000591253,0.000204844,-0.002020587,0.007377111,9.790990829
1784239838.481522,-0.001101433,0.003043491,1.942972064,-0.001259550,0.001157989,0.000754249,-0.027160984,-0.030399270,9.792966843
1784239838.483550,-0.001099202,0.003046226,1.942979336,-0.001141186,0.001343814,0.001786090,-0.059866533,-0.026345013,9.785787582
1784239838.485530,-0.001096061,0.003051080,1.942979693,-0.000385502,0.001368290,0.001834200,-0.033227772,-0.010789739,9.818641663
1784239838.487531,-0.001091772,0.003047738,1.942978024,0.000306633,0.000974375,0.001253418,-0.044859059,-0.009553555,9.791738510
1784239838.489529,-0.001087687,0.003050253,1.942972183,0.000793421,0.000654259,0.000396868,-0.010837641,0.059289631,9.815526962
1784239838.491529,-0.001081906,0.003059721,1.942967653,0.000977474,0.001324073,-0.000420930,-0.014121105,0.008456880,9.786952019
1784239838.493530,-0.001083146,0.003061986,1.942970157,0.000748384,0.001794401,-0.000439704,-0.018478436,-0.016704386,9.804718971
1784239838.495536,-0.001089511,0.003058166,1.942969918,0.000046708,0.001240954,-0.000152342,-0.039998144,-0.017502038,9.766585350
1784239838.497536,-0.001086247,0.003057978,1.942975998,-0.000159426,0.000671053,0.000291228,-0.039473198,-0.010016452,9.784119606
1784239838.499558,-0.001081636,0.003059672,1.942974210,0.000417589,0.000590805,0.000491022,-0.012161385,-0.013264779,9.813714981
1784239838.501559,-0.001076437,0.003062038,1.942968130,0.001023024,0.000751319,-0.000174247,-0.013362953,-0.002785448,9.791364670
1784239838.503549,-0.001074720,0.003066939,1.942967653,0.001267326,0.001085811,-0.000567730,-0.048718024,0.004477190,9.778822899
1784239838.505584,-0.001070253,0.003072506,1.942972898,0.001300205,0.001452396,-0.000095748,-0.055478889,-0.034481708,9.787981987
1784239838.507559,-0.001065941,0.003071009,1.942973256,0.001500098,0.001285128,0.000318152,-0.038539492,-0.045304976,9.767305374
1784239838.509548,-0.001065123,0.003066632,1.942973733,0.001440803,0.000537505,0.000290930,-0.016688284,-0.016358912,9.815931320
1784239838.511549,-0.001062077,0.003067618,1.942976594,0.001327629,0.000244616,0.000434857,-0.044902902,-0.013547050,9.786333084
1784239838.513550,-0.001060932,0.003068798,1.942978740,0.001267052,0.000408222,0.000668204,-0.033933677,0.040076055,9.786687851
1784239838.515556,-0.001062934,0.003069110,1.942979336,0.000678942,0.000354166,0.000691950,-0.014687769,-0.001789604,9.779712677
1784239838.517554,-0.001065503,0.003071655,1.942981958,-0.000001668,0.000407392,0.000727417,-0.040355407,-0.008263982,9.791301727
1784239838.519553,-0.001065953,0.003073121,1.942983508,-0.000206982,0.000568697,0.000808553,-0.035238832,-0.030305322,9.794303894
1784239838.521552,-0.001069131,0.003076928,1.942982435,-0.000391712,0.000724133,0.000615090,-0.028356213,-0.018248918,9.787663460
1784239838.523565,-0.001071704,0.003078936,1.942986131,-0.000670878,0.000874039,0.000618544,-0.042828146,0.011334543,9.812048912
1784239838.525560,-0.001074256,0.003075230,1.942985892,-0.000898694,0.000407201,0.000671967,-0.038729470,0.015406653,9.799077988
1784239838.527560,-0.001070773,0.003071100,1.942984462,-0.000652490,-0.000349207,0.000366236,-0.036482859,0.014186648,9.777551651
1784239838.529562,-0.001069375,0.003071235,1.942983031,-0.000143437,-0.000525371,0.000073919,-0.031788975,-0.005212056,9.787744522
1784239838.531567,-0.001069838,0.003074936,1.942981005,-0.000056278,-0.000146336,-0.000190810,-0.026574174,0.017596157,9.784308434
1784239838.533568,-0.001069236,0.003075338,1.942980647,-0.000047044,0.000147818,-0.000293389,-0.040382087,0.027899435,9.809468269
1784239838.535563,-0.001065393,0.003078760,1.942980647,-0.000023362,0.000289041,-0.000224082,-0.026338892,0.000910920,9.798997879
1784239838.537565,-0.001065018,0.003083173,1.942974448,-0.000020265,0.000664608,-0.000587288,-0.046167709,-0.006403761,9.792206764
1784239838.539571,-0.001067615,0.003083922,1.942964792,-0.000162250,0.000835751,-0.001502544,-0.081314944,-0.018069344,9.794786453
1784239838.541570,-0.001075224,0.003086821,1.942960620,-0.000740579,0.000550683,-0.002027922,-0.046380259,0.010866165,9.758242607
1784239838.543569,-0.001076754,0.003087256,1.942958713,-0.001091022,0.000321041,-0.001887162,-0.013074774,0.022589358,9.813942909
1784239838.545574,-0.001071072,0.003083173,1.942952871,-0.000749241,0.000165973,-0.001891913,-0.016323881,-0.023919586,9.807364464
1784239838.547574,-0.001068369,0.003080627,1.942954421,-0.000213695,-0.000149514,-0.001661374,-0.042951707,-0.037362248,9.792458534
1784239838.549580,-0.001067215,0.003082604,1.942956448,0.000105401,-0.000147798,-0.000968749,-0.025313241,-0.026762266,9.782231331
1784239838.551582,-0.001070706,0.003082584,1.942957163,0.000033174,0.000091059,-0.000517495,-0.051106766,-0.007582652,9.777847290
1784239838.553579,-0.001074059,0.003086748,1.942955732,-0.000324667,0.000413788,-0.000423091,-0.051893339,0.003840542,9.811096191
1784239838.555588,-0.001073749,0.003088073,1.942955136,-0.000513205,0.000612670,-0.000444665,-0.048560128,0.017070981,9.771730423
1784239838.557594,-0.001076360,0.003087206,1.942950487,-0.000599497,0.000416346,-0.000678823,-0.029456384,0.003162355,9.803043365
1784239838.559594,-0.001080802,0.003088980,1.942952037,-0.000914844,0.000365159,-0.000704879,-0.003439427,0.001551788,9.793642998
1784239838.561628,-0.001087219,0.003090111,1.942954659,-0.001378630,0.000525396,-0.000235734,-0.001255586,0.030941973,9.752138138
1784239838.563664,-0.001089821,0.003089751,1.942954659,-0.001591281,0.000497336,0.000015167,-0.048940644,-0.013085501,9.791711807
1784239838.565617,-0.001086505,0.003090504,1.942955732,-0.001133186,0.000290959,0.000089573,-0.050041970,0.007506160,9.796326637
1784239838.567602,-0.001087784,0.003089335,1.942955613,-0.000709613,0.000085759,0.000125562,-0.039815150,-0.000657572,9.791799545
1784239838.569645,-0.001091723,0.003088458,1.942955732,-0.000871172,-0.000076324,0.000096807,-0.051587000,-0.009041608,9.794873238
1784239838.571612,-0.001093248,0.003095504,1.942957878,-0.001038187,0.000291226,0.000222901,-0.013887779,-0.009054328,9.791770935
1784239838.573606,-0.001093674,0.003099375,1.942955494,-0.000920925,0.000881387,0.000154469,-0.053607244,0.010986398,9.817418098
1784239838.575607,-0.001084688,0.003098989,1.942958951,-0.000209179,0.000728034,0.000192621,-0.054596495,0.001762417,9.793147087
1784239838.577608,-0.001080406,0.003094853,1.942957163,0.000628858,0.000072786,0.000235946,-0.008175719,-0.018190041,9.806064606
1784239838.579602,-0.001081925,0.003096641,1.942949414,0.000647641,-0.000105650,-0.000471891,-0.033956584,0.001494777,9.793612480
1784239838.581611,-0.001081034,0.003100330,1.942946911,0.000360691,0.000379796,-0.001020695,-0.061112810,-0.019055458,9.771037102
1784239838.583647,-0.001080954,0.003101525,1.942948461,0.000258261,0.000692527,-0.000806791,-0.057543911,-0.019670239,9.788073540
1784239838.585625,-0.001080696,0.003097550,1.942948461,0.000248160,0.000234688,-0.000492215,-0.044162523,-0.024119200,9.822580338
1784239838.587624,-0.001082540,0.003093187,1.942952037,0.000109805,-0.000476299,-0.000120946,-0.036615141,0.004226576,9.792282104
1784239838.589621,-0.001085919,0.003094399,1.942957759,-0.000276531,-0.000561621,0.000548616,-0.015559622,0.001665682,9.799459457
1784239838.591618,-0.001092761,0.003094859,1.942961693,-0.000987240,-0.000187280,0.001056186,-0.022558132,-0.021437127,9.784510612
1784239838.593618,-0.001099572,0.003099312,1.942963004,-0.001736938,0.000305797,0.001119924,-0.072252914,-0.011410863,9.787217140
1784239838.595620,-0.001095805,0.003102722,1.942964911,-0.001488461,0.000549211,0.001040612,-0.062413566,-0.013411856,9.798871040
1784239838.597639,-0.001089392,0.003098554,1.942964554,-0.000409458,0.000141545,0.000872690,-0.019113731,0.006855096,9.832217216
1784239838.599629,-0.001088527,0.003098696,1.942962646,0.000196203,-0.000169941,0.000497268,-0.028650932,-0.004464480,9.802993774
1784239838.601625,-0.001089605,0.003105410,1.942963600,0.000066898,0.000364820,0.000299322,-0.043056078,-0.008296256,9.800715446
1784239838.603627,-0.001090078,0.003104468,1.942969322,-0.000119692,0.000680288,0.000660011,-0.037910715,0.010721587,9.826395988
1784239838.605646,-0.001087800,0.003101592,1.942965508,-0.000027454,0.000207556,0.000612337,-0.036847081,0.022153951,9.791950226
1784239838.607646,-0.001087416,0.003106807,1.942957997,0.000100634,0.000282035,-0.000322554,-0.041097656,0.043935776,9.823916435
1784239838.609633,-0.001086814,0.003107496,1.942953706,0.000142719,0.000607055,-0.001038288,-0.026531707,0.021173486,9.785228729
1784239838.611636,-0.001080065,0.003101252,1.942950368,0.000416978,0.000029356,-0.001256963,-0.023816599,-0.012622821,9.807429314
1784239838.613636,-0.001072808,0.003100760,1.942955732,0.001066414,-0.000472321,-0.000766136,-0.049300808,-0.043486446,9.782999039
1784239838.615632,-0.001072342,0.003104337,1.942953825,0.001436914,-0.000279148,-0.000333417,-0.031061960,-0.055505879,9.802216530
1784239838.617649,-0.001077038,0.003107742,1.942948103,0.000897758,0.000126828,-0.000758118,-0.039531991,-0.048070647,9.843053818
1784239838.619637,-0.001075615,0.003110270,1.942945480,0.000433581,0.000495677,-0.001121369,-0.052207917,0.013415636,9.788291931
1784239838.621641,-0.001070259,0.003110534,1.942943692,0.000742519,0.000467755,-0.001115842,-0.046118274,-0.001555674,9.803445816
1784239838.623649,-0.001076620,0.003107283,1.942946672,0.000438032,0.000054707,-0.000717704,-0.051566225,-0.006446054,9.807891846
1784239838.625642,-0.001083054,0.003107311,1.942951083,-0.000562387,-0.000258343,-0.000013779,-0.012900961,-0.002686264,9.776570320
1784239838.627644,-0.001083774,0.003107951,1.942959189,-0.000909417,-0.000222627,0.000844084,-0.021370541,0.003942069,9.804848671
1784239838.629659,-0.001083995,0.003105677,1.942965865,-0.000729448,-0.000274158,0.001613699,-0.014239592,-0.003015227,9.762220383
1784239838.631647,-0.001079134,0.003101903,1.942964077,-0.000292116,-0.000562894,0.001505525,-0.018569928,-0.025126614,9.792111397
1784239838.633651,-0.001078264,0.003102009,1.942969680,0.000100722,-0.000611599,0.001355532,-0.016928585,-0.037708420,9.794274330
1784239838.635653,-0.001077848,0.003091197,1.942976475,0.000253301,-0.001171159,0.001820790,-0.027718900,-0.004202532,9.764441490
1784239838.637657,-0.001082377,0.003084735,1.942981243,-0.000001921,-0.002024601,0.002120556,-0.052398775,-0.000248951,9.820036888
1784239838.639655,-0.001085267,0.003082253,1.942982316,-0.000506276,-0.002082480,0.001944428,-0.028521992,0.004253459,9.773909569
1784239838.641665,-0.001084187,0.003077717,1.942977071,-0.000491404,-0.002034564,0.001131261,-0.011694387,0.022032304,9.763728142
1784239838.643656,-0.001081730,0.003077029,1.942978859,-0.000117748,-0.001877907,0.000594288,-0.016553409,-0.005973137,9.804342270
1784239838.645664,-0.001084058,0.003078509,1.942979932,-0.000075964,-0.001241981,0.000638893,-0.013330499,-0.000097674,9.791381836
1784239838.647673,-0.001089868,0.003077132,1.942978382,-0.000606004,-0.000825230,0.000435564,-0.014613822,0.006899350,9.817875862
1784239838.649667,-0.001089355,0.003069608,1.942972660,-0.000799540,-0.001204801,-0.000185406,-0.040076915,-0.023392307,9.775961876
1784239838.651661,-0.001095344,0.003063067,1.942972541,-0.000908724,-0.001860303,-0.000531527,-0.021882027,-0.037785087,9.813996315
1784239838.653666,-0.001103308,0.003059299,1.942976475,-0.001565636,-0.002083600,-0.000133307,-0.028848018,-0.021420235,9.793472290
1784239838.655671,-0.001103022,0.003053762,1.942979693,-0.001627955,-0.002162201,0.000392594,-0.036016598,0.016751012,9.794157028
1784239838.657671,-0.001099294,0.003047491,1.942981482,-0.000879271,-0.002389130,0.000631610,-0.043325704,0.006902009,9.806193352
1784239838.659669,-0.001102922,0.003050580,1.942983508,-0.000634560,-0.001956677,0.000718324,-0.022706809,0.004442260,9.799919128
1784239838.661675,-0.001104762,0.003052667,1.942985058,-0.000920071,-0.001060553,0.000765943,-0.013360135,-0.002763185,9.788225174
1784239838.663673,-0.001100441,0.003051674,1.942990899,-0.000589215,-0.000685084,0.001052670,-0.016546281,-0.007132599,9.778330803
1784239838.665677,-0.001095947,0.003051069,1.942992091,0.000156515,-0.000560884,0.001243465,-0.013396321,-0.003859423,9.816462517
1784239838.667734,-0.001093495,0.003050130,1.942991018,0.000574345,-0.000466176,0.000912934,-0.013677798,0.045593135,9.793467522
1784239838.669746,-0.001095851,0.003047912,1.942991257,0.000425167,-0.000553843,0.000598346,-0.010526374,0.007235525,9.763185501
1784239838.671728,-0.001096894,0.003044941,1.942988515,-0.000044486,-0.000577265,0.000278564,-0.066161998,-0.027182706,9.788913727
1784239838.673695,-0.001094662,0.003047953,1.942993283,-0.000076114,-0.000239573,0.000354957,-0.029234104,-0.014841329,9.814135551
1784239838.675688,-0.001089201,0.003045238,1.942997694,0.000458616,-0.000146453,0.000879990,-0.044233520,0.006020767,9.805736542
1784239838.677692,-0.001087550,0.003043749,1.943002462,0.000808688,-0.000384178,0.001260706,-0.026706459,0.007636085,9.799039841
1784239838.679703,-0.001090396,0.003045234,1.943005204,0.000506438,-0.000280697,0.001430398,-0.011537422,-0.001350091,9.775235176
1784239838.681693,-0.001095021,0.003040101,1.943006992,-0.000130655,-0.000343594,0.001354015,-0.025041463,-0.003137978,9.798970222
1784239838.683704,-0.001097394,0.003036578,1.943002820,-0.000561187,-0.000728883,0.000827185,-0.036587063,0.006069297,9.785121918
1784239838.685698,-0.001092265,0.003032351,1.943000078,-0.000314212,-0.001067723,0.000137081,0.007337537,0.000667326,9.772576332
1784239838.687695,-0.001088246,0.003028473,1.942999959,0.000298766,-0.001338893,-0.000094322,0.000449981,-0.009807090,9.808817863
1784239838.689695,-0.001092743,0.003025212,1.943000913,0.000185026,-0.001459950,-0.000010636,-0.039693568,0.009623271,9.795004845
1784239838.691699,-0.001096964,0.003019074,1.943002939,-0.000550398,-0.001667982,0.000193038,-0.040706977,0.000208514,9.797632217
1784239838.693699,-0.001099078,0.003014459,1.943004370,-0.000924495,-0.001911491,0.000377261,-0.032641966,-0.003634099,9.756369591
1784239838.695700,-0.001097274,0.003015226,1.943005085,-0.000757831,-0.001625089,0.000424488,-0.023621714,-0.033679564,9.806847572
1784239838.697704,-0.001095076,0.003015056,1.943010092,-0.000344399,-0.001115049,0.000695709,-0.029014297,0.002699106,9.804384232
1784239838.699705,-0.001099544,0.003015013,1.943003774,-0.000404650,-0.000826712,0.000422906,-0.011499612,0.002595710,9.787364960
1784239838.701703,-0.001105056,0.003014945,1.943002343,-0.000898510,-0.000519158,-0.000209243,0.001738492,0.021637259,9.795121193
1784239838.703708,-0.001101498,0.003017422,1.943005323,-0.000715429,-0.000124732,-0.000054184,-0.011012360,0.004515349,9.768548012
1784239838.705710,-0.001094574,0.003015939,1.943001509,0.000103790,0.000012209,-0.000103440,-0.017086694,-0.012308791,9.814163208
1784239838.707709,-0.001094540,0.003012603,1.943007827,0.000460699,-0.000282865,0.000092771,-0.016692722,-0.019230725,9.778701782
1784239838.709708,-0.001097695,0.003010109,1.943011761,0.000121658,-0.000602570,0.000757675,-0.007379701,0.008456492,9.774852753
1784239838.711713,-0.001093282,0.003008607,1.943010330,0.000041178,-0.000600069,0.000720124,-0.028985310,-0.031825084,9.807749748
1784239838.713715,-0.001093753,0.003008516,1.943004966,0.000166617,-0.000434365,0.000062161,-0.041379455,-0.018168041,9.799757004
1784239838.715716,-0.001096564,0.003005820,1.943005800,-0.000124593,-0.000544511,-0.000256586,-0.040105440,0.013161839,9.802200317
1784239838.717720,-0.001097834,0.003005446,1.943005800,-0.000392038,-0.000644368,-0.000127950,-0.034357872,0.006332711,9.807094574
1784239838.719719,-0.001101245,0.003004026,1.943007469,-0.000603713,-0.000591268,0.000020589,-0.039923105,-0.010020241,9.785462379
1784239838.721726,-0.001098632,0.003006300,1.943005800,-0.000503570,-0.000464667,0.000021381,-0.028258746,-0.011805761,9.763494492
1784239838.723723,-0.001100949,0.003007513,1.943008900,-0.000356568,-0.000193799,0.000113330,-0.019331207,-0.053119838,9.760547638
1784239838.725730,-0.001107172,0.003003518,1.943016768,-0.000670376,-0.000319907,0.000827709,-0.034258109,-0.023174886,9.797938347
1784239838.727728,-0.001107405,0.003000763,1.943013310,-0.000756231,-0.000680646,0.000913611,-0.035077143,-0.017276298,9.789008141
1784239838.729723,-0.001103046,0.003003791,1.943010330,-0.000269546,-0.000476845,0.000239539,-0.045544371,0.005911199,9.760454178
1784239838.731739,-0.001099680,0.003002724,1.943013310,0.000301883,-0.000243377,0.000182545,-0.051479504,0.001127950,9.813768387
1784239838.733736,-0.001094519,0.003006002,1.943011761,0.000772379,-0.000056437,0.000231465,-0.037079372,0.004514941,9.815597534
1784239838.735732,-0.001087824,0.003006917,1.943007231,0.001316627,0.000206779,-0.000255372,-0.031304292,0.036708694,9.814465523
1784239838.737733,-0.001086166,0.003006524,1.943004727,0.001475477,0.000149435,-0.000665948,0.016070096,0.019620104,9.800950050
1784239838.739772,-0.001083466,0.003003716,1.943005562,0.001370994,-0.000108281,-0.000587513,-0.002427748,-0.025015991,9.810510635
1784239838.741750,-0.001073812,0.002995809,1.943000793,0.001851635,-0.000679016,-0.000694090,-0.039785981,-0.034775138,9.800995827
1784239838.743746,-0.001075902,0.002993875,1.942996383,0.001877802,-0.001035085,-0.001132949,-0.026669249,-0.029254725,9.757106781
1784239838.745743,-0.001077731,0.002992213,1.942993045,0.001177178,-0.000945287,-0.001361591,-0.033761933,-0.019158520,9.799309731
1784239838.747751,-0.001075810,0.002990980,1.942998648,0.000936905,-0.000832992,-0.000841496,-0.017654156,0.015028331,9.814338684
1784239838.749764,-0.001072813,0.002991386,1.942992806,0.001016345,-0.000662938,-0.000624182,-0.012229914,0.016084196,9.782070160
1784239838.751754,-0.001066967,0.002989682,1.942990661,0.001256508,-0.000519702,-0.001007028,0.016933760,-0.022705439,9.765710831
1784239838.753751,-0.001063723,0.002987926,1.942992449,0.001446725,-0.000562723,-0.000763222,0.020144025,-0.014498333,9.802976608
1784239838.755764,-0.001063177,0.002982790,1.942987680,0.001294858,-0.000733931,-0.000749319,-0.019813728,-0.015791213,9.804723740
1784239838.757782,-0.001065757,0.002984565,1.942985296,0.000789708,-0.000618641,-0.001027309,-0.037426885,-0.028217643,9.756655693
1784239838.759760,-0.001073642,0.002988233,1.942986846,-0.000134873,-0.000081217,-0.000812988,-0.039106958,-0.052720975,9.803123474
1784239838.761756,-0.001076134,0.002984627,1.942989469,-0.000668901,-0.000089299,-0.000315878,-0.026061315,-0.012603615,9.808773041
1784239838.763770,-0.001069010,0.002972519,1.942984700,-0.000037916,-0.001165592,-0.000373273,-0.017292412,0.005015185,9.772580147
1784239838.765767,-0.001066127,0.002966052,1.942985058,0.000619995,-0.002040909,-0.000559693,-0.018478664,-0.016300937,9.810998917
1784239838.767767,-0.001068710,0.002967553,1.942984104,0.000439676,-0.001755047,-0.000438675,-0.031570323,0.011508771,9.767228127
1784239838.769763,-0.001075289,0.002968821,1.942985296,-0.000301638,-0.001090574,-0.000294786,-0.033787578,0.016607804,9.810298920
1784239838.771764,-0.001073842,0.002963164,1.942991853,-0.000649673,-0.001133659,0.000312854,-0.011916088,0.005692667,9.793661118
1784239838.773767,-0.001066879,0.002960591,1.942989707,0.000016668,-0.001425514,0.000520850,0.012493523,-0.017415497,9.785914421
1784239838.775766,-0.001066192,0.002960323,1.942987680,0.000581644,-0.001095468,0.000097865,-0.038774818,-0.024972828,9.806888580
1784239838.777764,-0.001068230,0.002962583,1.942993045,0.000380820,-0.000527545,0.000296027,-0.039328180,0.002475586,9.791372299
1784239838.779769,-0.001071445,0.002954520,1.942997217,-0.000081039,-0.000778933,0.000851371,-0.016261337,-0.019373201,9.797979355
1784239838.781775,-0.001069302,0.002950749,1.942998528,-0.000077044,-0.001306062,0.000983780,-0.003658321,-0.017602431,9.778276443
1784239838.783792,-0.001070323,0.002949077,1.942992568,0.000076829,-0.001255511,0.000396931,-0.036467087,0.016337423,9.790118217
1784239838.785774,-0.001069895,0.002949683,1.942986965,-0.000152088,-0.001086136,-0.000499733,-0.025413975,0.039922301,9.792971611
1784239838.787776,-0.001072987,0.002953014,1.942992210,-0.000461605,-0.000623871,-0.000393106,-0.001264905,0.031678908,9.774560928
1784239838.789779,-0.001073728,0.002952089,1.942995429,-0.000598122,-0.000291730,0.000280396,0.024150174,-0.018451357,9.784573555
1784239838.791778,-0.001077034,0.002947900,1.942989469,-0.000662515,-0.000315488,0.000011435,0.012806785,0.009373139,9.798640251
1784239838.793776,-0.001079320,0.002952037,1.942991018,-0.000813936,0.000010981,-0.000291063,0.013744053,-0.025076699,9.789902687
1784239838.795777,-0.001080448,0.002950983,1.942997098,-0.000725183,0.000439672,0.000302282,-0.035537116,-0.017359579,9.801560402
1784239838.797782,-0.001077183,0.002951073,1.943000793,-0.000284133,0.000477036,0.000878009,-0.033004239,-0.029593950,9.816279411
1784239838.799787,-0.001075281,0.002948551,1.942999005,0.000143392,0.000182334,0.000772292,-0.025833350,-0.031372853,9.801480293
1784239838.801786,-0.001075544,0.002946201,1.942995667,0.000362842,-0.000280471,0.000224403,0.003686635,-0.004633598,9.768503189
1784239838.803788,-0.001069351,0.002945988,1.943000197,0.000812690,-0.000461411,0.000259846,-0.001348454,-0.009812708,9.812850952
1784239838.805790,-0.001071738,0.002946167,1.943009496,0.000817220,-0.000198959,0.001135784,0.000410801,0.023420911,9.798718452
1784239838.807790,-0.001075616,0.002950859,1.943009734,0.000137753,0.000325462,0.001467787,-0.020778103,0.014392055,9.783395767
1784239838.809789,-0.001077898,0.002955536,1.943009496,-0.000317756,0.000873050,0.001060767,-0.034779660,-0.030228410,9.782649040
1784239838.811790,-0.001084816,0.002956247,1.943008900,-0.000779177,0.000985593,0.000726352,-0.022643402,-0.026568200,9.813171387
1784239838.813798,-0.001091633,0.002960172,1.943009615,-0.001423425,0.001016461,0.000554168,-0.006357138,-0.015188598,9.821777344
1784239838.815795,-0.001089995,0.002962477,1.943007946,-0.001419549,0.001304387,0.000340705,-0.041151285,0.038649280,9.811328888
1784239838.817797,-0.001092099,0.002958929,1.943008065,-0.001096669,0.001006929,0.000146778,-0.033704516,-0.016273620,9.771532059
1784239838.819804,-0.001096305,0.002958348,1.943002820,-0.001226180,0.000453620,-0.000231623,-0.011663087,-0.010852660,9.788622856
1784239838.821804,-0.001095957,0.002961140,1.943002462,-0.001133605,0.000606720,-0.000539993,-0.037111145,0.000616840,9.796742439
1784239838.823804,-0.001095882,0.002961506,1.943010449,-0.000778286,0.000781611,0.000138764,-0.066642866,-0.028241396,9.812669754
1784239838.825802,-0.001098833,0.002968692,1.943014860,-0.000701557,0.000855103,0.000939522,-0.006755908,-0.014788573,9.766186714
1784239838.827806,-0.001092619,0.002970613,1.943017244,-0.000227712,0.001014567,0.001126980,0.005633995,0.009515999,9.791461945
1784239838.829803,-0.001091505,0.002968876,1.943019509,0.000330643,0.000751228,0.001135403,-0.046474487,0.044875257,9.827503204
1784239838.831810,-0.001088860,0.002971681,1.943022132,0.000266710,0.000510356,0.001158570,-0.044704162,0.002611348,9.781953812
1784239838.833807,-0.001088469,0.002976842,1.943025231,0.000170835,0.000803063,0.001232133,-0.035879422,-0.008813945,9.797579765
1784239838.835809,-0.001086085,0.002983470,1.943028927,0.000303395,0.001355656,0.001360142,-0.007677823,-0.015781105,9.781422615
1784239838.837812,-0.001086252,0.002986533,1.943028808,0.000362809,0.001616060,0.001217870,-0.003145048,-0.010209060,9.808810234
1784239838.839841,-0.001086232,0.002982156,1.943030953,0.000253878,0.001087989,0.001019727,-0.021767342,0.008004908,9.801287651
1784239838.841820,-0.001077517,0.002984283,1.943029523,0.000698607,0.000662087,0.000803778,-0.014334472,-0.009032675,9.789529800
1784239838.843823,-0.001073940,0.002988911,1.943026543,0.001265115,0.000963394,0.000289218,-0.004351728,0.001445637,9.810229301
1784239838.845824,-0.001077013,0.002990579,1.943023205,0.000901288,0.001246037,-0.000212879,-0.013193142,0.012333948,9.807152748
1784239838.847823,-0.001080926,0.002992088,1.943023324,0.000127163,0.001240110,-0.000364018,-0.042615369,-0.009175674,9.797572136
1784239838.849820,-0.001082437,0.002993818,1.943027496,-0.000276450,0.001122969,0.000030955,-0.041805774,-0.015554016,9.810979843
1784239838.851820,-0.001080459,0.002998452,1.943028808,-0.000172322,0.001086897,0.000391804,0.017975073,-0.046607707,9.785732269
1784239838.853836,-0.001080161,0.002995424,1.943026066,0.000027710,0.000738172,0.000183732,-0.002596983,-0.039725572,9.800104141
1784239838.855834,-0.001085492,0.002991070,1.943022966,-0.000154812,0.000165453,-0.000258973,-0.050036296,-0.030849354,9.771422386
1784239838.857836,-0.001089692,0.002990731,1.943022370,-0.000593526,-0.000069364,-0.000436533,-0.027543223,0.010557928,9.767673492
1784239838.859832,-0.001088814,0.002991917,1.943023920,-0.000658022,0.000006930,-0.000257220,-0.026732067,0.005002372,9.791400909
1784239838.861834,-0.001085267,0.002994240,1.943021536,-0.000250380,0.000274372,-0.000251052,-0.036725391,-0.003938473,9.806577682
1784239838.863838,-0.001085194,0.002995201,1.943016887,-0.000006851,0.000454324,-0.000661918,-0.001899458,0.018464852,9.806754112
1784239838.865832,-0.001081859,0.002995509,1.943014503,0.000097808,0.000550091,-0.000943491,-0.022004178,0.023867358,9.776282310
1784239838.867839,-0.001079381,0.002996954,1.943014026,0.000336504,0.000652442,-0.000877396,-0.038673256,-0.016471105,9.808288574
1784239838.869834,-0.001078202,0.003001321,1.943014979,0.000493307,0.000869743,-0.000593806,-0.031970914,-0.016779918,9.839676857
1784239838.871842,-0.001075044,0.003005867,1.943012595,0.000628065,0.001226589,-0.000512436,-0.032987606,-0.028246887,9.815838814
1784239838.873839,-0.001070457,0.003005741,1.943003535,0.000959645,0.001182361,-0.001158505,-0.019464215,-0.023469536,9.812745094
1784239838.875840,-0.001075689,0.003005767,1.942992449,0.000729405,0.000870783,-0.002209122,-0.029659150,0.024562124,9.818423271
1784239838.877843,-0.001073766,0.003005092,1.942992926,0.000378931,0.000605789,-0.002325123,-0.040561508,0.011893654,9.792328835
1784239838.879843,-0.001071583,0.003003313,1.943001509,0.000552985,0.000274041,-0.001091937,-0.080055416,0.013146065,9.813370705
1784239838.881849,-0.001068447,0.003008451,1.943006754,0.000608785,0.000229022,0.000150393,-0.034303568,-0.027181096,9.794324875
1784239838.883873,-0.001066473,0.003012556,1.943005562,0.000637207,0.000596324,0.000407762,0.002596772,0.019290561,9.808557510
1784239838.885868,-0.001059655,0.003013577,1.943004966,0.000948960,0.000935303,0.000180922,0.002172057,-0.015672661,9.811470985
1784239838.887872,-0.001060592,0.003019581,1.943001509,0.000978953,0.001311361,-0.000146389,-0.016391261,0.006249001,9.786486626
1784239838.889865,-0.001066908,0.003020300,1.943006039,0.000220616,0.001411632,-0.000044055,-0.033690877,-0.050108563,9.804042816
1784239838.891865,-0.001074293,0.003019981,1.943008780,-0.000662974,0.001053612,0.000460810,-0.018840779,-0.047527853,9.792416573
1784239838.893868,-0.001074462,0.003023341,1.943002105,-0.000887062,0.000972915,0.000072093,-0.000480227,-0.013296611,9.797136307
1784239838.895878,-0.001063092,0.003026448,1.942995429,0.000058188,0.001284142,-0.000857125,-0.005647089,0.004700361,9.795902252
1784239838.897882,-0.001058002,0.003023092,1.942994714,0.001102508,0.001054506,-0.001120837,-0.005231819,0.001593862,9.790950775
1784239838.899912,-0.001057133,0.003023500,1.942992806,0.001208139,0.000568304,-0.000990834,-0.012695020,0.014339439,9.776230812
1784239838.901884,-0.001056812,0.003024576,1.942986369,0.000837961,0.000581350,-0.001291931,-0.017142622,0.018355444,9.786564827
1784239838.903890,-0.001057278,0.003024732,1.942984700,0.000477656,0.000573722,-0.001493466,-0.050959919,-0.030234467,9.812670708
1784239838.905891,-0.001055861,0.003028209,1.942992091,0.000556425,0.000558731,-0.000701098,-0.044320483,-0.038739756,9.799621582
1784239838.907889,-0.001051478,0.003033345,1.942991614,0.000942722,0.000885695,-0.000031202,-0.031057227,-0.016257610,9.827575684
1784239838.909883,-0.001051364,0.003037724,1.942992687,0.000991901,0.001291037,0.000024129,-0.001085319,0.010501342,9.791011810
1784239838.911954,-0.001049632,0.003037171,1.942995906,0.000699548,0.001390321,0.000315549,-0.018801238,-0.007599509,9.785050392
1784239838.913911,-0.001050124,0.003035225,1.942990661,0.000446778,0.001033753,0.000092150,-0.015446849,-0.026523463,9.793899536
1784239838.915897,-0.001050148,0.003036716,1.942983627,0.000282215,0.000760103,-0.000774662,-0.028800268,-0.018611640,9.776452065
1784239838.917894,-0.001047605,0.003043985,1.942984939,0.000366942,0.001185750,-0.000951022,-0.005547150,-0.059153728,9.828221321
1784239838.919895,-0.001045827,0.003054161,1.942989707,0.000559352,0.002047527,-0.000281938,-0.063037768,-0.027759943,9.801466942
1784239838.921894,-0.001048907,0.003065721,1.942993045,0.000447427,0.002803151,0.000350209,-0.046843108,0.011570699,9.786043167
1784239838.923902,-0.001049954,0.003061081,1.942997575,0.000174224,0.002347837,0.000786762,-0.027544996,0.012975420,9.805797577
1784239838.925904,-0.001051806,0.003057299,1.942996979,-0.000124099,0.001136916,0.000828952,-0.075685777,0.003246152,9.811515808
1784239838.927913,-0.001051767,0.003054505,1.943000674,-0.000267655,0.000380193,0.000824400,-0.073222473,-0.016832130,9.795251846
1784239838.929922,-0.001045004,0.003057449,1.943009138,0.000264136,0.000286283,0.001438404,-0.050999623,0.001773659,9.785079002
1784239838.931909,-0.001041045,0.003063121,1.943009615,0.000856045,0.000685085,0.001653954,-0.004323945,0.001665030,9.779295921
1784239838.933906,-0.001039374,0.003063781,1.943008780,0.000943503,0.000821195,0.001177761,0.019607624,-0.022479568,9.792165756
1784239838.935909,-0.001030986,0.003063154,1.943011761,0.001438973,0.000752704,0.000993077,-0.024965592,-0.036886703,9.756163597
1784239838.937908,-0.001026143,0.003061375,1.943014503,0.002014507,0.000536952,0.001110679,-0.043736748,-0.065543070,9.787344933
1784239838.939911,-0.001017914,0.003052682,1.943014026,0.002354420,-0.000319894,0.000957653,-0.041461978,-0.062893584,9.788709641
1784239838.941916,-0.001021268,0.003051048,1.943018079,0.002347738,-0.001031904,0.000935540,-0.020689493,-0.013987868,9.804734230
1784239838.943912,-0.001027068,0.003050161,1.943024278,0.001389190,-0.001021214,0.001390213,-0.048392266,0.034201238,9.819813728
1784239838.945916,-0.001026771,0.003052877,1.943032980,0.000476134,-0.000743004,0.002029484,-0.062798396,0.029956477,9.812598228
1784239838.947922,-0.001025306,0.003059099,1.943033695,0.000305300,-0.000057357,0.002119574,-0.034296874,0.047646269,9.793908119
1784239838.949923,-0.001021924,0.003070075,1.943034053,0.000551191,0.001125537,0.001629993,-0.013843131,0.029698648,9.760637283
1784239838.951926,-0.001020723,0.003066764,1.943039179,0.000524321,0.001393739,0.001558534,-0.009653653,0.005813370,9.772592545
1784239838.953923,-0.001027876,0.003064620,1.943034768,-0.000209313,0.000698853,0.001175450,-0.034955565,-0.044585422,9.785695076
1784239838.955929,-0.001030791,0.003069038,1.943038225,-0.000683996,0.000678634,0.000790869,-0.028865628,-0.023180274,9.788976669
1784239838.957927,-0.001027457,0.003075211,1.943044901,-0.000320248,0.001227690,0.001255098,-0.030685056,0.012211953,9.792788506
1784239838.959929,-0.001031085,0.003078301,1.943046451,-0.000254999,0.001522606,0.001466018,-0.050923675,0.007641669,9.778841019
1784239838.961932,-0.001029977,0.003073521,1.943050742,-0.000433426,0.000876810,0.001470104,-0.037133459,0.000035330,9.815568924
1784239838.963933,-0.001025132,0.003071734,1.943054795,0.000011186,0.000075067,0.001652665,-0.048378181,-0.003277440,9.797602654
1784239838.966002,-0.001024190,0.003083291,1.943057299,0.000384064,0.000643311,0.001647742,-0.043202695,-0.020801013,9.795253754
1784239838.967943,-0.001023247,0.003090302,1.943060040,0.000391119,0.001654542,0.001574856,-0.045534343,0.009637599,9.803517342
1784239838.969939,-0.001023716,0.003089904,1.943063259,0.000315819,0.001653779,0.001571678,-0.020617848,0.027814981,9.785724640
1784239838.971956,-0.001015950,0.003092050,1.943056703,0.000567538,0.001437912,0.000918786,-0.029175762,-0.010733367,9.803401947
1784239838.973940,-0.001011591,0.003095365,1.943049550,0.001080762,0.001533403,-0.000258928,-0.027041987,-0.020544125,9.793029785
1784239838.975939,-0.001009526,0.003100169,1.943050146,0.001255181,0.001656128,-0.000629502,-0.015039917,-0.028480036,9.816303253
1784239838.977943,-0.001007546,0.003103941,1.943062305,0.001216749,0.001775235,0.000418224,-0.030230202,-0.024119366,9.797487259
1784239838.979945,-0.001001627,0.003103225,1.943062305,0.001420014,0.001499858,0.001125675,-0.049937434,-0.021153204,9.793901443
1784239838.981945,-0.000999786,0.003106306,1.943057418,0.001605468,0.001161936,0.000485024,-0.044452772,-0.013946702,9.778709412
1784239838.983947,-0.000997036,0.003107993,1.943060875,0.001524808,0.001078644,0.000253555,-0.042862505,0.007010732,9.790053368
1784239838.985946,-0.000994532,0.003110090,1.943063736,0.001320155,0.001016331,0.000608194,-0.005745833,-0.003779102,9.791364670
1784239838.987955,-0.000995986,0.003117414,1.943062544,0.000886631,0.001353868,0.000561345,-0.015976904,0.004756280,9.806652069
1784239838.989950,-0.000986036,0.003119827,1.943064332,0.001222426,0.001647175,0.000456309,-0.054060508,-0.027849486,9.797888756
1784239838.991950,-0.000985852,0.003119808,1.943067789,0.001784720,0.001207570,0.000683537,-0.060696900,-0.019725388,9.801520348
1784239838.993952,-0.000990327,0.003118675,1.943067312,0.001215679,0.000646771,0.000701760,-0.033031281,0.002919372,9.780620575
1784239838.995956,-0.000987731,0.003109344,1.943065286,0.000561519,-0.000260945,0.000350838,-0.016569296,-0.009340609,9.773834229
1784239838.997958,-0.000988818,0.003101279,1.943065047,0.000314892,-0.001392775,0.000110990,-0.024497481,0.002876905,9.771215439
1784239838.999959,-0.000989798,0.003103016,1.943066359,0.000088850,-0.001444164,0.000157119,-0.050297167,-0.013960996,9.791256905
1784239839.001960,-0.000984204,0.003106739,1.943065405,0.000276007,-0.000729095,0.000141319,-0.045149744,0.004262680,9.802586555
1784239839.003964,-0.000972380,0.003110485,1.943061829,0.001282498,-0.000071572,-0.000192980,-0.015813148,0.016991138,9.787005424
1784239839.005971,-0.000970673,0.003111702,1.943058610,0.001707980,0.000339745,-0.000599845,-0.001270955,-0.005958753,9.774766922
1784239839.007971,-0.000974938,0.003106107,1.943048835,0.000927161,0.000005720,-0.001316697,-0.035001066,-0.010191591,9.800709724
1784239839.009969,-0.000976534,0.003101020,1.943037748,0.000282021,-0.000719558,-0.002365226,-0.087105423,-0.014010652,9.801532745
1784239839.011967,-0.000976521,0.003109597,1.943031549,0.000090077,-0.000568380,-0.002890166,-0.048483197,-0.011401152,9.806069374
1784239839.013968,-0.000972192,0.003109690,1.943032265,0.000349981,-0.000107444,-0.002475711,0.001976289,-0.034239013,9.776381493
1784239839.015972,-0.000970705,0.003104547,1.943024755,0.000823301,-0.000278255,-0.002248363,-0.026489418,0.024344191,9.780317307
1784239839.017971,-0.000970357,0.003106296,1.943021059,0.000898827,-0.000289910,-0.002389422,-0.037343431,0.017730962,9.784747124
1784239839.019970,-0.000972454,0.003103556,1.943018675,0.000537392,-0.000278014,-0.002149747,-0.021919541,-0.005354435,9.789994240
1784239839.021977,-0.000971965,0.003096626,1.943015814,0.000267874,-0.000827700,-0.001906059,-0.022079621,-0.018370746,9.793498039
1784239839.023975,-0.000970560,0.003097287,1.943015218,0.000308838,-0.000997373,-0.001618561,-0.010938085,-0.026409253,9.769694328
1784239839.025979,-0.000967147,0.003103191,1.943014860,0.000600756,-0.000260838,-0.001241447,-0.029822927,-0.028099531,9.789390564
1784239839.027985,-0.000967263,0.003111312,1.943010449,0.000711006,0.000782351,-0.001216789,-0.043373354,0.002473273,9.798990250
1784239839.029988,-0.000965815,0.003115661,1.943014503,0.000608470,0.001416510,-0.000910988,-0.063556820,0.039575480,9.784413338
1784239839.031990,-0.000964019,0.003119446,1.943016291,0.000509628,0.001408226,-0.000275682,-0.013212752,0.048147969,9.811417580
1784239839.033984,-0.000964244,0.003117497,1.943010926,0.000325945,0.000975177,-0.000429187,-0.011983760,-0.000515190,9.784655571
1784239839.035988,-0.000961968,0.003112722,1.943009019,0.000388105,0.000335156,-0.000795235,-0.050071321,0.003627137,9.774781227
1784239839.037995,-0.000961891,0.003113933,1.943007231,0.000453242,0.000083244,-0.000825999,-0.049850602,-0.015199340,9.775557518
1784239839.040040,-0.000964217,0.003114934,1.943000078,0.000179448,0.000211393,-0.001208219,-0.048743341,0.003466802,9.794956207
1784239839.042004,-0.000968415,0.003115301,1.942994237,-0.000364184,0.000184237,-0.001776711,-0.025447179,0.001664978,9.817382812
1784239839.044001,-0.000974196,0.003116858,1.942989111,-0.000995203,0.000202100,-0.002046600,0.003172166,-0.009199666,9.781476021
1784239839.046074,-0.000972994,0.003115723,1.942983150,-0.001056174,0.000300809,-0.002242100,-0.031439301,-0.012483750,9.801594734
1784239839.048008,-0.000966531,0.003116633,1.942975163,-0.000268854,0.000328968,-0.002582012,-0.034860797,-0.036947817,9.782606125
1784239839.050009,-0.000966938,0.003122650,1.942968130,0.000218376,0.000710839,-0.002899966,-0.032661870,-0.038949654,9.808148384
1784239839.052007,-0.000972878,0.003127686,1.942969084,-0.000148409,0.001263035,-0.002517450,-0.046967458,-0.034295604,9.809510231
1784239839.054005,-0.000966385,0.003130665,1.942971110,0.000050835,0.001458519,-0.001625441,-0.040317424,-0.003911559,9.809264183
1784239839.056006,-0.000960646,0.003133389,1.942969680,0.000773352,0.001451705,-0.001138001,-0.014778437,0.030221337,9.814888000
1784239839.058010,-0.000964795,0.003137541,1.942972183,0.000577218,0.001526307,-0.000747508,-0.017804505,0.038868226,9.801489830
1784239839.060010,-0.000965826,0.003134505,1.942973852,0.000067985,0.001187404,-0.000267241,-0.062801152,0.029124148,9.803626060
1784239839.062009,-0.000967746,0.003130663,1.942977667,-0.000292335,0.000273880,0.000169190,-0.072716333,0.026473835,9.816151619
1784239839.064018,-0.000971966,0.003128465,1.942977428,-0.000770931,-0.000334621,0.000378789,-0.026108803,-0.019462571,9.765241623
1784239839.066017,-0.000968666,0.003126766,1.942976475,-0.000571896,-0.000367730,0.000191651,-0.029936910,0.000080066,9.796298981
1784239839.068023,-0.000964116,0.003122614,1.942977071,0.000168222,-0.000524594,0.000109684,-0.044944912,-0.017931268,9.772854805
1784239839.070030,-0.000962726,0.003121374,1.942985296,0.000523908,-0.000748758,0.000680882,-0.044842027,-0.008203310,9.790850639
1784239839.072027,-0.000964567,0.003126443,1.942984104,0.000319501,-0.000330312,0.000973135,-0.010363648,-0.014885663,9.786356926
1784239839.074018,-0.000971117,0.003130938,1.942976594,-0.000365131,0.000364812,0.000122305,-0.005825299,-0.011295872,9.777418137
1784239839.076021,-0.000967065,0.003131457,1.942968130,-0.000430319,0.000725632,-0.001003088,-0.042739198,-0.019068975,9.802887917
1784239839.078021,-0.000962502,0.003128920,1.942963958,0.000275891,0.000510940,-0.001589715,-0.050787199,-0.019549808,9.758940697
1784239839.080024,-0.000963256,0.003127232,1.942960739,0.000461139,0.000085888,-0.001658050,-0.049458850,0.018693082,9.797294617
1784239839.082025,-0.000958418,0.003130113,1.942963004,0.000507381,0.000026532,-0.001273335,-0.025686033,0.017511528,9.794620514
1784239839.084056,-0.000958851,0.003132889,1.942967534,0.000561202,0.000285851,-0.000467854,-0.027418643,-0.013485466,9.809213638
1784239839.086039,-0.000958025,0.003132203,1.942968965,0.000454930,0.000386667,0.000064054,-0.027414577,-0.051853709,9.786104202
1784239839.088038,-0.000963885,0.003126321,1.942966700,0.000010578,-0.000127140,-0.000003607,-0.039897453,-0.045786567,9.774474144
1784239839.090041,-0.000971526,0.003127862,1.942968607,-0.000908663,-0.000387248,-0.000017104,-0.035737425,-0.034340765,9.795622826
1784239839.092035,-0.000973610,0.003128044,1.942972302,-0.001159359,-0.000205702,0.000372936,0.006881922,-0.036160871,9.785789490
1784239839.094036,-0.000973024,0.003126282,1.942980528,-0.000784868,-0.000297992,0.001071902,-0.014593517,0.007464963,9.801291466
1784239839.096037,-0.000966981,0.003129598,1.942989469,-0.000274187,-0.000028018,0.001944385,-0.013190364,0.050756250,9.822641373
1784239839.098042,-0.000967484,0.003125728,1.942997575,0.000023963,0.000025458,0.002579064,-0.066028148,0.058780093,9.797535896
1784239839.100047,-0.000969363,0.003118195,1.942998886,-0.000146210,-0.000756161,0.002512731,-0.062328972,0.030519521,9.795565605
1784239839.102041,-0.000963329,0.003115161,1.942999244,-0.000071605,-0.001468486,0.001940425,-0.029987663,-0.003157408,9.810623169
1784239839.104047,-0.000962520,0.003109708,1.943002820,0.000164706,-0.001846371,0.001687047,-0.036047731,0.012452644,9.768575668
1784239839.106049,-0.000964845,0.003106067,1.943008423,-0.000096312,-0.001975095,0.001845577,-0.015272730,-0.012585793,9.786816597
1784239839.108052,-0.000966404,0.003103571,1.943009496,-0.000446596,-0.001868045,0.001781411,-0.020474019,-0.035692524,9.769178391
1784239839.110050,-0.000965253,0.003105289,1.943010092,-0.000353392,-0.001413842,0.001412383,-0.002450593,-0.026817376,9.811842918
1784239839.112055,-0.000957792,0.003103009,1.943012714,0.000457207,-0.000929751,0.001271947,-0.010164106,-0.036310870,9.774562836
1784239839.114050,-0.000951901,0.003099630,1.943014860,0.001369228,-0.000923100,0.001258482,-0.019912818,-0.025083927,9.788523674
1784239839.116060,-0.000956436,0.003097749,1.943013072,0.001165775,-0.000979014,0.000940076,-0.022650074,0.008537497,9.790979385
1784239839.118057,-0.000961920,0.003101940,1.943010926,0.000246303,-0.000505681,0.000420929,-0.018084330,0.015180347,9.793716431
1784239839.120063,-0.000961853,0.003101515,1.943018079,-0.000189338,-0.000113043,0.000639085,-0.050894443,0.010303991,9.782445908
1784239839.122057,-0.000955945,0.003104644,1.943029165,0.000158117,-0.000019704,0.001700582,-0.034537520,-0.009269620,9.796234131
1784239839.124063,-0.000958821,0.003103489,1.943029761,0.000212819,-0.000000909,0.002040039,-0.033866309,-0.027682496,9.801047325
1784239839.126062,-0.000968289,0.003103142,1.943027973,-0.000596102,-0.000080637,0.001400922,-0.017254427,-0.025385514,9.826183319
1784239839.128063,-0.000971985,0.003100144,1.943027496,-0.001240822,-0.000263672,0.000862341,-0.010581659,0.005583215,9.806662560
1784239839.130063,-0.000978667,0.003091575,1.943034172,-0.001609645,-0.000977615,0.001044573,-0.037461273,0.008695428,9.795449257
1784239839.132069,-0.000979730,0.003088763,1.943037748,-0.001825325,-0.001553943,0.001447875,-0.038888238,0.000779736,9.777015686
1784239839.134066,-0.000980986,0.003089716,1.943037391,-0.001612713,-0.001326930,0.001276521,-0.059101634,0.001676827,9.813316345
1784239839.136068,-0.000978979,0.003091031,1.943031907,-0.001164937,-0.000962956,0.000539502,-0.050799601,0.019968359,9.809406281
1784239839.138071,-0.000975239,0.003086104,1.943030238,-0.000499300,-0.001096893,-0.000089352,-0.008014265,-0.007594410,9.764885902
1784239839.140070,-0.000973016,0.003088618,1.943028450,0.000041772,-0.000962631,-0.000293359,0.013700728,-0.027850317,9.801987648
1784239839.142075,-0.000973710,0.003087174,1.943025470,0.000224466,-0.000376013,-0.000529848,-0.011192172,-0.008656762,9.794017792
1784239839.144079,-0.000971553,0.003083582,1.943025231,0.000352812,-0.000363263,-0.000596135,-0.023726832,-0.005430009,9.803890228
1784239839.146076,-0.000970925,0.003084431,1.943021178,0.000409546,-0.000425132,-0.000717086,-0.063516907,0.007163908,9.805725098
1784239839.148081,-0.000973784,0.003085437,1.943014026,0.000111856,-0.000157573,-0.001291393,-0.043463234,-0.005936234,9.784588814
1784239839.150080,-0.000985178,0.003085195,1.943009615,-0.000883545,-0.000062149,-0.001729613,-0.036602367,0.005948466,9.802158356
1784239839.152082,-0.000992415,0.003084719,1.943006516,-0.001972134,-0.000098481,-0.001761189,-0.027821537,0.026092872,9.788845062
1784239839.154089,-0.000987050,0.003082452,1.942999840,-0.001627137,-0.000262217,-0.001945616,-0.024172194,-0.004182124,9.818244934
1784239839.156090,-0.000980129,0.003077831,1.943001032,-0.000384285,-0.000591951,-0.001790737,-0.030616295,-0.017540468,9.818152428
1784239839.158086,-0.000981696,0.003074541,1.943001509,0.000049104,-0.000902055,-0.001191649,-0.003709832,-0.059246309,9.774870872
1784239839.160089,-0.000984062,0.003071255,1.943002939,-0.000231643,-0.001103643,-0.000737981,-0.045270015,-0.042381901,9.809460640
1784239839.162087,-0.000985705,0.003067244,1.943004251,-0.000309935,-0.001270190,-0.000353242,-0.084943451,-0.020761997,9.801939011
1784239839.164097,-0.000990473,0.003064015,1.942999721,-0.000528686,-0.001387228,-0.000488388,-0.064709477,0.021766737,9.833614349
1784239839.166099,-0.000990071,0.003065781,1.942995667,-0.000865237,-0.001216376,-0.000946732,-0.044073097,0.019850323,9.813896179
1784239839.168098,-0.000989783,0.003061680,1.942995191,-0.000768183,-0.001151369,-0.000991589,-0.033998881,-0.001675930,9.798523903
1784239839.170104,-0.000990279,0.003058900,1.942997575,-0.000574111,-0.001305991,-0.000591952,-0.015753662,-0.015671259,9.780518532
1784239839.172098,-0.000993042,0.003058357,1.942996383,-0.000610081,-0.001110401,-0.000353541,-0.023684727,-0.040255900,9.786631584
1784239839.174099,-0.000997207,0.003061194,1.942997098,-0.000885041,-0.000586586,-0.000286443,-0.048204005,-0.024902968,9.814052582
1784239839.176106,-0.001001805,0.003064800,1.942993283,-0.001192024,-0.000076741,-0.000417536,-0.028799389,-0.016578518,9.805606842
1784239839.178106,-0.001002836,0.003062336,1.942986727,-0.001201432,-0.000064628,-0.001002096,-0.005292592,-0.040123146,9.797857285
1784239839.180111,-0.001000680,0.003058467,1.942988992,-0.000797900,-0.000476647,-0.001032494,-0.030144801,0.019818364,9.793285370
1784239839.182105,-0.000996128,0.003054527,1.942988396,-0.000234129,-0.000818251,-0.000639250,-0.030209936,0.014846273,9.799530983
1784239839.184123,-0.000995007,0.003053885,1.942983866,0.000107680,-0.000847606,-0.000802957,-0.025542580,0.029180776,9.791556358
1784239839.186119,-0.000994150,0.003055736,1.942979455,0.000035418,-0.000539881,-0.001191670,-0.049324621,-0.008110845,9.785915375
1784239839.188120,-0.000990607,0.003057464,1.942973256,0.000147506,-0.000154826,-0.001581997,-0.019878633,-0.021166747,9.804690361
1784239839.190124,-0.000991087,0.003056004,1.942976713,0.000315958,-0.000094454,-0.001343931,-0.012591170,-0.050699551,9.786126137
1784239839.192120,-0.000992188,0.003060031,1.942972898,0.000278101,0.000184250,-0.001006984,-0.055235151,-0.051100168,9.793255806
1784239839.194117,-0.000996149,0.003057024,1.942974925,0.000014540,0.000282386,-0.000852740,-0.059890747,-0.025725724,9.824795723
1784239839.196121,-0.001003553,0.003055534,1.942967892,-0.000708260,-0.000287041,-0.000961411,-0.062995188,0.011787215,9.784684181
1784239839.198125,-0.001013361,0.003054501,1.942959189,-0.001629456,-0.000567184,-0.001762526,-0.015970180,0.003593641,9.781090736
1784239839.200131,-0.001017287,0.003054393,1.942964792,-0.002118666,-0.000490442,-0.001495841,-0.024882015,0.010278600,9.802195549
1784239839.202132,-0.001009423,0.003052157,1.942973733,-0.001266796,-0.000472869,-0.000108438,-0.025026089,0.036599584,9.818505287
1784239839.204131,-0.001005097,0.003052277,1.942969203,-0.000083914,-0.000443924,0.000217285,-0.039598968,-0.017898880,9.821728706
1784239839.206135,-0.001009081,0.003044391,1.942964554,0.000015617,-0.000876955,-0.000469812,-0.020013865,-0.035202615,9.762455940
1784239839.208133,-0.001013589,0.003040064,1.942966580,-0.000512893,-0.001494686,-0.000521700,-0.002591346,-0.039681066,9.793828011
1784239839.210139,-0.001016470,0.003038654,1.942964911,-0.000875281,-0.001478289,-0.000340243,-0.015002927,-0.027377442,9.787169456
1784239839.212172,-0.001018139,0.003039661,1.942963004,-0.000881227,-0.001071485,-0.000476220,-0.018774424,-0.004956263,9.791345596
1784239839.214144,-0.001024509,0.003035916,1.942958951,-0.001121910,-0.000933470,-0.000757055,-0.075125396,-0.023741582,9.825242043
1784239839.216148,-0.001030707,0.003034970,1.942962885,-0.001628112,-0.001245774,-0.000567325,-0.068665080,-0.011876198,9.783182144
1784239839.218146,-0.001030655,0.003033502,1.942966700,-0.001562519,-0.001319294,0.000113993,-0.023532808,0.009070087,9.780670166
1784239839.220142,-0.001030655,0.003033502,1.942966700,-0.001401039,-0.000923213,0.000468597,0.002786302,-0.003024215,9.795860291
1784239839.222143,-0.001029219,0.003021200,1.942962646,-0.001119054,-0.000533778,0.000523103,-0.048049480,-0.024865670,9.808525085
1784239839.224143,-0.001029219,0.003021200,1.942962646,-0.000861502,-0.000379212,0.000887050,-0.035236247,-0.029879624,9.797445297
1784239839.226147,-0.001030118,0.003020474,1.942962646,-0.001003092,-0.000529412,0.001535300,0.026226355,-0.031553648,9.796149254
1784239839.228153,-0.001030118,0.003020474,1.942962646,-0.001105287,-0.000531400,0.002098402,0.025004493,0.015950041,9.796900749
1784239839.230149,-0.001030118,0.003020474,1.942962646,-0.001104556,-0.000351343,0.002130659,-0.008497019,-0.007452298,9.808823586
1784239839.232150,-0.001029996,0.003019351,1.942962646,-0.000946356,-0.000707298,0.002061435,-0.042820860,-0.027008271,9.785352707
1784239839.234154,-0.001029996,0.003019351,1.942962646,-0.000851769,-0.001060477,0.002678368,-0.049976714,0.013694945,9.808023453
1784239839.236157,-0.001027919,0.003020412,1.942962646,-0.000940288,-0.000987543,0.002389262,-0.074567355,0.020784624,9.800422668
1784239839.238160,-0.001027919,0.003020412,1.942962646,-0.000403014,-0.000700268,0.001097803,-0.015166041,-0.002422594,9.806607246
1784239839.240161,-0.001027919,0.003020412,1.942962646,0.000333385,-0.000333384,0.000266726,0.009296733,-0.022274204,9.781844139
1784239839.242157,-0.001028162,0.003018313,1.942962646,0.000142943,-0.000312810,0.000073958,0.007223412,-0.082302831,9.784148216
1784239839.244159,-0.001028162,0.003018313,1.942962646,0.000019491,-0.000497639,0.000203216,-0.003338226,-0.063102834,9.812506676
1784239839.246168,-0.001031499,0.003016787,1.942962646,-0.000015967,-0.000614762,0.000279512,-0.019852979,-0.022179946,9.758056641
1784239839.248206,-0.001031499,0.003016787,1.942962646,-0.000875766,-0.000924530,0.000242258,-0.018936696,-0.018395090,9.791257858
1784239839.250183,-0.001031499,0.003016787,1.942962646,-0.001394186,-0.001205243,0.000196932,-0.053831723,-0.009022403,9.796216011
1784239839.252169,-0.001032173,0.003019257,1.942962646,-0.000850847,-0.001387322,0.000761210,-0.046931446,0.003983971,9.781961441
1784239839.254168,-0.001032173,0.003019257,1.942962646,-0.000906020,-0.001302543,0.001732382,-0.005727229,0.035983901,9.807312012
1784239839.256174,-0.001027711,0.003017273,1.942962646,-0.001407694,-0.000548850,0.001955593,0.006662019,0.020261932,9.790635109
1784239839.258173,-0.001027711,0.003017273,1.942962646,-0.001461276,0.000270927,0.001452287,-0.014361730,0.026720924,9.802312851
1784239839.260173,-0.001027711,0.003017273,1.942962646,-0.001450578,0.000436053,0.001011099,-0.039558005,-0.015954416,9.800220490
1784239839.262173,-0.001027584,0.003019136,1.942962646,-0.001103284,0.000209926,0.000814669,-0.010567285,-0.030272139,9.808226585
1784239839.264178,-0.001027584,0.003019136,1.942962646,-0.000237190,-0.000105520,0.000689759,-0.016690072,-0.016778251,9.811894417
1784239839.266183,-0.001027887,0.003018301,1.942962646,0.000468685,0.000003090,0.001052063,-0.035820857,-0.005109435,9.780566216
1784239839.268181,-0.001027887,0.003018301,1.942962646,0.000718455,0.000714813,0.001355205,-0.039659154,0.013137012,9.804891586
1784239839.270186,-0.001027887,0.003018301,1.942962646,0.000848688,0.001310277,0.000854316,-0.003045901,-0.001726416,9.812899590
1784239839.272183,-0.001027500,0.003017782,1.942962646,0.000723469,0.001440896,0.000415177,-0.005344081,-0.006587086,9.807487488
1784239839.274187,-0.001027500,0.003017782,1.942962646,0.000827546,0.001262296,0.000364831,-0.016343853,0.008244344,9.757806778
1784239839.276188,-0.001027196,0.003016938,1.942962646,0.001300462,0.000986237,-0.000051115,-0.011684214,-0.014261475,9.763944626
1784239839.278187,-0.001027196,0.003016938,1.942962646,0.000957834,0.000722203,-0.000626348,-0.038857333,-0.032108407,9.802359581
1784239839.280190,-0.001027196,0.003016938,1.942962646,0.000038840,0.000588416,-0.000612892,-0.019968344,-0.029169636,9.796119690
1784239839.282188,-0.001028271,0.003017063,1.942962646,-0.000303392,0.000702087,-0.000384772,0.000133038,-0.035814267,9.812235832
1784239839.284197,-0.001028271,0.003017063,1.942962646,-0.000193566,0.000582257,-0.000092785,-0.016559729,-0.004807314,9.829455376
1784239839.286199,-0.001027822,0.003016606,1.942962646,0.000195220,0.000600291,0.000012692,-0.033922687,0.006625477,9.828166962
1784239839.288194,-0.001027822,0.003016606,1.942962646,0.000358630,0.001174467,-0.000196363,-0.038628016,0.025528518,9.824697495
1784239839.290199,-0.001027822,0.003016606,1.942962646,-0.000465508,0.001367602,-0.000134789,-0.049136162,0.008371511,9.799021721
1784239839.292198,-0.001027197,0.003018796,1.942962646,-0.001200693,0.000806123,0.000176718,-0.014989331,0.011940781,9.802665710
1784239839.294199,-0.001027197,0.003018796,1.942962646,-0.001214371,0.000157808,0.000348988,-0.008706532,0.009436436,9.765443802
1784239839.296209,-0.001026071,0.003017255,1.942962646,-0.001165526,0.000064082,0.000278118,0.001934585,0.000590052,9.793192863
1784239839.298204,-0.001026071,0.003017255,1.942962646,-0.000710846,0.000297160,0.000246886,-0.009611753,0.011817735,9.810290337
1784239839.300207,-0.001026071,0.003017255,1.942962646,-0.000055859,0.000371697,0.000512947,-0.005326252,-0.008067323,9.763540268
1784239839.302203,-0.001025766,0.003016295,1.942962646,0.000422939,0.000570193,0.000671472,-0.003086648,-0.006911166,9.785966873
1784239839.304204,-0.001025766,0.003016295,1.942962646,0.000682689,0.000684184,0.000064571,-0.018878160,0.023709463,9.792872429
1784239839.306208,-0.001024701,0.003016074,1.942962646,0.000508728,0.000522030,-0.000848840,-0.044039510,-0.017069105,9.775999069
1784239839.308242,-0.001024701,0.003016074,1.942962646,0.000094396,0.000638780,-0.001152362,-0.057284165,-0.034541380,9.799636841
1784239839.310217,-0.001024701,0.003016074,1.942962646,-0.000046332,0.000612992,-0.001193319,-0.015185974,-0.043411832,9.774065971
1784239839.312220,-0.001026524,0.003015861,1.942962646,0.000352647,0.000191708,-0.001044082,0.011329187,-0.038153298,9.805955887
1784239839.314216,-0.001026524,0.003015861,1.942962646,0.000335817,0.000027800,-0.000231037,-0.012361636,-0.031056035,9.795666695
1784239839.316217,-0.001027218,0.003014446,1.942962646,-0.000001070,-0.000033554,0.000270807,-0.019401839,0.018260188,9.804045677
1784239839.318226,-0.001027218,0.003014446,1.942962646,0.000223361,-0.000258882,-0.000085937,-0.010365650,0.022688411,9.795116425
1784239839.320225,-0.001027218,0.003014446,1.942962646,0.000733743,-0.000103118,-0.000289333,-0.022169616,0.009593013,9.767672539
1784239839.322220,-0.001026203,0.003013599,1.942962646,0.000329763,0.000215382,-0.000220973,-0.033886097,0.007724896,9.799480438
1784239839.324227,-0.001026203,0.003013599,1.942962646,-0.000236544,0.000343229,-0.000316601,-0.035645630,0.010457916,9.796358109
1784239839.326234,-0.001025414,0.003013980,1.942962646,0.000236491,0.000426041,-0.000258552,0.001930961,0.000561434,9.797227859
1784239839.328234,-0.001025414,0.003013980,1.942962646,0.000635810,0.000416992,-0.000740066,-0.024925893,-0.068894826,9.783755302
1784239839.330231,-0.001025414,0.003013980,1.942962646,0.000204188,0.000314845,-0.001850701,-0.064314499,-0.060732223,9.777940750
1784239839.332229,-0.001029719,0.003016008,1.942962646,-0.000146429,0.000363275,-0.002081502,-0.037031908,-0.029052911,9.810450554
1784239839.334233,-0.001029719,0.003016008,1.942962646,0.000160771,0.000748046,-0.001524724,-0.025187267,0.021953590,9.799133301
1784239839.336233,-0.001027686,0.003015539,1.942962646,0.000204073,0.001101073,-0.000920429,-0.015941285,0.008279563,9.815194130
1784239839.338234,-0.001027686,0.003015539,1.942962646,0.000086888,0.001086877,0.000005444,-0.034631118,0.059092328,9.823123932
1784239839.340266,-0.001027686,0.003015539,1.942962646,-0.000144152,0.000935440,0.000462293,-0.006276233,0.026687395,9.792456627
1784239839.342241,-0.001023250,0.003014432,1.942962646,-0.000577881,0.001122719,-0.000304820,-0.004751645,0.003862896,9.786034584
1784239839.344241,-0.001023250,0.003014432,1.942962646,-0.000513902,0.001308277,-0.000736415,-0.044567507,-0.024173498,9.767883301
1784239839.346240,-0.001024986,0.003015613,1.942962646,0.000245911,0.000640257,-0.000476511,-0.021980893,-0.047481243,9.791517258
1784239839.348241,-0.001024986,0.003015613,1.942962646,0.000761669,-0.000130094,-0.000920627,-0.052884109,-0.079359397,9.793523788
1784239839.350241,-0.001024986,0.003015613,1.942962646,0.000620454,-0.000001854,-0.001223090,-0.024720121,-0.052275755,9.777585983
1784239839.352246,-0.001029372,0.003014926,1.942962646,0.000791907,0.000499160,-0.000881118,-0.001867072,-0.015627278,9.812362671
1784239839.354247,-0.001029372,0.003014926,1.942962646,0.001045681,0.001061188,-0.000702899,0.003771577,0.005357903,9.812504768
1784239839.356257,-0.001027583,0.003012618,1.942962646,0.001051298,0.001633990,-0.000482185,-0.030916633,0.068542548,9.810633659
1784239839.358255,-0.001027583,0.003012618,1.942962646,0.000852229,0.001692480,-0.000161252,-0.029541938,0.033997919,9.814448357
1784239839.360258,-0.001027583,0.003012618,1.942962646,0.000628828,0.001160403,-0.000002989,-0.044114176,0.016689166,9.817462921
1784239839.362261,-0.001025254,0.003013324,1.942962646,0.000463983,0.000574933,0.000093146,-0.049348142,-0.008701885,9.806085587
1784239839.364264,-0.001025254,0.003013324,1.942962646,-0.000030310,0.000586432,-0.000159908,0.000462615,-0.049728703,9.752071381
1784239839.366264,-0.001028333,0.003010775,1.942962646,-0.000694455,0.000886516,-0.000415320,0.023466526,-0.038537085,9.775030136
1784239839.368271,-0.001028333,0.003010775,1.942962646,-0.001342774,0.001102359,0.000138463,0.004256695,0.006044951,9.777986526
1784239839.370264,-0.001028333,0.003010775,1.942962646,-0.001849603,0.001526638,0.001084875,-0.033362720,0.011550846,9.764536858
1784239839.372270,-0.001027531,0.003009981,1.942962646,-0.001749346,0.001776660,0.001774743,-0.069826521,0.004188163,9.794492722
1784239839.374270,-0.001027531,0.003009981,1.942962646,-0.001156749,0.001398542,0.001733455,-0.082301110,0.012752290,9.809779167
1784239839.376269,-0.001026379,0.003012764,1.942962646,-0.000906336,0.000966260,0.001178712,-0.059245769,0.025971042,9.799573898
1784239839.378276,-0.001026379,0.003012764,1.942962646,-0.000739262,0.000868500,0.000613307,-0.029637981,0.024324022,9.788831711
1784239839.380277,-0.001026379,0.003012764,1.942962646,0.000036273,0.001060331,0.000185868,0.037358709,-0.000048553,9.819226265
1784239839.382275,-0.001025492,0.003009058,1.942962646,0.000473366,0.001110572,0.000018196,0.016777825,-0.034473255,9.782670975
1784239839.384283,-0.001025492,0.003009058,1.942962646,-0.000075981,0.001156640,-0.000123329,-0.008142992,-0.054305758,9.781175613
1784239839.386278,-0.001027735,0.003007719,1.942962646,-0.000421372,0.001156046,-0.000623672,-0.022918399,-0.050217923,9.800016403
1784239839.388285,-0.001027735,0.003007719,1.942962646,-0.000279532,0.000790389,-0.000827110,-0.024033425,-0.032571219,9.777711868
1784239839.390289,-0.001027735,0.003007719,1.942962646,-0.000050560,0.000555336,-0.000433384,-0.043255337,-0.022837691,9.829763412
