time_sec,roll_rad,pitch_rad,yaw_rad,gyro_x,gyro_y,gyro_z,acc_x,acc_y,acc_z
1784241654.837881,-0.007010006,0.001462340,-0.105635546,-0.000568822,-0.000689253,0.000354870,-0.018881300,-0.087869175,9.794847488
1784241654.839800,-0.007010006,0.001462340,-0.105635546,-0.000324728,-0.000807707,-0.000101967,0.009982950,-0.076942720,9.781495094
1784241654.841788,-0.007011388,0.001461238,-0.105635546,0.000341790,-0.000617812,0.000632604,0.018606579,-0.067765594,9.798599243
1784241654.843768,-0.007011388,0.001461238,-0.105635546,0.000702474,-0.000263799,0.001439512,-0.015347890,-0.056037407,9.785640717
1784241654.845768,-0.007009922,0.001461383,-0.105635546,0.000623871,0.000020756,0.001214610,-0.014850053,-0.052818403,9.773108482
1784241654.847788,-0.007009922,0.001461383,-0.105635546,-0.000158768,-0.000154796,0.000180999,-0.058860209,-0.051333990,9.832704544
1784241654.849761,-0.007009922,0.001461383,-0.105635546,-0.000671319,0.000127799,-0.000100250,-0.052185908,-0.094722390,9.810464859
1784241654.851748,-0.007010316,0.001461994,-0.105635546,-0.000153861,0.000809264,-0.000174709,-0.044769716,-0.112296976,9.811254501
1784241654.853752,-0.007010316,0.001461994,-0.105635546,0.000453995,0.000925121,-0.000212653,0.019917641,-0.070896298,9.795441628
1784241654.855752,-0.007010228,0.001460879,-0.105635561,0.000836702,0.000557644,0.000172283,0.007267664,-0.078306161,9.789106369
1784241654.857753,-0.007010228,0.001460879,-0.105635561,0.000645137,0.000189231,0.000090361,-0.008670292,-0.059783652,9.796381950
1784241654.859760,-0.007010228,0.001460879,-0.105635561,0.000145361,0.000085726,0.000193493,0.001021344,-0.038329117,9.786217690
1784241654.861766,-0.007008432,0.001460328,-0.105635568,-0.000092057,0.000061738,0.000467682,0.001017545,-0.038764358,9.784420967
1784241654.863753,-0.007008432,0.001460328,-0.105635568,0.000187794,0.000041483,0.000325146,-0.011912020,-0.067428701,9.806194305
1784241654.865754,-0.007008090,0.001459738,-0.105635568,0.000304433,0.000175757,-0.000445916,-0.032075945,-0.065330438,9.799462318
1784241654.867755,-0.007008090,0.001459738,-0.105635568,-0.000190803,0.000118059,-0.001045519,-0.001045805,-0.059503380,9.806256294
1784241654.869821,-0.007008090,0.001459738,-0.105635568,-0.000301507,0.000065581,-0.000218357,0.020094689,-0.093309648,9.796644211
1784241654.871754,-0.007009876,0.001457475,-0.105635583,0.000158772,-0.000034693,0.000745772,-0.005175218,-0.067870684,9.793194771
1784241654.873756,-0.007009876,0.001457475,-0.105635583,0.000568330,-0.000086115,0.000726296,-0.006190935,-0.078924663,9.774293900
1784241654.875767,-0.007010783,0.001456331,-0.105635583,0.000687781,-0.000029327,0.000333260,-0.017675115,-0.060316943,9.824615479
1784241654.877772,-0.007010783,0.001456331,-0.105635583,0.000774173,-0.000077062,-0.000097974,-0.032573435,-0.067736201,9.823657036
1784241654.879767,-0.007010783,0.001456331,-0.105635583,0.000437652,-0.000269411,-0.000431688,-0.021287473,-0.063692480,9.801726341
1784241654.881778,-0.007011122,0.001456547,-0.105635583,-0.000226706,-0.000623662,-0.000243411,-0.047204878,-0.053596087,9.814766884
1784241654.883777,-0.007011122,0.001456547,-0.105635583,-0.000523265,-0.000166771,0.000385427,-0.014015597,-0.057379462,9.782942772
1784241654.885771,-0.007010484,0.001456432,-0.105635583,-0.000425286,0.000774767,0.000829368,-0.012348981,-0.030550843,9.787601471
1784241654.887767,-0.007010484,0.001456432,-0.105635583,-0.000956980,0.000855639,0.001076237,0.002955740,-0.063898012,9.786952019
1784241654.889766,-0.007010484,0.001456432,-0.105635583,-0.001476306,0.000394554,0.001162713,-0.018432125,-0.051091842,9.788806915
1784241654.891771,-0.007010032,0.001456964,-0.105635583,-0.000929742,0.000178444,0.000614085,-0.015514590,-0.069511227,9.790484428
1784241654.893778,-0.007010032,0.001456964,-0.105635583,0.000160141,0.000358082,-0.000197799,-0.018824967,-0.083777100,9.786355019
1784241654.895772,-0.007010161,0.001457112,-0.105635583,0.000990114,0.000575676,-0.000319360,-0.018612405,-0.066293903,9.784674644
1784241654.897776,-0.007010161,0.001457112,-0.105635583,0.000651605,0.000439149,-0.000537422,-0.046359390,-0.060501512,9.776166916
1784241654.899771,-0.007010161,0.001457112,-0.105635583,-0.000226318,0.000402709,-0.001057965,-0.014070491,-0.061865430,9.783810616
1784241654.901777,-0.007009474,0.001456886,-0.105635583,-0.000286105,0.000600581,-0.000893450,-0.029943323,-0.075960815,9.778325081
1784241654.903784,-0.007009474,0.001456886,-0.105635583,0.000718291,0.000696766,-0.000663894,-0.021169867,-0.091843456,9.790785789
1784241654.905778,-0.007010751,0.001457456,-0.105635583,0.001594355,0.000799617,-0.000225475,-0.021289321,-0.100891717,9.803279877
1784241654.907784,-0.007010751,0.001457456,-0.105635583,0.001092454,0.000901516,0.000633801,0.006421235,-0.075460620,9.768500328
1784241654.909787,-0.007010751,0.001457456,-0.105635583,-0.000017351,0.000643780,0.000931810,-0.015458598,-0.063395575,9.812493324
1784241654.911785,-0.007011229,0.001457495,-0.105635583,-0.000335868,0.000490389,0.000554167,-0.022228779,-0.066864394,9.808429718
1784241654.913793,-0.007011229,0.001457495,-0.105635583,-0.000072850,0.000898494,-0.000240761,-0.001720703,-0.043145880,9.775424004
1784241654.915794,-0.007009715,0.001457126,-0.105635583,0.000081711,0.001071417,-0.001019180,-0.016930707,-0.036104176,9.820736885
1784241654.917801,-0.007009715,0.001457126,-0.105635583,0.000219698,0.000312056,-0.001085692,-0.016590707,-0.046289023,9.803186417
1784241654.919799,-0.007009715,0.001457126,-0.105635583,0.000263640,-0.000351504,-0.000647451,-0.003735722,-0.060666505,9.785621643
1784241654.921804,-0.007009130,0.001457714,-0.105635583,-0.000038064,0.000033766,-0.000504405,0.008118707,-0.043120112,9.817128181
1784241654.923810,-0.007009130,0.001457714,-0.105635583,-0.000146495,0.000583108,-0.000380473,-0.005164801,-0.066977948,9.793650627
1784241654.925799,-0.007009076,0.001457140,-0.105635583,0.000042952,0.000745861,-0.000200826,-0.003109451,-0.081865713,9.804316521
1784241654.927853,-0.007009076,0.001457140,-0.105635583,-0.000025771,0.000094015,-0.000291198,-0.021051221,-0.082801573,9.779187202
1784241654.929819,-0.007009076,0.001457140,-0.105635583,-0.000279778,-0.000811625,-0.000197291,-0.029878296,-0.069368586,9.796300888
1784241654.931829,-0.007008968,0.001457741,-0.105635583,-0.000494845,-0.000982858,-0.000487243,-0.021585071,-0.051957067,9.790143967
1784241654.933811,-0.007008968,0.001457741,-0.105635583,-0.000539165,-0.000836388,-0.001093920,-0.035590474,-0.058612723,9.806227684
1784241654.935810,-0.007008596,0.001458035,-0.105635583,-0.000533733,-0.000586099,-0.001535018,-0.006543889,-0.070868343,9.776138306
1784241654.937814,-0.007008596,0.001458035,-0.105635583,-0.000854317,-0.000240488,-0.001494923,-0.001350557,-0.087035321,9.772005081
1784241654.939805,-0.007008596,0.001458035,-0.105635583,-0.001376676,0.000138071,-0.001086379,-0.005838678,-0.088607498,9.749126434
1784241654.941850,-0.007009573,0.001457959,-0.105635583,-0.001649513,0.000305686,-0.000951656,-0.008311260,-0.106192328,9.769185066
1784241654.943828,-0.007009573,0.001457959,-0.105635583,-0.001290562,0.000152234,-0.000926369,-0.036568321,-0.066530980,9.787345886
1784241654.945817,-0.007009270,0.001458945,-0.105635576,-0.000702278,0.000162916,-0.000906745,-0.024121698,-0.075721137,9.797161102
1784241654.947818,-0.007009270,0.001458945,-0.105635576,-0.000019701,0.000310293,-0.000620492,-0.013457049,-0.083976470,9.804741859
1784241654.949820,-0.007009270,0.001458945,-0.105635576,0.000711472,0.000464814,0.000292696,-0.024295995,-0.090065435,9.798415184
1784241654.951816,-0.007010265,0.001459333,-0.105635576,0.000644928,0.000384744,0.001136437,-0.017939707,-0.085910775,9.769755363
1784241654.953824,-0.007010265,0.001459333,-0.105635576,-0.000002720,-0.000023678,0.001188584,0.010381076,-0.079779312,9.801651955
1784241654.955814,-0.007010480,0.001458604,-0.105635576,-0.000343870,-0.000154649,0.000252911,0.000814945,-0.054547936,9.799115181
1784241654.957821,-0.007010480,0.001458604,-0.105635576,-0.000352879,0.000126337,-0.000588705,-0.003620992,-0.088029683,9.789929390
1784241654.959818,-0.007010480,0.001458604,-0.105635576,-0.000484615,0.000650944,-0.000315692,-0.008183728,-0.056653671,9.796402931
1784241654.961844,-0.007009331,0.001458309,-0.105635583,-0.000333127,0.000543471,0.000043326,-0.009481919,-0.091011174,9.778697014
1784241654.963857,-0.007009331,0.001458309,-0.105635583,0.000263580,0.000087818,-0.000653208,-0.025053514,-0.079223372,9.787276268
1784241654.965830,-0.007009533,0.001458877,-0.105635576,0.000197014,0.000211485,-0.001194987,-0.040064942,-0.056429893,9.822378159
1784241654.967844,-0.007009533,0.001458877,-0.105635576,-0.000827681,0.000522337,-0.000651295,-0.042864144,-0.068181925,9.778811455
1784241654.969835,-0.007009533,0.001458877,-0.105635576,-0.001373728,0.000890622,-0.000254112,0.004243385,-0.069239907,9.779746056
1784241654.971833,-0.007009271,0.001458834,-0.105635576,-0.000942641,0.000862874,-0.000109516,0.009621301,-0.071386553,9.756873131
1784241654.973835,-0.007009271,0.001458834,-0.105635576,-0.000053115,0.000601137,0.000212012,-0.014365796,-0.086080767,9.787241936
1784241654.975835,-0.007009443,0.001459119,-0.105635576,0.000741330,0.000500984,0.000103994,-0.040435974,-0.052163560,9.790123940
1784241654.977877,-0.007009443,0.001459119,-0.105635576,0.001176611,0.000467562,-0.000299636,-0.031251166,-0.072804652,9.777895927
1784241654.979840,-0.007009443,0.001459119,-0.105635576,0.001117159,0.000840268,-0.000104664,-0.004417588,-0.115086019,9.815759659
1784241654.981837,-0.007010513,0.001459127,-0.105635576,0.000605236,0.001313054,0.000326577,-0.000697807,-0.068814561,9.791849136
1784241654.983842,-0.007010513,0.001459127,-0.105635576,0.000268660,0.001640078,0.000478226,-0.007713621,-0.054464128,9.802694321
1784241654.985841,-0.007010074,0.001459268,-0.105635576,0.000347034,0.001660051,0.000389429,-0.030870741,-0.038191188,9.824296951
1784241654.987852,-0.007010074,0.001459268,-0.105635576,0.000835585,0.001436180,0.000287995,-0.003577437,-0.085659496,9.771563530
1784241654.989861,-0.007010074,0.001459268,-0.105635576,0.001049174,0.001438058,-0.000019879,0.010759114,-0.086421810,9.789954185
1784241654.991885,-0.007010475,0.001457663,-0.105635591,0.000660074,0.001176860,-0.000499216,-0.052626621,-0.096679822,9.771446228
1784241654.993881,-0.007010475,0.001457663,-0.105635591,0.000242870,0.000444616,-0.000292034,-0.045726728,-0.080839776,9.799798965
1784241654.995904,-0.007010391,0.001459375,-0.105635576,0.000012516,-0.000016395,-0.000339153,-0.020352084,-0.059351549,9.819686890
1784241654.997861,-0.007010391,0.001459375,-0.105635576,-0.000386164,-0.000059104,-0.000805456,-0.016936770,-0.041825552,9.743138313
1784241654.999852,-0.007010391,0.001459375,-0.105635576,-0.001130709,-0.000125745,-0.000424000,0.003923461,-0.058086012,9.786990166
1784241655.001894,-0.007009431,0.001458999,-0.105635576,-0.001636226,-0.000155364,-0.000362571,-0.006549185,-0.072936445,9.751914978
1784241655.003875,-0.007009431,0.001458999,-0.105635576,-0.001692980,0.000075342,-0.000911630,-0.013938043,-0.089088701,9.768394470
1784241655.005877,-0.007010118,0.001459209,-0.105635576,-0.001606428,0.000420473,-0.001057698,-0.018906320,-0.052503116,9.799109459
1784241655.007874,-0.007010118,0.001459209,-0.105635576,-0.001198938,0.000793070,-0.000982367,0.007677805,-0.083074130,9.765762329
1784241655.009870,-0.007010118,0.001459209,-0.105635576,-0.000506400,0.000897470,-0.000801429,-0.034706071,-0.059942670,9.802633286
1784241655.011863,-0.007010184,0.001460032,-0.105635576,0.000083521,0.000574850,-0.000382873,-0.017046841,-0.049583979,9.763263702
1784241655.013865,-0.007010184,0.001460032,-0.105635576,0.000264971,0.000739812,-0.000292748,-0.004222058,-0.064199924,9.779321671
1784241655.015867,-0.007010044,0.001459574,-0.105635576,0.000335476,0.001710376,-0.000836214,0.002050686,-0.063946925,9.795470238
1784241655.017917,-0.007010044,0.001459574,-0.105635576,0.000165403,0.002040830,-0.001072107,-0.025570175,-0.084211960,9.796658516
1784241655.019881,-0.007010044,0.001459574,-0.105635576,-0.000041537,0.001432511,-0.000598950,-0.033528727,-0.072639555,9.821830750
1784241655.021875,-0.007009920,0.001460259,-0.105635576,-0.000065086,0.001094653,-0.000036849,0.011459620,-0.100145578,9.828422546
1784241655.023908,-0.007009920,0.001460259,-0.105635576,-0.000275762,0.001266808,0.000013622,-0.009501638,-0.053577006,9.807182312
1784241655.025882,-0.007009628,0.001460335,-0.105635576,-0.000031320,0.001423376,0.000141454,0.003207251,-0.079239368,9.801649094
1784241655.027888,-0.007009628,0.001460335,-0.105635576,0.000250920,0.001157774,0.000322888,-0.006120621,-0.107854307,9.809974670
1784241655.029883,-0.007009628,0.001460335,-0.105635576,-0.000014076,0.000915474,0.000435989,-0.033823002,-0.097251974,9.818086624
1784241655.031878,-0.007010443,0.001461040,-0.105635568,-0.000296960,0.000916380,0.001096886,-0.016190814,-0.089133091,9.778701782
1784241655.033888,-0.007010443,0.001461040,-0.105635568,-0.000379188,0.000576265,0.001161449,-0.038611129,-0.049517874,9.792833328
1784241655.035890,-0.007009809,0.001462238,-0.105635561,-0.000297374,-0.000153034,0.000231227,-0.030179294,-0.058065232,9.782475471
1784241655.037888,-0.007009809,0.001462238,-0.105635561,-0.000473390,-0.000700775,-0.000284430,-0.000472130,-0.051633056,9.769541740
1784241655.039883,-0.007009809,0.001462238,-0.105635561,-0.000163641,-0.000674090,-0.000404287,0.020661810,-0.083870061,9.791324615
1784241655.041923,-0.007010269,0.001461114,-0.105635561,0.000572149,-0.000317613,-0.000579173,0.007474922,-0.062891059,9.763200760
1784241655.043934,-0.007010269,0.001461114,-0.105635561,0.000366953,0.000090188,-0.000075114,-0.045604095,-0.033366054,9.802345276
1784241655.045892,-0.007008997,0.001463119,-0.105635546,-0.000092220,0.000209619,0.000453071,-0.042962357,-0.075441509,9.791766167
1784241655.047892,-0.007008997,0.001463119,-0.105635546,-0.000230943,-0.000115927,0.000258204,-0.001987568,-0.027115284,9.789874077
1784241655.049891,-0.007008997,0.001463119,-0.105635546,-0.000383249,-0.000134880,-0.000153398,-0.040299546,-0.078544967,9.782334328
1784241655.051894,-0.007008967,0.001463944,-0.105635546,-0.000040183,0.000061633,-0.000324990,-0.020474207,-0.073689111,9.756829262
1784241655.053895,-0.007008967,0.001463944,-0.105635546,0.000912293,0.000068232,0.000037762,-0.028880484,-0.061697960,9.786936760
1784241655.055897,-0.007008977,0.001464720,-0.105635546,0.001248473,0.000506886,0.000628804,0.001633859,-0.096416332,9.825747490
1784241655.057895,-0.007008977,0.001464720,-0.105635546,0.000703498,0.001251816,0.000591140,-0.007142307,-0.082176082,9.792206764
1784241655.059900,-0.007008977,0.001464720,-0.105635546,0.000192448,0.001238963,0.000361856,-0.009355552,-0.079882093,9.788631439
1784241655.061897,-0.007009483,0.001464818,-0.105635546,0.000086058,0.000758199,0.000282880,0.004716310,-0.101781242,9.818543434
1784241655.063903,-0.007009483,0.001464818,-0.105635546,0.000316706,0.000389192,-0.000189460,-0.030726617,-0.100075379,9.831521034
1784241655.065903,-0.007010468,0.001465486,-0.105635539,0.000553669,-0.000204022,-0.000589408,-0.019595256,-0.071820110,9.807503700
1784241655.067902,-0.007010468,0.001465486,-0.105635539,0.000254540,-0.000740409,-0.000665474,-0.002140807,-0.074830674,9.821398735
1784241655.069911,-0.007010468,0.001465486,-0.105635539,0.000309873,-0.000831331,-0.000195281,-0.037517909,-0.069363050,9.809296608
1784241655.071908,-0.007010539,0.001466145,-0.105635539,0.001092775,-0.000692129,0.000564766,-0.038175900,-0.087625146,9.795279503
1784241655.073914,-0.007010539,0.001466145,-0.105635539,0.001321840,-0.000563840,0.000269625,-0.014133548,-0.064794861,9.817864418
1784241655.075908,-0.007010262,0.001466488,-0.105635539,0.000728818,-0.000603638,-0.000362523,-0.022076117,-0.019558826,9.771521568
1784241655.077912,-0.007010262,0.001466488,-0.105635539,0.000623967,-0.000386714,-0.000405955,-0.030470904,-0.045472059,9.776278496
1784241655.079913,-0.007010262,0.001466488,-0.105635539,0.001003443,0.000143827,-0.000344537,-0.024284892,-0.090383023,9.780031204
1784241655.081918,-0.007011131,0.001467422,-0.105635531,0.000969399,0.000228126,-0.000374178,-0.047154844,-0.089575082,9.770599365
1784241655.083935,-0.007011131,0.001467422,-0.105635531,0.000705496,-0.000138317,-0.000651260,-0.041724313,-0.048448160,9.774007797
1784241655.085922,-0.007010642,0.001468364,-0.105635531,0.000455260,-0.000746737,-0.000837054,0.003926280,-0.058063753,9.783852577
1784241655.087924,-0.007010642,0.001468364,-0.105635531,0.000673829,-0.000836294,-0.000644864,-0.000455045,-0.085846014,9.792188644
1784241655.089924,-0.007010642,0.001468364,-0.105635531,0.000872458,-0.000473632,0.000093302,-0.016733071,-0.059165433,9.786963463
1784241655.091927,-0.007010543,0.001468467,-0.105635531,0.000417680,-0.000455294,0.000682881,-0.002560394,-0.073379278,9.807061195
1784241655.093929,-0.007010543,0.001468467,-0.105635531,-0.000329290,-0.000559573,0.000479253,-0.012247875,-0.055995353,9.837202072
1784241655.095936,-0.007010203,0.001468346,-0.105635531,-0.000242084,-0.000698448,0.000674550,0.000663375,-0.068307541,9.781094551
1784241655.097935,-0.007010203,0.001468346,-0.105635531,0.000256777,-0.000590645,0.001197766,-0.016195288,-0.050768029,9.802260399
1784241655.099929,-0.007010203,0.001468346,-0.105635531,-0.000281605,-0.000426849,0.001000307,-0.027935769,-0.055257138,9.824638367
1784241655.101932,-0.007009631,0.001468761,-0.105635531,-0.001236674,-0.000535113,0.000800143,-0.022778464,-0.074950568,9.812411308
1784241655.103936,-0.007009631,0.001468761,-0.105635531,-0.000898660,-0.000336810,0.000603357,-0.054032024,-0.060756721,9.825922966
1784241655.105930,-0.007009272,0.001469973,-0.105635524,0.000275430,0.000302510,0.000319817,0.008695588,-0.072814316,9.770312309
1784241655.107935,-0.007009272,0.001469973,-0.105635524,0.000405727,0.000683856,0.000472675,-0.004566086,-0.054046873,9.801354408
1784241655.109935,-0.007009272,0.001469973,-0.105635524,-0.000224542,0.000841828,0.000852988,0.007792318,-0.072443895,9.782867432
1784241655.111933,-0.007009442,0.001468970,-0.105635531,-0.000957346,0.000743536,0.001182574,-0.017997412,-0.052829035,9.780279160
1784241655.113937,-0.007009442,0.001468970,-0.105635531,-0.001347698,0.000509941,0.001169274,-0.043409564,-0.039049774,9.778549194
1784241655.115944,-0.007008519,0.001469992,-0.105635524,-0.001069415,0.000391797,0.000492851,-0.015419993,-0.062280249,9.781565666
1784241655.117937,-0.007008519,0.001469992,-0.105635524,-0.000509196,-0.000041106,0.000161187,0.022239923,-0.065034784,9.786066055
1784241655.119939,-0.007008519,0.001469992,-0.105635524,-0.000226190,-0.000088898,0.000534626,0.004785191,-0.060810715,9.790560722
1784241655.121949,-0.007008126,0.001469108,-0.105635531,-0.000482024,0.000496893,0.000213687,-0.007495948,-0.072909422,9.812888145
1784241655.123962,-0.007008126,0.001469108,-0.105635531,-0.000706394,0.000656825,-0.000472956,0.007509388,-0.094940513,9.796620369
1784241655.125950,-0.007009058,0.001468205,-0.105635531,-0.000712484,0.000355441,-0.000614211,-0.025593070,-0.085203290,9.810102463
1784241655.127953,-0.007009058,0.001468205,-0.105635531,-0.000533052,0.000456781,-0.000534515,-0.035888474,-0.081633627,9.830738068
1784241655.129952,-0.007009058,0.001468205,-0.105635531,-0.000296634,0.000242366,-0.000622310,-0.016576437,-0.080524236,9.828969002
1784241655.131948,-0.007009519,0.001468841,-0.105635531,-0.000164941,-0.000309600,-0.000652433,0.003297135,-0.070829846,9.816049576
1784241655.133952,-0.007009519,0.001468841,-0.105635531,-0.000407508,-0.000187735,-0.000401219,-0.034751128,-0.063945703,9.798572540
1784241655.135955,-0.007009455,0.001470066,-0.105635516,-0.000834575,0.000103283,-0.000470209,-0.013721446,-0.068736866,9.804391861
1784241655.137961,-0.007009455,0.001470066,-0.105635516,-0.000226370,-0.000016619,-0.000845788,0.000420320,-0.087652527,9.792626381
1784241655.139957,-0.007009455,0.001470066,-0.105635516,0.000631373,-0.000023865,-0.000233750,-0.017817548,-0.075220115,9.778342247
1784241655.142019,-0.007009740,0.001469943,-0.105635516,0.000408556,0.000247771,0.000573346,-0.043665744,-0.095683038,9.804188728
1784241655.143964,-0.007009740,0.001469943,-0.105635516,-0.000369104,0.000170612,0.000129843,-0.065673091,-0.060813539,9.791838646
1784241655.145967,-0.007009209,0.001471830,-0.105635501,-0.000866685,-0.000139990,0.000076226,-0.007314751,-0.059321139,9.791903496
1784241655.147959,-0.007009209,0.001471830,-0.105635501,-0.000759780,-0.000285530,0.000724330,-0.028960010,-0.068404667,9.785099030
1784241655.149966,-0.007009209,0.001471830,-0.105635501,-0.000514981,-0.000137603,0.000584386,-0.025847979,-0.070293993,9.793160439
1784241655.151971,-0.007009155,0.001471993,-0.105635501,-0.000370572,0.000063732,-0.000040597,-0.017891942,-0.080265343,9.794898033
1784241655.153970,-0.007009155,0.001471993,-0.105635501,-0.000192968,0.000209844,-0.000531882,-0.000765343,-0.036215760,9.807302475
1784241655.155967,-0.007007947,0.001471514,-0.105635509,-0.000154438,0.000333603,-0.000619049,0.008752900,-0.068309277,9.766755104
1784241655.157971,-0.007007947,0.001471514,-0.105635509,-0.000147591,0.000223452,-0.000268507,-0.010302030,-0.081068583,9.831213951
1784241655.159974,-0.007007947,0.001471514,-0.105635509,-0.000196691,0.000196682,0.000167589,-0.009158951,-0.102546267,9.762034416
1784241655.161976,-0.007009423,0.001471435,-0.105635509,-0.000032047,0.000196449,-0.000073900,-0.001771400,-0.081946559,9.813282967
1784241655.163977,-0.007009423,0.001471435,-0.105635509,0.000536937,-0.000236115,-0.000973590,0.012280051,-0.068038039,9.848355293
1784241655.165977,-0.007009344,0.001470627,-0.105635509,0.000950068,-0.000607209,-0.001304386,0.004781566,-0.060839336,9.794594765
1784241655.167979,-0.007009344,0.001470627,-0.105635509,0.000985663,-0.000177256,-0.000801764,-0.007896020,-0.068061955,9.825023651
1784241655.169975,-0.007009344,0.001470627,-0.105635509,0.001282784,0.000098034,-0.000597855,-0.011772424,-0.055384621,9.813443184
1784241655.171983,-0.007009162,0.001470165,-0.105635509,0.001833799,-0.000655443,-0.001031751,-0.019460155,-0.061837777,9.789633751
1784241655.173988,-0.007009162,0.001470165,-0.105635509,0.001547847,-0.001267822,-0.001529804,-0.018023936,-0.053848960,9.797756195
1784241655.175982,-0.007008761,0.001470204,-0.105635509,0.000658906,-0.000972722,-0.001221665,-0.025647173,-0.092519730,9.767910957
1784241655.177985,-0.007008761,0.001470204,-0.105635509,0.000245894,-0.000603927,-0.000075317,-0.011455092,-0.066964231,9.803058624
1784241655.179981,-0.007008761,0.001470204,-0.105635509,-0.000123659,-0.000045207,0.000544670,-0.026721217,-0.070091709,9.766260147
1784241655.181987,-0.007008868,0.001470678,-0.105635509,-0.000821834,0.000589071,-0.000086199,-0.019679161,-0.079371855,9.798487663
1784241655.183989,-0.007008868,0.001470678,-0.105635509,-0.000868267,0.000255959,-0.000838306,0.005276063,-0.093615584,9.803352356
1784241655.185989,-0.007009649,0.001470198,-0.105635509,-0.000310766,-0.000251605,-0.000321687,-0.002728998,-0.088489123,9.789927483
1784241655.187990,-0.007009649,0.001470198,-0.105635509,0.000356164,0.000183024,0.000510855,-0.021355705,-0.032720178,9.793853760
1784241655.189991,-0.007009649,0.001470198,-0.105635509,0.000867832,0.001061661,0.000416505,-0.039940380,-0.048557006,9.786112785
1784241655.192033,-0.007009252,0.001471080,-0.105635509,0.000714351,0.001439971,-0.000069714,-0.032175768,-0.035012782,9.820729256
1784241655.194010,-0.007009252,0.001471080,-0.105635509,0.000433784,0.001159410,-0.000427286,-0.033837549,-0.061803244,9.810691833
1784241655.196033,-0.007009258,0.001471682,-0.105635501,-0.000114851,0.000956855,-0.000381430,-0.012275172,-0.098258533,9.794786453
1784241655.198016,-0.007009258,0.001471682,-0.105635501,-0.000548500,0.001147773,0.000285621,-0.032223243,-0.076624855,9.812841415
1784241655.200006,-0.007009258,0.001471682,-0.105635501,-0.000486065,0.001156891,0.000753386,-0.015349679,-0.056456760,9.781602859
1784241655.202013,-0.007008985,0.001471672,-0.105635501,-0.000332081,0.001074914,0.000678635,0.012924552,-0.055961184,9.787013054
1784241655.204015,-0.007008985,0.001471672,-0.105635501,-0.000092029,0.001139699,0.000643128,0.003016459,-0.021370927,9.792157173
1784241655.206017,-0.007007365,0.001471055,-0.105635509,0.000082565,0.001203679,0.000815925,-0.024853386,-0.062648810,9.787381172
1784241655.208009,-0.007007365,0.001471055,-0.105635509,0.000076851,0.000727973,0.001227513,-0.037955452,-0.067648135,9.820960999
1784241655.210011,-0.007007365,0.001471055,-0.105635509,-0.000224855,-0.000371554,0.001558787,0.001931340,-0.074615322,9.783745766
1784241655.212012,-0.007008100,0.001470502,-0.105635509,-0.000459798,-0.000972401,0.001476275,-0.010308931,-0.045559444,9.815302849
1784241655.214019,-0.007008100,0.001470502,-0.105635509,-0.000477546,-0.000566799,0.001583574,-0.009052479,-0.054389648,9.794622421
1784241655.216020,-0.007007397,0.001470643,-0.105635509,-0.000399558,-0.000235973,0.001607926,-0.025577355,-0.047489308,9.799135208
1784241655.218015,-0.007007397,0.001470643,-0.105635509,-0.000887349,-0.000432325,0.000521204,-0.014383805,-0.087843984,9.783195496
1784241655.220023,-0.007007397,0.001470643,-0.105635509,-0.001095182,-0.000377083,-0.000576003,-0.021372935,-0.074903853,9.740231514
1784241655.222021,-0.007007671,0.001471277,-0.105635509,-0.000810608,0.000013794,-0.000614485,-0.004828188,-0.074758016,9.816016197
1784241655.224040,-0.007007671,0.001471277,-0.105635509,-0.000816285,0.000608488,-0.000911907,-0.048719134,-0.069495581,9.785073280
1784241655.226031,-0.007007439,0.001472501,-0.105635494,-0.000440751,0.000897613,-0.001778641,-0.027609002,-0.066356979,9.809771538
1784241655.228027,-0.007007439,0.001472501,-0.105635494,-0.000047517,0.000669323,-0.001491660,0.005024555,-0.078274220,9.788655281
1784241655.230026,-0.007007439,0.001472501,-0.105635494,0.000111678,0.000520062,-0.000903617,0.004348677,-0.097082846,9.788534164
1784241655.232027,-0.007008505,0.001471401,-0.105635501,0.000483060,0.000484444,-0.001106234,-0.021566143,-0.086560741,9.804718018
1784241655.234041,-0.007008505,0.001471401,-0.105635501,0.000806934,0.000420595,-0.001037343,-0.024746599,-0.091695718,9.776435852
1784241655.236033,-0.007009348,0.001471968,-0.105635494,0.000552259,0.000268056,-0.000446973,-0.045255359,-0.079450779,9.792634964
1784241655.238048,-0.007009348,0.001471968,-0.105635494,0.000151100,0.000285142,0.000001529,-0.041828852,-0.054541923,9.812076569
1784241655.240041,-0.007009348,0.001471968,-0.105635494,0.000131958,0.000369519,-0.000140254,-0.024666136,-0.046176001,9.801835060
1784241655.242058,-0.007008246,0.001472243,-0.105635494,0.000130874,-0.000055020,-0.000264281,-0.027220149,-0.072103560,9.798079491
1784241655.244047,-0.007008246,0.001472243,-0.105635494,0.000055103,-0.000632807,-0.000464559,-0.010919443,-0.059799418,9.802657127
1784241655.246050,-0.007007384,0.001471852,-0.105635501,-0.000215748,-0.000908064,-0.000501680,0.008690301,-0.072045587,9.788249969
1784241655.248047,-0.007007384,0.001471852,-0.105635501,-0.000754294,-0.000836579,-0.000256972,-0.008416555,-0.078349397,9.760396957
1784241655.250043,-0.007007384,0.001471852,-0.105635501,-0.000909724,-0.000677292,-0.000366559,-0.008875148,-0.078016512,9.777435303
1784241655.252046,-0.007008117,0.001471144,-0.105635501,-0.000681914,-0.000851257,-0.000718244,-0.042492598,-0.074065216,9.786394119
1784241655.254049,-0.007008117,0.001471144,-0.105635501,-0.000644288,-0.001121152,-0.000885185,-0.007137588,-0.080517784,9.811044693
1784241655.256093,-0.007008723,0.001470526,-0.105635501,-0.000671791,-0.001266388,-0.000483098,-0.025642097,-0.090048172,9.798413277
1784241655.258070,-0.007008723,0.001470526,-0.105635501,-0.000837025,-0.001407067,-0.000118400,-0.023300020,-0.082004093,9.797122955
1784241655.260060,-0.007008723,0.001470526,-0.105635501,-0.000698347,-0.001112155,-0.000536064,0.013886581,-0.049383637,9.805438042
1784241655.262051,-0.007008226,0.001469642,-0.105635501,-0.000214340,-0.000630461,-0.001000700,0.030983007,-0.046809413,9.790675163
1784241655.264061,-0.007008226,0.001469642,-0.105635501,-0.000349934,-0.000204393,-0.000996554,-0.019686416,-0.082265928,9.764397621
1784241655.266058,-0.007008532,0.001470094,-0.105635501,-0.000461247,0.000645328,-0.000864186,-0.036716208,-0.078235202,9.795340538
1784241655.268060,-0.007008532,0.001470094,-0.105635501,0.000163991,0.001347386,-0.000874484,-0.045257252,-0.078249976,9.812816620
1784241655.270061,-0.007008532,0.001470094,-0.105635501,0.000557022,0.001120981,-0.000795936,-0.008547913,-0.087086409,9.792172432
1784241655.272062,-0.007009743,0.001470138,-0.105635501,0.000608222,0.000993363,-0.000540311,-0.021621274,-0.090643279,9.811863899
1784241655.274069,-0.007009743,0.001470138,-0.105635501,0.000652388,0.001495401,-0.000531283,-0.038961492,-0.078625791,9.791301727
1784241655.276069,-0.007009547,0.001471102,-0.105635501,0.000246067,0.001434099,-0.000563885,-0.034518369,-0.044276748,9.804526329
1784241655.278108,-0.007009547,0.001471102,-0.105635501,-0.000145530,0.000957164,-0.000373575,-0.008218195,-0.059357338,9.798626900
1784241655.280077,-0.007009547,0.001471102,-0.105635501,-0.000560113,0.000446577,0.000179142,-0.007675652,-0.087701671,9.814139366
1784241655.282077,-0.007010467,0.001470492,-0.105635501,-0.001024696,0.000094261,0.000599693,-0.020159619,-0.080427371,9.821793556
1784241655.284128,-0.007010467,0.001470492,-0.105635501,-0.001740096,0.000041097,0.000671922,-0.012890561,-0.074136622,9.806149483
1784241655.286084,-0.007010595,0.001470595,-0.105635501,-0.002659978,-0.000048327,0.000886090,-0.007111065,-0.079497874,9.793568611
1784241655.288083,-0.007010595,0.001470595,-0.105635501,-0.002245970,-0.000249274,0.000736194,0.004218525,-0.071057193,9.783321381
1784241655.290077,-0.007010595,0.001470595,-0.105635501,-0.001581935,-0.000414912,0.000194221,0.003766480,-0.072293580,9.768965721
1784241655.292085,-0.007010974,0.001470279,-0.105635501,-0.001979727,-0.000112423,-0.000145487,-0.007824279,-0.065469198,9.775274277
1784241655.294083,-0.007010974,0.001470279,-0.105635501,-0.001813999,0.000374562,-0.000643478,-0.007653033,-0.050743714,9.783439636
1784241655.296080,-0.007009845,0.001469404,-0.105635501,-0.000725284,0.000120156,-0.000231887,0.025631733,-0.042426147,9.814011574
1784241655.298084,-0.007009845,0.001469404,-0.105635501,-0.000242789,-0.000227694,0.000698368,0.011172557,-0.051547609,9.799592972
1784241655.300086,-0.007009845,0.001469404,-0.105635501,-0.000300596,-0.000057502,0.000529323,-0.010235927,-0.078520358,9.787741661
1784241655.302099,-0.007010176,0.001470028,-0.105635501,0.000147993,0.000137725,-0.000332772,0.002441044,-0.068060637,9.806201935
1784241655.304092,-0.007010176,0.001470028,-0.105635501,0.000601906,0.000280014,-0.001195271,0.008764415,-0.065786846,9.790083885
1784241655.306100,-0.007009776,0.001468878,-0.105635516,0.000390409,0.000565080,-0.001101370,-0.011566773,-0.039982237,9.789334297
1784241655.308096,-0.007009776,0.001468878,-0.105635516,-0.000159270,0.001185018,-0.000056498,-0.023513665,-0.063526995,9.782445908
1784241655.310094,-0.007009776,0.001468878,-0.105635516,-0.000398203,0.001491787,0.000559715,-0.035979915,-0.056112800,9.770377159
1784241655.312094,-0.007009186,0.001469695,-0.105635509,0.000181612,0.001133154,0.000681642,-0.014902007,-0.056065418,9.788779259
1784241655.314104,-0.007009186,0.001469695,-0.105635509,0.000294682,0.000642679,0.000534022,-0.001963880,-0.098460712,9.804658890
1784241655.316097,-0.007010213,0.001469474,-0.105635509,-0.000491489,0.000117844,-0.000081281,-0.015759014,-0.086435534,9.839692116
1784241655.318100,-0.007010213,0.001469474,-0.105635509,-0.000776220,-0.000183357,0.000410081,-0.015377515,-0.055866081,9.824645042
1784241655.320106,-0.007010213,0.001469474,-0.105635509,-0.000856573,-0.000192807,0.001527580,-0.001005057,-0.054318625,9.833187103
1784241655.322104,-0.007009577,0.001468680,-0.105635516,-0.001437825,-0.000172515,0.001763330,-0.019972486,-0.065171249,9.818305016
1784241655.324108,-0.007009577,0.001468680,-0.105635516,-0.001463990,-0.000303242,0.001483596,-0.034858152,-0.072085321,9.809280396
1784241655.326104,-0.007009695,0.001469570,-0.105635509,-0.000398963,-0.000464383,0.001317272,-0.050605435,-0.075057976,9.814626694
1784241655.328109,-0.007009695,0.001469570,-0.105635509,0.000304470,-0.000493763,0.001647777,-0.019714711,-0.046115227,9.784354210
1784241655.330106,-0.007009695,0.001469570,-0.105635509,0.000166664,-0.000436600,0.001960159,-0.012941418,-0.041000817,9.809052467
1784241655.332108,-0.007008676,0.001469576,-0.105635509,-0.000021823,-0.000283135,0.001718861,-0.029454451,-0.071191616,9.799876213
1784241655.334139,-0.007008676,0.001469576,-0.105635509,-0.000338430,-0.000148084,0.001001369,-0.019006392,-0.062208816,9.777976036
1784241655.336122,-0.007008493,0.001469595,-0.105635509,-0.000932286,-0.000207445,0.000423072,0.016928405,-0.058716599,9.789240837
1784241655.338118,-0.007008493,0.001469595,-0.105635509,-0.001185974,-0.000397387,0.000127618,-0.015204790,-0.045181420,9.770915031
1784241655.340124,-0.007008493,0.001469595,-0.105635509,-0.001006251,-0.000252144,-0.000013250,-0.019022508,-0.065172851,9.753746033
1784241655.342144,-0.007007876,0.001470071,-0.105635509,-0.000783692,-0.000056663,-0.000223537,-0.010156765,-0.110216871,9.771400452
1784241655.344126,-0.007007876,0.001470071,-0.105635509,-0.000820583,-0.000000005,-0.000720507,-0.001177003,-0.070670605,9.801699638
1784241655.346128,-0.007007945,0.001469688,-0.105635516,-0.001066361,-0.000031355,-0.000595898,-0.027248278,-0.038383078,9.781706810
1784241655.348129,-0.007007945,0.001469688,-0.105635516,-0.001214017,-0.000416729,-0.000146055,0.015445637,-0.069504462,9.796792030
1784241655.350129,-0.007007945,0.001469688,-0.105635516,-0.001372872,-0.000514379,-0.000232603,0.003785821,-0.069304124,9.789608955
1784241655.352130,-0.007008084,0.001469088,-0.105635516,-0.001390576,0.000132951,-0.000219286,0.001189424,-0.059192270,9.821501732
1784241655.354137,-0.007008084,0.001469088,-0.105635516,-0.001115054,0.000721764,0.000712169,-0.023478167,-0.061220422,9.773045540
1784241655.356134,-0.007007499,0.001469692,-0.105635516,-0.000558581,0.000694458,0.001785888,-0.017469630,-0.042484354,9.836834908
1784241655.358133,-0.007007499,0.001469692,-0.105635516,-0.000298822,0.000358570,0.001519083,0.001793592,-0.049460154,9.774939537
1784241655.360131,-0.007007499,0.001469692,-0.105635516,-0.000289880,-0.000005412,0.000547540,-0.015004253,-0.063356802,9.806217194
1784241655.362137,-0.007006704,0.001469898,-0.105635516,-0.000210702,-0.000235465,-0.000141856,-0.005411774,-0.087974884,9.785446167
1784241655.364138,-0.007006704,0.001469898,-0.105635516,-0.000458640,-0.000150317,-0.000227960,-0.012793320,-0.067290008,9.788261414
1784241655.366136,-0.007006448,0.001470007,-0.105635516,-0.000533624,-0.000219185,0.000322515,-0.016681397,-0.054704897,9.789683342
1784241655.368138,-0.007006448,0.001470007,-0.105635516,-0.000481636,-0.000485277,0.000523926,-0.027759420,-0.044543862,9.766872406
1784241655.370212,-0.007006448,0.001470007,-0.105635516,-0.000836804,-0.000365355,0.000094118,-0.026768222,-0.072083868,9.794492722
1784241655.372149,-0.007006283,0.001470955,-0.105635509,-0.000823226,-0.000103040,0.000125399,-0.014547448,-0.064109035,9.785140991
1784241655.374151,-0.007006283,0.001470955,-0.105635509,-0.000358863,0.000387036,0.000493559,-0.022951955,-0.054535381,9.777124405
1784241655.376145,-0.007005669,0.001471105,-0.105635509,-0.000669829,0.000825152,0.000418196,-0.012885325,-0.074095279,9.800321579
1784241655.378149,-0.007005669,0.001471105,-0.105635509,-0.001187603,0.000879903,-0.000035781,-0.003271358,-0.056901328,9.822408676
1784241655.380151,-0.007005669,0.001471105,-0.105635509,-0.000766726,0.001075278,-0.000707349,0.005019384,-0.076288790,9.824535370
1784241655.382149,-0.007005399,0.001470625,-0.105635509,-0.000319450,0.000803437,-0.001415285,-0.016521556,-0.078875110,9.785941124
1784241655.384150,-0.007005399,0.001470625,-0.105635509,-0.000290748,-0.000024022,-0.001501744,-0.024905927,-0.103895605,9.791152954
1784241655.386154,-0.007006897,0.001471120,-0.105635509,0.000004966,-0.000218011,-0.001200978,-0.001848385,-0.087417483,9.826698303
1784241655.388152,-0.007006897,0.001471120,-0.105635509,0.000609719,0.000431204,-0.001428145,-0.010931765,-0.097081333,9.815868378
1784241655.390168,-0.007006897,0.001471120,-0.105635509,0.000632177,0.000675333,-0.001703884,-0.041522052,-0.065394133,9.825456619
1784241655.392164,-0.007006688,0.001472446,-0.105635494,0.000023852,0.000046851,-0.001404792,-0.003505032,-0.040203378,9.805927277
1784241655.394162,-0.007006688,0.001472446,-0.105635494,0.000069636,-0.000326709,-0.001113452,0.026848076,-0.054004535,9.801833153
1784241655.396161,-0.007005935,0.001471008,-0.105635509,0.000468605,-0.000207469,-0.000790142,-0.007706429,-0.053596824,9.806735039
1784241655.398161,-0.007005935,0.001471008,-0.105635509,0.000471302,-0.000026618,-0.000698963,-0.037497658,-0.033234242,9.769176483
1784241655.400163,-0.007005935,0.001471008,-0.105635509,0.000418361,-0.000053503,-0.001084805,-0.016567755,-0.046107780,9.777631760
1784241655.402170,-0.007005299,0.001471155,-0.105635509,0.000668455,-0.000077751,-0.001112730,-0.020575058,-0.042974368,9.785270691
1784241655.404174,-0.007005299,0.001471155,-0.105635509,0.000832934,-0.000041780,-0.001042543,-0.011665235,-0.049675234,9.766407013
1784241655.406173,-0.007004955,0.001470621,-0.105635516,0.000356355,-0.000008592,-0.001082580,-0.022327866,-0.076157115,9.792229652
1784241655.408170,-0.007004955,0.001470621,-0.105635516,-0.000168546,0.000340380,-0.000929701,0.002352878,-0.078077570,9.765789032
1784241655.410173,-0.007004955,0.001470621,-0.105635516,-0.000080155,0.000678858,-0.000708803,-0.003139434,-0.085344471,9.789499283
1784241655.412172,-0.007006084,0.001470257,-0.105635516,0.000253304,0.000707098,-0.000638928,-0.019337937,-0.051957197,9.786110878
1784241655.414179,-0.007006084,0.001470257,-0.105635516,0.000369715,0.000694142,-0.000768931,-0.009301635,-0.075809106,9.782829285
1784241655.416182,-0.007006579,0.001470191,-0.105635509,0.000167958,0.000922227,-0.000934976,-0.015946651,-0.065321565,9.832206726
1784241655.418174,-0.007006579,0.001470191,-0.105635509,-0.000087043,0.001178216,-0.000838988,0.018781785,-0.089788206,9.807872772
1784241655.420181,-0.007006579,0.001470191,-0.105635509,0.000067623,0.001073155,-0.000788197,0.014171403,-0.062840939,9.807146072
1784241655.422180,-0.007005836,0.001469343,-0.105635516,0.000321880,0.000619764,-0.001186314,-0.000806389,-0.077776968,9.792241096
1784241655.424192,-0.007005836,0.001469343,-0.105635516,0.000486014,-0.000050512,-0.001767095,-0.029687775,-0.053680405,9.795057297
1784241655.426210,-0.007005104,0.001469876,-0.105635516,0.000746965,-0.000653633,-0.001324116,-0.002328790,-0.054529939,9.802249908
1784241655.428189,-0.007005104,0.001469876,-0.105635516,0.000937667,-0.000846442,-0.000115497,0.006599328,-0.095434211,9.804687500
1784241655.430194,-0.007005104,0.001469876,-0.105635516,0.000754695,-0.000676891,0.000675926,-0.010918301,-0.096569784,9.806904793
1784241655.432192,-0.007005523,0.001469476,-0.105635516,0.000100827,-0.000223222,0.001163223,-0.022518955,-0.054665137,9.794609070
1784241655.434195,-0.007005523,0.001469476,-0.105635516,-0.000503903,-0.000158566,0.001065233,-0.031434767,-0.048822042,9.808088303
1784241655.436196,-0.007004608,0.001469791,-0.105635516,-0.000262517,-0.000639356,0.000757317,-0.028335968,-0.051626366,9.818831444
1784241655.438192,-0.007004608,0.001469791,-0.105635516,0.000601730,-0.000783473,0.000932385,-0.000232017,-0.068280146,9.778851509
1784241655.440199,-0.007004608,0.001469791,-0.105635516,0.001216214,-0.000688203,0.000718028,-0.047153220,-0.051972393,9.775323868
1784241655.442230,-0.007003901,0.001470455,-0.105635516,0.001394471,-0.000558799,0.000056327,-0.033752345,-0.058698948,9.751980782
1784241655.444223,-0.007003901,0.001470455,-0.105635516,0.001183030,-0.000210188,-0.000208219,-0.017115993,-0.051751014,9.816151619
1784241655.446210,-0.007003169,0.001470402,-0.105635516,0.000609986,-0.000152359,0.000030547,-0.002032572,-0.066681512,9.809346199
1784241655.448210,-0.007003169,0.001470402,-0.105635516,0.000023884,-0.000718614,-0.000088001,-0.024537852,-0.112237729,9.766440392
1784241655.450213,-0.007003169,0.001470402,-0.105635516,-0.000220972,-0.001007205,-0.000155330,-0.041146379,-0.072865769,9.804337502
1784241655.452212,-0.007003414,0.001471418,-0.105635509,-0.000144962,-0.000954401,0.000483460,-0.017321305,-0.069176987,9.809763908
1784241655.454221,-0.007003414,0.001471418,-0.105635509,0.000074404,-0.000861933,0.000660544,0.009477926,-0.078192189,9.832147598
1784241655.456212,-0.007003958,0.001470802,-0.105635516,0.000184849,-0.000484068,0.000141334,-0.025897341,-0.073115289,9.811972618
1784241655.458218,-0.007003958,0.001470802,-0.105635516,0.000068059,-0.000080013,-0.000344812,-0.025143847,-0.049236029,9.791951180
1784241655.460217,-0.007003958,0.001470802,-0.105635516,-0.000438501,-0.000233090,-0.000377194,-0.027994931,-0.062208299,9.794107437
1784241655.462250,-0.007004089,0.001470650,-0.105635516,-0.000814417,-0.000817159,0.000354749,-0.006538637,-0.033237033,9.776827812
1784241655.464228,-0.007004089,0.001470650,-0.105635516,-0.000327010,-0.000983413,0.001305807,0.001617349,-0.061793581,9.808485031
1784241655.466219,-0.007004323,0.001470055,-0.105635516,0.000034930,-0.000614528,0.001333466,-0.008587723,-0.053458139,9.788801193
1784241655.468220,-0.007004323,0.001470055,-0.105635516,0.000082865,-0.000375377,0.000685192,-0.011431910,-0.067186430,9.771225929
1784241655.470220,-0.007004323,0.001470055,-0.105635516,0.000313104,-0.000492357,0.000392136,0.001888375,-0.038985711,9.814010620
1784241655.472224,-0.007003423,0.001469338,-0.105635516,0.000207950,-0.000648956,0.000556905,0.002625282,-0.089606665,9.811445236
1784241655.474228,-0.007003423,0.001469338,-0.105635516,-0.000332564,-0.000217283,0.000552879,-0.034018125,-0.078628637,9.782787323
1784241655.476227,-0.007003799,0.001470199,-0.105635516,-0.000431184,0.000651536,0.000625710,-0.014094086,-0.064483248,9.773930550
1784241655.478224,-0.007003799,0.001470199,-0.105635516,-0.000056658,0.000862790,0.001146474,-0.010466363,-0.024206996,9.774192810
1784241655.480233,-0.007003799,0.001470199,-0.105635516,-0.000094479,0.000644045,0.001198342,-0.007556988,-0.041069806,9.809056282
1784241655.482233,-0.007002922,0.001469745,-0.105635516,-0.000174816,0.000506469,0.000712663,0.002668836,-0.087236494,9.793078423
1784241655.484233,-0.007002922,0.001469745,-0.105635516,-0.000070019,0.000441038,0.000269045,-0.013926638,-0.084946133,9.815942764
1784241655.486233,-0.007003384,0.001469981,-0.105635516,0.000044606,0.000573394,-0.000125269,-0.008419359,-0.075534806,9.805696487
1784241655.488235,-0.007003384,0.001469981,-0.105635516,0.000724638,0.000733164,-0.000050186,-0.013354107,-0.075058579,9.810626984
1784241655.490238,-0.007003384,0.001469981,-0.105635516,0.001503150,0.000375757,0.000453616,-0.023843938,-0.051239073,9.819288254
1784241655.492248,-0.007002963,0.001469818,-0.105635516,0.001526305,-0.000022850,0.000837048,-0.021795550,-0.067397609,9.819634438
1784241655.494250,-0.007002963,0.001469818,-0.105635516,0.001005215,-0.000016122,0.000575621,-0.021395650,-0.072651699,9.801667213
1784241655.496240,-0.007003134,0.001470234,-0.105635516,0.000682444,0.000204821,0.000278157,-0.015338927,-0.092340723,9.787199974
1784241655.498245,-0.007003134,0.001470234,-0.105635516,0.000628207,0.000486610,0.000585921,0.001313926,-0.088099279,9.790830612
1784241655.500248,-0.007003134,0.001470234,-0.105635516,-0.000083749,0.000445159,0.001132613,-0.004100756,-0.052705556,9.800915718
1784241655.502245,-0.007002822,0.001470146,-0.105635516,-0.001216254,0.000476244,0.001421928,0.023226757,-0.055829883,9.813027382
1784241655.504246,-0.007002822,0.001470146,-0.105635516,-0.001982979,0.000736123,0.001002291,-0.022572011,-0.094294965,9.823048592
1784241655.506247,-0.007004057,0.001470521,-0.105635516,-0.001874393,0.000686141,0.000389437,-0.042890154,-0.070818812,9.771619797
1784241655.508246,-0.007004057,0.001470521,-0.105635516,-0.001256136,0.000338152,-0.000094004,-0.042502891,-0.073741265,9.803882599
1784241655.510248,-0.007004057,0.001470521,-0.105635516,-0.000805309,0.000120750,-0.000464036,-0.006416084,-0.060133170,9.778448105
1784241655.512252,-0.007003638,0.001470725,-0.105635516,-0.000455018,0.000374350,-0.000442441,-0.006919399,-0.100580044,9.796571732
1784241655.514255,-0.007003638,0.001470725,-0.105635516,-0.000236448,0.000505823,-0.000481220,-0.034484077,-0.076732837,9.832116127
1784241655.516262,-0.007004010,0.001471479,-0.105635509,-0.000285168,-0.000311902,-0.000875926,-0.016141266,-0.083068311,9.807882309
1784241655.518261,-0.007004010,0.001471479,-0.105635509,-0.000739560,-0.001190966,-0.001183762,0.006145282,-0.059096530,9.799091339
1784241655.520261,-0.007004010,0.001471479,-0.105635509,-0.000828208,-0.001097662,-0.001132766,0.000563314,-0.075176395,9.802122116
1784241655.522266,-0.007004164,0.001470662,-0.105635516,-0.000402025,-0.000765769,-0.000967004,-0.018417861,-0.085327074,9.814591408
1784241655.524269,-0.007004164,0.001470662,-0.105635516,-0.000366817,-0.000916450,-0.000939131,-0.030659294,-0.094680771,9.828865051
1784241655.526265,-0.007005176,0.001470922,-0.105635509,-0.000234946,-0.001173129,-0.000630647,-0.028366363,-0.092698283,9.797945976
1784241655.528270,-0.007005176,0.001470922,-0.105635509,-0.000134765,-0.000999624,-0.000494163,-0.027369061,-0.083410695,9.813250542
1784241655.530265,-0.007005176,0.001470922,-0.105635509,-0.000511533,-0.000740170,-0.000755746,-0.011224694,-0.048124421,9.799593925
1784241655.532268,-0.007004771,0.001470403,-0.105635516,-0.000388609,-0.000486327,-0.000475966,0.021301502,-0.031404559,9.784039497
1784241655.534267,-0.007004771,0.001470403,-0.105635516,0.000207592,-0.000200754,0.000036097,-0.001711309,-0.039019212,9.825216293
1784241655.536267,-0.007004125,0.001470350,-0.105635516,0.000152958,-0.000199561,-0.000224613,-0.047288377,-0.061144646,9.805303574
1784241655.538267,-0.007004125,0.001470350,-0.105635516,-0.000225819,0.000044043,-0.001244107,-0.065598808,-0.054148186,9.799501419
1784241655.540270,-0.007004125,0.001470350,-0.105635516,-0.000139821,0.000323497,-0.001642670,-0.024560375,-0.037235856,9.804581642
1784241655.542290,-0.007003373,0.001471095,-0.105635516,0.000279557,0.000230815,-0.001212031,0.000779204,-0.059287898,9.772633553
1784241655.544282,-0.007003373,0.001471095,-0.105635516,0.000732089,0.000342811,-0.001077599,0.004719129,-0.101758979,9.815403938
1784241655.546276,-0.007004597,0.001470566,-0.105635516,0.001226505,0.000532831,-0.001339837,-0.023745446,-0.082782969,9.781426430
1784241655.548279,-0.007004597,0.001470566,-0.105635516,0.001585401,0.000650506,-0.001079696,0.001228428,-0.058073774,9.790125847
1784241655.550279,-0.007004597,0.001470566,-0.105635516,0.001213425,0.000741400,-0.000620388,0.021733508,-0.069537260,9.790072441
1784241655.552278,-0.007004804,0.001468862,-0.105635524,0.000906223,0.000685332,-0.000828079,-0.003147084,-0.085404895,9.798015594
1784241655.554289,-0.007004804,0.001468862,-0.105635524,0.001280153,0.000728369,-0.001032119,-0.007655123,-0.125129476,9.784755707
1784241655.556288,-0.007006800,0.001468417,-0.105635524,0.001427905,0.001010951,-0.000836573,-0.023433404,-0.093593836,9.788978577
1784241655.558289,-0.007006800,0.001468417,-0.105635524,0.001173090,0.001043493,-0.001146957,-0.044998832,-0.056757383,9.814300537
1784241655.560291,-0.007006800,0.001468417,-0.105635524,0.000545542,0.000316440,-0.001450161,-0.007683125,-0.052602336,9.792843819
1784241655.562291,-0.007006414,0.001468404,-0.105635524,-0.000110710,-0.000176615,-0.001418429,-0.005347381,-0.080982395,9.810149193
1784241655.564300,-0.007006414,0.001468404,-0.105635524,-0.000002252,0.000195843,-0.001390304,-0.011747511,-0.089130528,9.833403587
1784241655.566292,-0.007006754,0.001468012,-0.105635524,0.000454493,0.000405673,-0.000809952,-0.009927913,-0.089363016,9.799777985
1784241655.568292,-0.007006754,0.001468012,-0.105635524,0.000335937,0.000635173,-0.000351358,-0.029330503,-0.060081612,9.812500954
1784241655.570298,-0.007006754,0.001468012,-0.105635524,-0.000577506,0.001155477,-0.000377659,-0.013515222,-0.052924681,9.785661697
1784241655.572308,-0.007006459,0.001467860,-0.105635531,-0.000995505,0.001027315,-0.000308994,-0.007523044,-0.039586019,9.789339066
1784241655.574306,-0.007006459,0.001467860,-0.105635531,-0.000110655,0.000578698,-0.000186854,-0.016645774,-0.051181618,9.798223495
1784241655.576301,-0.007005870,0.001468367,-0.105635524,0.000518255,0.000398151,-0.000440071,0.001569812,-0.067842454,9.777063370
1784241655.578344,-0.007005870,0.001468367,-0.105635524,0.000558225,0.000002585,-0.000861345,0.001070427,-0.069047414,9.821439743
1784241655.580322,-0.007005870,0.001468367,-0.105635524,0.000927709,-0.000594795,-0.001241629,0.003246724,-0.076090917,9.799876213
1784241655.582311,-0.007006356,0.001467091,-0.105635531,0.001308406,-0.000795865,-0.001733802,-0.014950862,-0.060503691,9.782921791
1784241655.584334,-0.007006356,0.001467091,-0.105635531,0.001280921,-0.000565057,-0.001440861,-0.020894762,-0.069813877,9.779718399
1784241655.586317,-0.007006680,0.001467749,-0.105635531,0.001152378,-0.000325852,-0.000884250,-0.005252382,-0.073748246,9.800780296
1784241655.588313,-0.007006680,0.001467749,-0.105635531,0.001078354,-0.000060370,-0.000712898,-0.003271882,-0.058121208,9.804917336
1784241655.590319,-0.007006680,0.001467749,-0.105635531,0.000661715,0.000029056,-0.000607277,0.022416338,-0.087047867,9.793996811
1784241655.592316,-0.007007520,0.001465705,-0.105635539,0.000174872,-0.000207815,-0.000857240,-0.000440255,-0.084108219,9.799821854
1784241655.594319,-0.007007520,0.001465705,-0.105635539,-0.000178730,-0.000150159,-0.000424290,-0.033112954,-0.077363014,9.792212486
1784241655.596320,-0.007007983,0.001466993,-0.105635531,0.000051858,-0.000078307,0.000036466,-0.029691938,-0.092518866,9.775080681
1784241655.598327,-0.007007983,0.001466993,-0.105635531,0.000582816,-0.000026336,-0.000204961,-0.001501865,-0.057934724,9.838543892
1784241655.600321,-0.007007983,0.001466993,-0.105635531,0.000175465,0.000128526,-0.000453655,-0.020157898,-0.082034796,9.795780182
1784241655.602322,-0.007008645,0.001467173,-0.105635531,-0.000632467,-0.000203348,-0.000602013,-0.000097479,-0.055870775,9.797760963
1784241655.604328,-0.007008645,0.001467173,-0.105635531,-0.000989019,-0.000647822,-0.000349814,-0.012390642,-0.068874948,9.821428299
1784241655.606330,-0.007008323,0.001466849,-0.105635531,-0.000631706,-0.000709721,0.000071023,0.003224751,-0.075859159,9.830364227
1784241655.608325,-0.007008323,0.001466849,-0.105635531,0.000081442,-0.000687478,0.000342590,-0.039632641,-0.058186155,9.816537857
1784241655.610330,-0.007008323,0.001466849,-0.105635531,0.000184013,-0.000774663,0.000521133,-0.000276027,-0.035090294,9.774132729
1784241655.612332,-0.007006811,0.001466464,-0.105635531,-0.000083017,-0.000672499,0.000651580,-0.014134821,-0.066831157,9.789157867
1784241655.614330,-0.007006811,0.001466464,-0.105635531,0.000107036,-0.000117128,0.000894314,-0.034168877,-0.089545034,9.806030273
1784241655.616330,-0.007007844,0.001467375,-0.105635531,0.000622944,0.000067726,0.001016363,-0.024259336,-0.086939238,9.799779892
1784241655.618335,-0.007007844,0.001467375,-0.105635531,0.000738543,-0.000530556,0.000739742,-0.038713723,-0.092375629,9.834253311
1784241655.620337,-0.007007844,0.001467375,-0.105635531,0.000500490,-0.000674826,0.000521287,-0.004142885,-0.093059599,9.805140495
1784241655.622341,-0.007008791,0.001467254,-0.105635531,0.000515268,0.000007022,0.000854227,-0.015196108,-0.080271214,9.790863991
1784241655.624339,-0.007008791,0.001467254,-0.105635531,0.000254736,0.000488888,0.001060152,0.000583849,-0.075014234,9.779256821
1784241655.626338,-0.007008745,0.001467398,-0.105635531,-0.000554888,0.000325958,0.000989697,-0.016591240,-0.085098870,9.779176712
1784241655.628341,-0.007008745,0.001467398,-0.105635531,-0.000855250,0.000274591,0.001191932,-0.030012015,-0.078934737,9.818655968
1784241655.630342,-0.007008745,0.001467398,-0.105635531,-0.000615968,0.000772871,0.001234659,0.016597709,-0.086858653,9.777851105
1784241655.632342,-0.007009030,0.001466809,-0.105635531,-0.000515031,0.000976432,0.000975951,0.011793984,-0.075621828,9.781504631
1784241655.634353,-0.007009030,0.001466809,-0.105635531,-0.000787843,0.000823690,0.000586688,-0.006237187,-0.045347277,9.778095245
1784241655.636348,-0.007007864,0.001466382,-0.105635531,-0.001020078,0.000947101,0.000250213,-0.000177526,-0.063797347,9.778431892
1784241655.638349,-0.007007864,0.001466382,-0.105635531,-0.000593224,0.000941578,-0.000156956,-0.004198011,-0.097142138,9.812287331
1784241655.640352,-0.007007864,0.001466382,-0.105635531,-0.000141920,0.000575062,-0.000292906,-0.014018424,-0.094991691,9.779562950
1784241655.642394,-0.007008813,0.001466232,-0.105635531,-0.000340836,0.000200108,0.000527259,-0.018881071,-0.088272631,9.788568497
1784241655.644378,-0.007008813,0.001466232,-0.105635531,-0.000539699,-0.000089242,0.000925995,0.000686338,-0.065289453,9.797701836
1784241655.646390,-0.007008209,0.001465348,-0.105635531,-0.000265204,-0.000313033,-0.000335392,-0.017565450,-0.052561700,9.804939270
1784241655.648367,-0.007008209,0.001465348,-0.105635531,-0.000282212,-0.000456277,-0.001164275,-0.006412852,-0.057270888,9.817024231
1784241655.650364,-0.007008209,0.001465348,-0.105635531,-0.000513531,-0.000475800,-0.000540459,-0.001335232,-0.046487678,9.803648949
1784241655.652364,-0.007007592,0.001464469,-0.105635539,-0.000462234,-0.000205069,0.000024232,-0.032870565,-0.019217713,9.806034088
1784241655.654373,-0.007007592,0.001464469,-0.105635539,-0.000206418,0.000116127,0.000382485,-0.044773277,-0.040792573,9.774052620
1784241655.656373,-0.007006841,0.001465428,-0.105635539,0.000515735,-0.000197520,0.000948150,-0.028981127,-0.071813472,9.760419846
1784241655.658376,-0.007006841,0.001465428,-0.105635539,0.000840410,-0.000692828,0.001195958,-0.027729787,-0.076631479,9.805671692
1784241655.660372,-0.007006841,0.001465428,-0.105635539,0.000324556,-0.000520245,0.000836706,-0.016532144,-0.080174483,9.779656410
1784241655.662376,-0.007007604,0.001465281,-0.105635539,-0.000333053,0.000187592,0.000072339,-0.005725603,-0.077583350,9.773855209
1784241655.664379,-0.007007604,0.001465281,-0.105635539,-0.000774614,0.000846280,-0.000393378,-0.019167678,-0.075234666,9.782823563
1784241655.666374,-0.007007718,0.001465857,-0.105635531,-0.001030665,0.000835788,-0.000139566,-0.034441847,-0.075588912,9.797153473
1784241655.668375,-0.007007718,0.001465857,-0.105635531,-0.001129419,0.000557986,-0.000082396,-0.040212717,-0.069754265,9.806152344
1784241655.670375,-0.007007718,0.001465857,-0.105635531,-0.000965310,0.000373168,-0.000383259,-0.018934531,-0.093152508,9.781812668
1784241655.672385,-0.007008004,0.001467056,-0.105635531,-0.000628978,0.000200747,-0.000692560,0.007949688,-0.095823124,9.793926239
1784241655.674384,-0.007008004,0.001467056,-0.105635531,-0.000401960,0.000180563,-0.000466028,0.002110532,-0.058206100,9.807163239
1784241655.676384,-0.007007204,0.001466498,-0.105635531,-0.000510305,0.000004825,0.000022598,-0.021398239,-0.073077403,9.798526764
1784241655.678439,-0.007007204,0.001466498,-0.105635531,-0.000988342,-0.000279892,0.000214584,-0.024773287,-0.055532310,9.794600487
1784241655.680401,-0.007007204,0.001466498,-0.105635531,-0.001352242,-0.000200920,0.000644843,-0.002501594,-0.070078216,9.783769608
1784241655.682481,-0.007007194,0.001465845,-0.105635531,-0.000910793,-0.000059795,0.000761301,-0.034968868,-0.082280315,9.793972015
1784241655.684487,-0.007007194,0.001465845,-0.105635531,-0.000448526,-0.000511166,-0.000023211,-0.037132520,-0.077568464,9.765306473
1784241655.686480,-0.007007570,0.001467231,-0.105635524,-0.000239062,-0.000910498,-0.000613368,-0.019760050,-0.048904750,9.798683167
1784241655.688481,-0.007007570,0.001467231,-0.105635524,0.000406281,-0.000582393,-0.000118416,-0.008122848,-0.051309925,9.800921440
1784241655.690419,-0.007007570,0.001467231,-0.105635524,0.000500226,0.000072120,0.000659060,-0.009779974,-0.078468867,9.779673576
1784241655.692420,-0.007008367,0.001467027,-0.105635524,-0.000194328,0.000180277,0.001041658,-0.019112546,-0.068315305,9.817837715
1784241655.694415,-0.007008367,0.001467027,-0.105635524,-0.000521265,0.000095144,0.001319749,-0.009103065,-0.060057342,9.772619247
1784241655.696411,-0.007007904,0.001466751,-0.105635524,-0.000373919,0.000498941,0.001200610,-0.020863974,-0.066328757,9.793638229
1784241655.698413,-0.007007904,0.001466751,-0.105635524,-0.000157515,0.000740917,0.000626302,0.017880997,-0.052618802,9.812145233
1784241655.700420,-0.007007904,0.001466751,-0.105635524,-0.000019072,0.000809517,0.000189242,-0.052340563,-0.069700785,9.820487022
1784241655.702417,-0.007007709,0.001467866,-0.105635509,0.000263505,0.000982420,0.000052341,-0.050153729,-0.074634843,9.817318916
1784241655.704420,-0.007007709,0.001467866,-0.105635509,0.000487526,0.001108403,-0.000083465,-0.025439553,-0.073454536,9.795830727
1784241655.706427,-0.007007917,0.001468936,-0.105635501,0.000466462,0.000948298,0.000122787,-0.030895384,-0.078001902,9.815073967
1784241655.708424,-0.007007917,0.001468936,-0.105635501,0.000504359,0.000758539,0.000362975,0.023494830,-0.071850941,9.797232628
1784241655.710423,-0.007007917,0.001468936,-0.105635501,0.000315125,0.000535410,0.000085837,0.000653776,-0.031603955,9.786260605
1784241655.712425,-0.007005737,0.001467901,-0.105635516,-0.000169811,0.000104957,0.000152678,-0.009992231,-0.056738783,9.811644554
1784241655.714424,-0.007005737,0.001467901,-0.105635516,0.000069570,-0.000487658,0.000634001,0.017491728,-0.084465377,9.817769051
1784241655.716426,-0.007006340,0.001466218,-0.105635524,0.000499905,-0.000722370,0.000697315,-0.037994117,-0.070790224,9.821839333
1784241655.718425,-0.007006340,0.001466218,-0.105635524,-0.000046933,-0.000252448,0.000474866,-0.036725588,-0.079525031,9.787711143
1784241655.720428,-0.007006340,0.001466218,-0.105635524,-0.000659587,0.000326518,0.000259636,-0.021983720,-0.085093476,9.788138390
1784241655.722436,-0.007006940,0.001466175,-0.105635524,-0.000419773,0.000651116,0.000067289,-0.015559525,-0.072297558,9.804365158
1784241655.724435,-0.007006940,0.001466175,-0.105635524,0.000056731,0.000450134,0.000286244,0.010011083,-0.075910069,9.762223244
1784241655.726434,-0.007007531,0.001464790,-0.105635531,-0.000102362,0.000309178,0.000444977,-0.006562235,-0.070607975,9.802593231
1784241655.728432,-0.007007531,0.001464790,-0.105635531,-0.000248568,0.000641789,0.000075590,-0.003697284,-0.057120964,9.791025162
1784241655.730437,-0.007007531,0.001464790,-0.105635531,0.000186371,0.000788369,-0.000211229,-0.025368607,-0.068031326,9.789141655
1784241655.732436,-0.007007671,0.001465028,-0.105635531,0.000481696,0.000589064,-0.000367758,-0.021976059,-0.082196206,9.821782112
1784241655.734443,-0.007007671,0.001465028,-0.105635531,0.000388817,0.000392975,-0.000446457,-0.009292658,-0.074522465,9.790907860
1784241655.736438,-0.007007477,0.001465480,-0.105635531,0.000554172,0.000084958,-0.000396027,-0.025426764,-0.034142684,9.812222481
1784241655.738440,-0.007007477,0.001465480,-0.105635531,0.001053497,-0.000268071,-0.000594078,-0.013490418,-0.050297324,9.794197083
1784241655.740442,-0.007007477,0.001465480,-0.105635531,0.001620995,-0.000042463,-0.000572876,-0.004306925,-0.069327809,9.807534218
1784241655.742473,-0.007007780,0.001465117,-0.105635531,0.001640737,0.000556566,-0.000302909,-0.002903225,-0.066053532,9.785587311
1784241655.744456,-0.007007780,0.001465117,-0.105635531,0.000960394,0.000280696,-0.000147417,0.014488223,-0.038050454,9.785783768
1784241655.746455,-0.007006107,0.001463532,-0.105635546,0.000224305,-0.000474105,-0.000290336,-0.016974339,-0.078091085,9.802534103
1784241655.748451,-0.007006107,0.001463532,-0.105635546,-0.000268012,-0.000409593,-0.000860305,-0.048063979,-0.088845707,9.795709610
1784241655.750457,-0.007006107,0.001463532,-0.105635546,-0.000203644,0.000281256,-0.001343469,-0.037599854,-0.076088831,9.810149193
1784241655.752452,-0.007006667,0.001464880,-0.105635531,0.000078623,0.000887887,-0.001351515,-0.019599283,-0.071851909,9.811985970
1784241655.754456,-0.007006667,0.001464880,-0.105635531,-0.000393111,0.000633043,-0.001019350,0.009816652,-0.090413332,9.785892487
1784241655.756461,-0.007007415,0.001463544,-0.105635539,-0.000796307,-0.000143062,-0.001250103,0.005945728,-0.075261295,9.804368019
1784241655.758460,-0.007007415,0.001463544,-0.105635539,-0.000057538,-0.000522031,-0.001343318,-0.006455099,-0.064088508,9.767663002
1784241655.760461,-0.007007415,0.001463544,-0.105635539,0.000409320,-0.000479771,-0.000362558,-0.021670979,-0.059524707,9.783370018
1784241655.762465,-0.007006555,0.001463483,-0.105635546,-0.000173967,-0.000547467,0.000422106,-0.015948392,-0.069387823,9.773897171
1784241655.764471,-0.007006555,0.001463483,-0.105635546,-0.000777533,-0.000466870,0.000669233,-0.018154845,-0.066229708,9.774812698
1784241655.766470,-0.007006442,0.001464341,-0.105635539,-0.000778489,-0.000033021,0.000545169,-0.035659697,-0.065643378,9.786904335
1784241655.768470,-0.007006442,0.001464341,-0.105635539,-0.000761839,0.000105954,-0.000051620,-0.014965883,-0.061838038,9.781569481
1784241655.770466,-0.007006442,0.001464341,-0.105635539,-0.000662521,-0.000011948,-0.000126421,-0.030126754,-0.051571570,9.814347267
1784241655.772472,-0.007005942,0.001465412,-0.105635539,-0.000083452,0.000055481,0.000344249,-0.014416936,-0.051731467,9.808534622
1784241655.774477,-0.007005942,0.001465412,-0.105635539,0.000537181,0.000032233,0.000398211,0.014579075,-0.066817924,9.798601151
1784241655.776470,-0.007005789,0.001463627,-0.105635546,0.000464769,-0.000067162,0.000129348,-0.011443051,-0.028468797,9.808238029
1784241655.778471,-0.007005789,0.001463627,-0.105635546,-0.000076081,-0.000134197,-0.000085313,-0.016098099,-0.043111347,9.796482086
1784241655.780482,-0.007005789,0.001463627,-0.105635546,-0.000523952,-0.000199011,-0.000476539,-0.005427925,-0.049702026,9.822005272
1784241655.782491,-0.007004733,0.001463522,-0.105635546,-0.000881830,0.000115757,-0.001030355,0.010315311,-0.084351130,9.814623833
1784241655.784485,-0.007004733,0.001463522,-0.105635546,-0.001014060,0.000646122,-0.000854264,-0.002074984,-0.071068913,9.796315193
1784241655.786480,-0.007005359,0.001462998,-0.105635546,-0.000954351,0.000593733,0.000102204,0.010497549,-0.068323106,9.828626633
1784241655.788487,-0.007005359,0.001462998,-0.105635546,-0.000952599,-0.000018297,0.000524939,-0.016047876,-0.075846881,9.800308228
1784241655.790491,-0.007005359,0.001462998,-0.105635546,-0.000928300,-0.000206768,-0.000086274,-0.027695892,-0.074337609,9.798064232
1784241655.792484,-0.007005262,0.001463708,-0.105635546,-0.000872185,-0.000198717,-0.000819495,-0.001873644,-0.054484811,9.795079231
1784241655.794486,-0.007005262,0.001463708,-0.105635546,-0.001018797,-0.000645459,-0.000598282,-0.029964318,-0.075316086,9.813747406
1784241655.796511,-0.007005600,0.001464621,-0.105635546,-0.000726410,-0.000673983,0.000341386,-0.026068574,-0.050250813,9.810325623
1784241655.798496,-0.007005600,0.001464621,-0.105635546,-0.000015000,0.000236155,0.000977747,0.008380674,-0.061215635,9.778007507
1784241655.800493,-0.007005600,0.001464621,-0.105635546,0.000158297,0.000741681,0.001313541,0.016688114,-0.077229269,9.809744835
1784241655.802493,-0.007005744,0.001463517,-0.105635561,-0.000318119,0.000558475,0.001554133,0.006341844,-0.043360651,9.791122437
1784241655.804499,-0.007005744,0.001463517,-0.105635561,-0.001133533,0.000521938,0.001422317,-0.019414583,-0.059451707,9.769025803
1784241655.806500,-0.007005136,0.001463777,-0.105635561,-0.001634337,0.000606518,0.000641090,-0.032835711,-0.054100838,9.796844482
1784241655.808497,-0.007005136,0.001463777,-0.105635561,-0.001458087,0.000518970,-0.000036309,-0.015297668,-0.088772945,9.789465904
1784241655.810502,-0.007005136,0.001463777,-0.105635561,-0.001079030,0.000323728,-0.000078825,-0.026508257,-0.087358452,9.799775124
1784241655.812505,-0.007006126,0.001464177,-0.105635546,-0.000769290,-0.000000408,0.000141967,-0.023676567,-0.076565571,9.789087296
1784241655.814508,-0.007006126,0.001464177,-0.105635546,-0.000416875,-0.000237350,0.000212750,-0.015454516,-0.064173840,9.795899391
1784241655.816506,-0.007005299,0.001464204,-0.105635546,0.000045857,0.000148560,-0.000183541,0.013243547,-0.103091285,9.798367500
1784241655.818503,-0.007005299,0.001464204,-0.105635546,0.000202745,0.000450631,-0.000634872,-0.013460511,-0.086435296,9.772445679
1784241655.820506,-0.007005299,0.001464204,-0.105635546,0.000366203,0.000307183,-0.000478209,0.016646279,-0.081206866,9.802097321
1784241655.822505,-0.007005534,0.001463233,-0.105635561,0.000828786,0.000268983,-0.000038235,-0.013617470,-0.060216065,9.803100586
1784241655.824508,-0.007005534,0.001463233,-0.105635561,0.000660462,0.000318932,0.000227757,-0.011873190,-0.101469949,9.804630280
1784241655.826507,-0.007008163,0.001462137,-0.105635561,0.000249717,0.000448864,0.000349386,0.006932267,-0.067679703,9.807556152
1784241655.828516,-0.007008163,0.001462137,-0.105635561,0.000151748,0.000792452,0.000584112,-0.011346684,-0.058408454,9.796836853
1784241655.830516,-0.007008163,0.001462137,-0.105635561,0.000293819,0.000786468,0.001078952,-0.002870824,-0.062555701,9.797714233
1784241655.832534,-0.007008155,0.001460915,-0.105635576,0.000680522,0.000203524,0.001364456,-0.005632942,-0.030751549,9.803745270
1784241655.834522,-0.007008155,0.001460915,-0.105635576,0.001143804,-0.000186108,0.001410460,-0.006267159,-0.045989193,9.805439949
1784241655.836591,-0.007007941,0.001459672,-0.105635583,0.001541693,0.000000143,0.000995394,-0.004589052,-0.057064958,9.784747124
1784241655.838547,-0.007007941,0.001459672,-0.105635583,0.001367271,0.000663140,0.000641067,-0.002712487,-0.088358775,9.771546364
1784241655.840562,-0.007007941,0.001459672,-0.105635583,0.001186337,0.001200152,0.000473418,-0.015443239,-0.064084798,9.783347130
1784241655.842549,-0.007008924,0.001459957,-0.105635583,0.001303525,0.001123130,-0.000048065,0.019793868,-0.046846554,9.753005028
1784241655.844546,-0.007008924,0.001459957,-0.105635583,0.001491067,0.000507279,-0.000322605,-0.006931600,-0.101892121,9.792078018
1784241655.846565,-0.007010298,0.001459828,-0.105635583,0.001572997,0.000005563,-0.000577143,-0.025765754,-0.099534862,9.809561729
1784241655.848540,-0.007010298,0.001459828,-0.105635583,0.001292228,-0.000050939,-0.000653080,-0.025383865,-0.106552176,9.787548065
1784241655.850538,-0.007010298,0.001459828,-0.105635583,0.000888532,0.000031836,-0.000022056,-0.011043272,-0.069692723,9.807972908
1784241655.852546,-0.007010587,0.001459647,-0.105635583,0.000412654,0.000021546,0.000527215,-0.003276715,-0.058159363,9.810296059
1784241655.854545,-0.007010587,0.001459647,-0.105635583,0.000283305,-0.000074858,0.000367597,-0.032017883,-0.060008962,9.807118416
1784241655.856538,-0.007010251,0.001460914,-0.105635568,0.000333841,-0.000181318,0.000034723,-0.016619481,-0.049758244,9.787024498
1784241655.858536,-0.007010251,0.001460914,-0.105635568,0.000112844,-0.000635625,0.000042445,0.000575221,-0.075487629,9.782841682
1784241655.860542,-0.007010251,0.001460914,-0.105635568,0.000081417,-0.000662768,0.000176331,-0.042210519,-0.013174918,9.792165756
1784241655.862540,-0.007007692,0.001461709,-0.105635568,0.000030488,0.000021057,0.000061120,-0.030684901,-0.062561356,9.785583496
1784241655.864547,-0.007007692,0.001461709,-0.105635568,0.000027772,0.000269293,-0.000421288,-0.010096381,-0.065666206,9.807103157
1784241655.866540,-0.007007831,0.001461175,-0.105635568,0.000147561,0.000034060,-0.000648479,-0.013266705,-0.068694919,9.797665596
1784241655.868545,-0.007007831,0.001461175,-0.105635568,-0.000037881,-0.000243244,-0.000670594,-0.034170661,-0.089964382,9.801993370
1784241655.870629,-0.007007831,0.001461175,-0.105635568,-0.000098188,-0.000194740,-0.000576879,-0.009874856,-0.084486321,9.806982994
1784241655.872554,-0.007008771,0.001461217,-0.105635568,0.000151459,0.000180964,-0.000758972,-0.013577953,-0.095467649,9.782699585
1784241655.874557,-0.007008771,0.001461217,-0.105635568,0.000713405,0.000399110,-0.001306521,-0.017694183,-0.102109894,9.779066086
1784241655.876563,-0.007009804,0.001460827,-0.105635568,0.001210071,0.000426664,-0.000983926,-0.001954605,-0.060797606,9.800865173
1784241655.878621,-0.007009804,0.001460827,-0.105635568,0.001006141,0.000019307,-0.000499474,0.003059088,-0.054976940,9.792389870
1784241655.880577,-0.007009804,0.001460827,-0.105635568,0.000512148,-0.000541166,-0.000563766,-0.008181834,-0.057854474,9.776220322
1784241655.882596,-0.007008781,0.001460397,-0.105635576,0.000175556,-0.000411401,-0.000336789,0.012239868,-0.075649835,9.784644127
1784241655.884574,-0.007008781,0.001460397,-0.105635576,0.000348601,-0.000035161,0.000119623,-0.006813453,-0.053643294,9.811666489
1784241655.886575,-0.007008140,0.001460421,-0.105635576,0.000995804,-0.000194801,-0.000181286,-0.029209279,-0.088203996,9.797525406
1784241655.888568,-0.007008140,0.001460421,-0.105635576,0.001104531,-0.000485185,-0.000726975,-0.035249084,-0.068381414,9.793162346
1784241655.890576,-0.007008140,0.001460421,-0.105635576,0.000624683,-0.000424585,-0.000492062,0.001807697,-0.046512023,9.801409721
1784241655.892566,-0.007007284,0.001459827,-0.105635576,0.000570039,0.000243365,0.000170413,-0.006038680,-0.066375397,9.773476601
1784241655.894571,-0.007007284,0.001459827,-0.105635576,0.000407421,0.001143383,0.000962007,-0.013770411,-0.071555004,9.822754860
1784241655.896568,-0.007007070,0.001460088,-0.105635576,-0.000112684,0.001268373,0.000722750,-0.012690200,-0.057965498,9.799977303
1784241655.898571,-0.007007070,0.001460088,-0.105635576,0.000212312,0.001033718,-0.000408989,-0.014396509,-0.049949154,9.809889793
1784241655.900567,-0.007007070,0.001460088,-0.105635576,0.000631181,0.001021696,-0.001051756,-0.018622532,-0.065563329,9.807992935
1784241655.902573,-0.007006515,0.001460419,-0.105635576,0.000372052,0.000659261,-0.001558976,-0.028523734,-0.069319062,9.786888123
1784241655.904574,-0.007006515,0.001460419,-0.105635576,0.000285905,-0.000040846,-0.001443348,-0.008172290,-0.093747988,9.783164024
1784241655.906579,-0.007008526,0.001459482,-0.105635576,0.000693835,-0.000396826,-0.000888161,0.000761823,-0.061451394,9.761859894
1784241655.908578,-0.007008526,0.001459482,-0.105635576,0.000995364,-0.000417564,-0.001240553,-0.005891496,-0.091050811,9.777803421
1784241655.910599,-0.007008526,0.001459482,-0.105635576,0.000363933,-0.000584490,-0.001661931,-0.019085458,-0.069722414,9.763580322
1784241655.912582,-0.007008603,0.001459839,-0.105635576,-0.000801696,-0.000612363,-0.001337686,-0.005488414,-0.057879426,9.774877548
1784241655.914588,-0.007008603,0.001459839,-0.105635576,-0.001629215,-0.000273804,-0.000955029,-0.037436090,-0.063853972,9.790500641
1784241655.916601,-0.007008291,0.001461022,-0.105635561,-0.001926218,-0.000244351,-0.001019976,-0.024382176,-0.058829591,9.816549301
1784241655.918589,-0.007008291,0.001461022,-0.105635561,-0.001819322,-0.000371923,-0.000814880,-0.016611375,-0.085257851,9.801590919
1784241655.920622,-0.007008291,0.001461022,-0.105635561,-0.001780297,-0.000576309,-0.000034339,-0.011101778,-0.036617339,9.819394112
1784241655.922602,-0.007007744,0.001461392,-0.105635561,-0.001767844,-0.000597153,0.000228084,-0.000901146,-0.047824595,9.801847458
1784241655.924599,-0.007007744,0.001461392,-0.105635561,-0.001152817,0.000157529,0.000027368,-0.013354737,-0.074658327,9.817355156
1784241655.926605,-0.007008087,0.001461391,-0.105635561,-0.000578092,0.000776278,0.000152512,-0.008886652,-0.077702090,9.796267509
1784241655.928597,-0.007008087,0.001461391,-0.105635561,-0.000671221,0.000728239,0.000294241,-0.020181719,-0.084249169,9.792179108
1784241655.930596,-0.007008087,0.001461391,-0.105635561,-0.000905178,0.000353824,0.000268971,-0.018328259,-0.040950906,9.811738014
1784241655.932595,-0.007007187,0.001460987,-0.105635568,-0.001423886,-0.000347380,0.000283726,-0.033795606,-0.059445798,9.794118881
1784241655.934605,-0.007007187,0.001460987,-0.105635568,-0.001672126,-0.000641726,-0.000010994,-0.019692902,-0.078669891,9.825840950
1784241655.936605,-0.007007910,0.001461216,-0.105635561,-0.001176688,-0.000232146,-0.000437765,-0.015869958,-0.061473966,9.795020103
1784241655.938605,-0.007007910,0.001461216,-0.105635561,-0.000779977,0.000047401,-0.000676504,-0.003285116,-0.059036210,9.807600021
1784241655.940599,-0.007007910,0.001461216,-0.105635561,-0.000819090,0.000002709,-0.000870380,-0.024036475,-0.066943154,9.822772980
1784241655.942646,-0.007007912,0.001462377,-0.105635546,-0.001174117,-0.000116656,-0.000958463,-0.013775027,-0.074833445,9.779692650
1784241655.944624,-0.007007912,0.001462377,-0.105635546,-0.001235439,-0.000279729,-0.000697809,-0.024323735,-0.093931742,9.775076866
1784241655.946618,-0.007008720,0.001462936,-0.105635546,-0.000572376,-0.000119387,-0.000306676,-0.014704883,-0.077509709,9.779674530
1784241655.948611,-0.007008720,0.001462936,-0.105635546,0.000113409,0.000302660,-0.000254390,-0.037227459,-0.085612684,9.762565613
1784241655.950614,-0.007008720,0.001462936,-0.105635546,0.000284514,0.000343338,-0.000164153,-0.015978083,-0.071243264,9.782852173
1784241655.952618,-0.007008840,0.001462898,-0.105635546,-0.000063111,0.000197408,0.000008166,-0.027321257,-0.081412181,9.784121513
1784241655.954623,-0.007008840,0.001462898,-0.105635546,-0.000405860,0.000146838,0.000007504,-0.003510562,-0.076621167,9.823628426
1784241655.956623,-0.007009144,0.001462301,-0.105635546,-0.000602070,0.000089982,0.000241669,0.001420375,-0.080369480,9.774740219
1784241655.958627,-0.007009144,0.001462301,-0.105635546,-0.000745355,0.000047682,0.000556665,0.005797095,-0.087781943,9.801148415
1784241655.960623,-0.007009144,0.001462301,-0.105635546,-0.000885634,0.000017917,0.000677774,-0.012214332,-0.054514751,9.817932129
1784241655.962625,-0.007009242,0.001461856,-0.105635546,-0.001044209,-0.000201149,0.000764811,-0.023560321,-0.064705916,9.822340012
1784241655.964627,-0.007009242,0.001461856,-0.105635546,-0.000887087,-0.000237461,0.000793233,-0.041433495,-0.058210853,9.823259354
1784241655.966633,-0.007009311,0.001463060,-0.105635539,-0.000659862,0.000165856,0.000978978,-0.020015065,-0.032375317,9.805962563
1784241655.968629,-0.007009311,0.001463060,-0.105635539,-0.000533198,0.000225655,0.001185133,0.010199023,-0.057810754,9.800000191
1784241655.970633,-0.007009311,0.001463060,-0.105635539,-0.000694965,0.000147069,0.001153713,-0.010717484,-0.081205554,9.788173676
1784241655.972627,-0.007009469,0.001462815,-0.105635539,-0.001208477,0.000309413,0.001239729,-0.003044783,-0.078923583,9.768468857
1784241655.974653,-0.007009469,0.001462815,-0.105635539,-0.001911740,0.000054131,0.001155372,0.001963285,-0.035557456,9.772786140
1784241655.976639,-0.007007765,0.001462622,-0.105635546,-0.002153148,-0.000257989,0.000642352,-0.017190807,-0.059636258,9.790995598
1784241655.978685,-0.007007765,0.001462622,-0.105635546,-0.001349692,-0.000278162,-0.000017497,-0.005736823,-0.078482457,9.774297714
1784241655.980652,-0.007007765,0.001462622,-0.105635546,-0.000763888,-0.000169084,-0.000136464,-0.008995997,-0.090317763,9.743283272
1784241655.982650,-0.007008784,0.001462630,-0.105635546,-0.001205381,0.000023641,0.000444039,0.004693052,-0.106422633,9.778162956
1784241655.984646,-0.007008784,0.001462630,-0.105635546,-0.001891318,-0.000119024,0.000702307,-0.041268185,-0.082743175,9.807412148
1784241655.986649,-0.007009589,0.001463578,-0.105635539,-0.002099559,-0.000062996,0.000711289,-0.023670351,-0.076111250,9.788194656
1784241655.988646,-0.007009589,0.001463578,-0.105635539,-0.001705698,0.000347596,0.001099847,-0.029213419,-0.089452483,9.784068108
1784241655.990651,-0.007009589,0.001463578,-0.105635539,-0.001257946,0.000447646,0.001273743,-0.012535193,-0.082173862,9.801615715
1784241655.992659,-0.007010367,0.001463187,-0.105635539,-0.001059138,0.000344791,0.000929896,-0.013879797,-0.080523752,9.824040413
1784241655.994654,-0.007010367,0.001463187,-0.105635539,-0.001188792,-0.000015608,0.000749588,-0.023399318,-0.050466549,9.835882187
1784241655.996653,-0.007009329,0.001463491,-0.105635539,-0.001485974,-0.000530836,0.001085852,-0.003211981,-0.053190455,9.804500580
1784241655.998660,-0.007009329,0.001463491,-0.105635539,-0.001461847,-0.000404458,0.001279839,0.002084585,-0.058816217,9.830023766
1784241656.000660,-0.007009329,0.001463491,-0.105635539,-0.000845898,-0.000191855,0.001260313,-0.002062477,-0.030543542,9.831098557
1784241656.002666,-0.007008960,0.001463120,-0.105635539,-0.000351654,-0.000864766,0.001133238,-0.022932602,-0.048709072,9.839927673
1784241656.004663,-0.007008960,0.001463120,-0.105635539,0.000046312,-0.001263395,0.000716303,-0.019169681,-0.037660591,9.791582108
1784241656.006665,-0.007008326,0.001463465,-0.105635539,0.000668410,-0.000840063,0.000850318,-0.026203169,-0.061850104,9.803525925
1784241656.008664,-0.007008326,0.001463465,-0.105635539,0.001155831,-0.000624469,0.001344624,-0.065904170,-0.078443013,9.814141273
1784241656.010665,-0.007008326,0.001463465,-0.105635539,0.001814583,-0.000970125,0.000962277,-0.038311701,-0.064480849,9.754179955
1784241656.012664,-0.007008553,0.001464592,-0.105635531,0.002351860,-0.001127020,-0.000218228,-0.011204964,-0.047968619,9.777626038
1784241656.014667,-0.007008553,0.001464592,-0.105635531,0.002007162,-0.000730176,-0.000950173,0.025587240,-0.048856225,9.773172379
1784241656.016672,-0.007007876,0.001463569,-0.105635539,0.001086487,-0.000347960,-0.000816016,-0.011091229,-0.078581616,9.734837532
1784241656.018670,-0.007007876,0.001463569,-0.105635539,0.000419596,0.000360206,-0.000354847,-0.010818643,-0.089704089,9.786325455
1784241656.020668,-0.007007876,0.001463569,-0.105635539,0.000205286,0.000926504,0.000090133,-0.022943217,-0.090435244,9.784964561
1784241656.022677,-0.007008776,0.001463930,-0.105635539,-0.000099586,0.000910108,0.000176996,-0.020313267,-0.096229650,9.775961876
1784241656.024677,-0.007008776,0.001463930,-0.105635539,-0.000774034,0.000919602,0.000474350,-0.017166419,-0.094602048,9.793461800
1784241656.026676,-0.007009361,0.001463866,-0.105635539,-0.000742535,0.000777108,0.000654863,-0.013508267,-0.089243889,9.789463997
1784241656.028685,-0.007009361,0.001463866,-0.105635539,-0.000215466,0.000364980,0.000279998,-0.025206901,-0.052165452,9.826005936
1784241656.030686,-0.007009361,0.001463866,-0.105635539,-0.000355303,0.000124173,0.000042515,-0.016098505,-0.043114528,9.796931267
1784241656.032682,-0.007008810,0.001463920,-0.105635539,-0.000398062,0.000398090,-0.000127892,-0.008978016,-0.047317658,9.808117867
1784241656.034684,-0.007008810,0.001463920,-0.105635539,0.000153224,0.001021344,0.000076188,0.002420170,-0.031446081,9.823922157
1784241656.036685,-0.007007897,0.001463495,-0.105635539,0.000528800,0.000842809,0.000690639,-0.007940786,-0.035688527,9.809090614
1784241656.038688,-0.007007897,0.001463495,-0.105635539,0.000014205,-0.000286376,0.001077285,-0.027689843,-0.071453072,9.833498955
1784241656.040686,-0.007007897,0.001463495,-0.105635539,-0.000406439,-0.000369297,0.001164432,-0.052682016,-0.061958861,9.803500175
1784241656.042726,-0.007007875,0.001464426,-0.105635539,-0.000321207,0.000611797,0.000945513,0.005924604,-0.078670092,9.779687881
1784241656.044737,-0.007007875,0.001464426,-0.105635539,-0.000444368,0.000792078,0.000205104,0.016524987,-0.055111259,9.787022591
1784241656.046703,-0.007006944,0.001463837,-0.105635539,-0.000417802,0.000020868,-0.000122499,-0.008069106,-0.047643572,9.789287567
1784241656.048702,-0.007006944,0.001463837,-0.105635539,-0.000347180,-0.000776600,-0.000181868,-0.028698483,-0.082856454,9.800699234
1784241656.050732,-0.007006944,0.001463837,-0.105635539,-0.000363974,-0.001101391,-0.000783404,-0.030770358,-0.070935883,9.766250610
1784241656.052703,-0.007007367,0.001464393,-0.105635539,-0.000300534,-0.001032716,-0.001237848,-0.011906329,-0.068194248,9.787806511
1784241656.054724,-0.007007367,0.001464393,-0.105635539,0.000234884,-0.000862743,-0.001441098,-0.013663276,-0.065035529,9.787825584
1784241656.056718,-0.007007002,0.001464470,-0.105635539,0.000771796,-0.000507288,-0.001461276,-0.037044946,-0.105551302,9.793821335
1784241656.058712,-0.007007002,0.001464470,-0.105635539,0.000550918,0.000045137,-0.001294795,-0.030800680,-0.107144184,9.817578316
1784241656.060705,-0.007007002,0.001464470,-0.105635539,0.000481339,0.000501471,-0.001317485,0.000550483,-0.076088220,9.804356575
1784241656.062707,-0.007007510,0.001464672,-0.105635539,0.000841904,0.000485273,-0.000974266,0.004029451,-0.084302440,9.819102287
1784241656.064708,-0.007007510,0.001464672,-0.105635539,0.000721827,0.000294730,-0.000256493,-0.010405147,-0.090393104,9.819498062
1784241656.066714,-0.007008134,0.001465199,-0.105635539,0.000127785,0.000125496,0.000247372,-0.023842972,-0.088416062,9.817704201
1784241656.068708,-0.007008134,0.001465199,-0.105635539,-0.000327445,-0.000411307,0.000575989,-0.019808788,-0.052126329,9.810767174
1784241656.070710,-0.007008134,0.001465199,-0.105635539,-0.000347998,-0.000586184,0.000239424,-0.003050181,-0.076534703,9.810626984
1784241656.072715,-0.007009264,0.001464308,-0.105635539,-0.000100912,-0.000011007,-0.000561036,-0.014160365,-0.067438111,9.811572075
1784241656.074720,-0.007009264,0.001464308,-0.105635539,-0.000518052,0.000448116,-0.000765800,-0.018395072,-0.047962483,9.789724350
1784241656.076715,-0.007008059,0.001464707,-0.105635539,-0.001112030,0.000853613,-0.000247116,-0.023890547,-0.056064900,9.804910660
1784241656.078726,-0.007008059,0.001464707,-0.105635539,-0.001182716,0.001146216,-0.000049219,-0.056232430,-0.057550907,9.820113182
1784241656.080723,-0.007008059,0.001464707,-0.105635539,-0.001257397,0.000751526,-0.000540290,-0.026907422,-0.084124766,9.786795616
1784241656.082726,-0.007008993,0.001465235,-0.105635531,-0.001008767,0.000187201,-0.000321433,-0.021592561,-0.089200824,9.797975540
1784241656.084734,-0.007008993,0.001465235,-0.105635531,-0.000066430,0.000070222,0.000436560,-0.001257050,-0.078597181,9.782371521
1784241656.086733,-0.007008858,0.001463735,-0.105635546,0.000699868,0.000528325,0.000305935,0.016922364,-0.058764290,9.795965195
1784241656.088732,-0.007008858,0.001463735,-0.105635546,0.000722381,0.001392347,-0.000202312,0.016100686,-0.052481335,9.796004295
1784241656.090735,-0.007008858,0.001463735,-0.105635546,0.000861373,0.001607802,-0.000791298,-0.004429146,-0.079208396,9.811058044
1784241656.092726,-0.007009579,0.001462378,-0.105635561,0.001223984,0.000826756,-0.001351541,-0.011921807,-0.068721712,9.799012184
1784241656.094734,-0.007009579,0.001462378,-0.105635561,0.001559524,0.000342129,-0.000964810,-0.040220659,-0.071437992,9.790897369
1784241656.096740,-0.007009753,0.001463790,-0.105635546,0.002242435,0.000433561,-0.000553544,-0.014506068,-0.094077677,9.840991020
1784241656.098742,-0.007009753,0.001463790,-0.105635546,0.002395601,0.000326768,-0.000724802,0.003389706,-0.101204738,9.802852631
1784241656.100736,-0.007009753,0.001463790,-0.105635546,0.001581777,-0.000047149,-0.000834630,-0.018430691,-0.086238891,9.816824913
1784241656.102741,-0.007010926,0.001463530,-0.105635546,0.000970466,-0.000337787,-0.000842562,-0.030404789,-0.074840114,9.810611725
1784241656.104740,-0.007010926,0.001463530,-0.105635546,0.001193546,-0.000523047,-0.000468043,-0.024514755,-0.070412979,9.807508469
1784241656.106743,-0.007010228,0.001463915,-0.105635546,0.001426337,-0.000803975,0.000002659,-0.028397422,-0.057379913,9.808932304
1784241656.108742,-0.007010228,0.001463915,-0.105635546,0.000855170,-0.000981867,0.000218169,0.017326415,-0.062769897,9.791456223
1784241656.110761,-0.007010228,0.001463915,-0.105635546,0.000439559,-0.001110248,0.000176604,0.011764938,-0.040287558,9.790250778
1784241656.112756,-0.007009279,0.001461989,-0.105635561,0.000479387,-0.001209792,0.000525923,-0.008595185,-0.015521959,9.809667587
1784241656.114753,-0.007009279,0.001461989,-0.105635561,0.000436515,-0.001175419,0.001087761,-0.009719146,-0.072315060,9.796301842
1784241656.116751,-0.007010415,0.001461398,-0.105635561,0.000152909,-0.001110774,0.001352458,-0.009430526,-0.085337117,9.799804688
1784241656.118761,-0.007010415,0.001461398,-0.105635561,-0.000268176,-0.000915051,0.001166687,-0.005707752,-0.073389910,9.814230919
1784241656.120766,-0.007010415,0.001461398,-0.105635561,-0.000754509,-0.000767433,0.000525647,0.015708944,-0.083536915,9.816429138
1784241656.122758,-0.007011401,0.001459796,-0.105635576,-0.001383476,-0.000963364,0.000128736,-0.022938531,-0.050376903,9.822432518
1784241656.124762,-0.007011401,0.001459796,-0.105635576,-0.001643081,-0.001126459,-0.000124104,-0.035216983,-0.066506900,9.781519890
1784241656.126760,-0.007011242,0.001461307,-0.105635561,-0.001340007,-0.000907708,-0.000450047,-0.041238043,-0.081694625,9.785899162
1784241656.128765,-0.007011242,0.001461307,-0.105635561,-0.001155878,-0.000801731,-0.000723952,-0.027543359,-0.063001864,9.778859138
1784241656.130765,-0.007011242,0.001461307,-0.105635561,-0.001150984,-0.000905007,-0.000617819,-0.041076124,-0.069069043,9.774324417
1784241656.132762,-0.007011279,0.001462553,-0.105635546,-0.000313650,-0.000703791,-0.000122446,-0.040797394,-0.081763975,9.794864655
1784241656.134768,-0.007011279,0.001462553,-0.105635546,0.000515628,-0.000238575,0.000727951,-0.016195703,-0.088361166,9.796192169
1784241656.136769,-0.007011810,0.001462080,-0.105635546,0.000217885,0.000202928,0.000877247,-0.000050532,-0.087821662,9.817283630
1784241656.138772,-0.007011810,0.001462080,-0.105635546,-0.000000119,0.000294234,0.000389014,-0.032518391,-0.103270404,9.779941559
1784241656.140772,-0.007011810,0.001462080,-0.105635546,0.000507205,0.000188916,0.000466685,-0.015494267,-0.066108771,9.816061974
1784241656.142798,-0.007012113,0.001461638,-0.105635546,0.000932019,0.000254153,0.000758820,-0.021349842,-0.067832246,9.816942215
1784241656.144779,-0.007012113,0.001461638,-0.105635546,0.000898678,0.000342147,0.000844955,-0.003138040,-0.047338352,9.800502777
1784241656.146785,-0.007010757,0.001461418,-0.105635546,0.000603569,0.000427611,0.000835186,-0.014643466,-0.033356126,9.808203697
1784241656.148783,-0.007010757,0.001461418,-0.105635546,0.000315574,0.000453885,0.000954115,-0.007259912,-0.054025095,9.803145409
1784241656.150775,-0.007010757,0.001461418,-0.105635546,0.000047765,0.000149001,0.001147167,-0.015745336,-0.089164272,9.782288551
1784241656.152780,-0.007011833,0.001461710,-0.105635546,0.000089022,0.000015230,0.001144256,-0.015930314,-0.065597832,9.807994843
1784241656.154780,-0.007011833,0.001461710,-0.105635546,0.000413741,0.000365909,0.000928479,0.011651581,-0.050098192,9.783911705
1784241656.156784,-0.007010402,0.001460421,-0.105635561,-0.000000494,0.000611058,0.000661885,-0.003608084,-0.047501121,9.824262619
1784241656.158786,-0.007010402,0.001460421,-0.105635561,-0.000612055,0.000524215,0.000267134,-0.029926229,-0.072583802,9.807489395
1784241656.160783,-0.007010402,0.001460421,-0.105635561,-0.000732617,0.000316221,-0.000472024,-0.029164864,-0.086637527,9.766152382
1784241656.162786,-0.007011311,0.001461109,-0.105635561,-0.000677459,0.000088947,-0.000649651,-0.024090575,-0.074259609,9.780583382
1784241656.164790,-0.007011311,0.001461109,-0.105635561,-0.000237306,0.000327294,0.000162529,-0.032057423,-0.065184176,9.778840065
1784241656.166784,-0.007011006,0.001461731,-0.105635561,0.000321750,0.000857013,0.000973178,-0.023973525,-0.062393587,9.812939644
1784241656.168788,-0.007011006,0.001461731,-0.105635561,0.000652803,0.000778739,0.001073622,-0.000421033,-0.047582328,9.766878128
1784241656.170785,-0.007011006,0.001461731,-0.105635561,0.000947694,0.000509796,0.000387522,-0.026971107,-0.051900793,9.791932106
1784241656.172786,-0.007010825,0.001462296,-0.105635546,0.001183154,0.000565198,-0.000038654,-0.062076211,-0.057965461,9.825933456
1784241656.174796,-0.007010825,0.001462296,-0.105635546,0.000885138,0.000821962,0.000409517,-0.052734956,-0.068455718,9.772074699
1784241656.176793,-0.007010549,0.001463896,-0.105635546,0.000253532,0.001139366,0.000754125,-0.036258698,-0.077360936,9.797588348
1784241656.178829,-0.007010549,0.001463896,-0.105635546,0.000083683,0.001335005,0.000427773,-0.019994866,-0.030189563,9.813598633
1784241656.180800,-0.007010549,0.001463896,-0.105635546,0.000735695,0.001272389,-0.000008452,-0.012090397,-0.046241589,9.788396835
1784241656.182794,-0.007009782,0.001463948,-0.105635546,0.001334506,0.000903444,-0.000652774,0.002766613,-0.041580051,9.799201012
1784241656.184803,-0.007009782,0.001463948,-0.105635546,0.001297750,0.000299780,-0.001449706,-0.012175438,-0.051776104,9.810777664
1784241656.186805,-0.007009014,0.001464272,-0.105635546,0.001159568,-0.000233759,-0.001218630,-0.014742790,-0.076998509,9.833925247
1784241656.188801,-0.007009014,0.001464272,-0.105635546,0.000955581,-0.000013112,-0.000433302,-0.005991890,-0.061142948,9.793684959
1784241656.190809,-0.007009014,0.001464272,-0.105635546,0.000597394,0.000693736,-0.000490302,-0.021156581,-0.091738537,9.775990486
1784241656.192802,-0.007009741,0.001464399,-0.105635546,-0.000007395,0.001141486,-0.000713265,-0.024009546,-0.065920047,9.804847717
1784241656.194815,-0.007009741,0.001464399,-0.105635546,-0.000291370,0.000855333,-0.001095476,-0.006234608,-0.082511529,9.774719238
1784241656.196813,-0.007010351,0.001463042,-0.105635546,-0.000233374,-0.000072187,-0.001991259,0.026042266,-0.084780917,9.783701897
1784241656.198811,-0.007010351,0.001463042,-0.105635546,-0.000587899,-0.000548596,-0.002155949,-0.005563912,-0.099307455,9.804202080
1784241656.200815,-0.007010351,0.001463042,-0.105635546,-0.000626122,-0.000417582,-0.001370321,-0.041155122,-0.074555874,9.789980888
1784241656.202816,-0.007010771,0.001463905,-0.105635546,0.000195738,-0.000278854,-0.000543682,-0.024384484,-0.060468812,9.795018196
1784241656.204822,-0.007010771,0.001463905,-0.105635546,0.001405208,-0.000509470,0.000238157,-0.015932906,-0.066023536,9.804853439
1784241656.206816,-0.007010879,0.001464223,-0.105635546,0.001867070,-0.000979158,0.000841474,-0.023093559,-0.063758515,9.814276695
1784241656.208821,-0.007010879,0.001464223,-0.105635546,0.001195596,-0.000983922,0.000866072,-0.005294257,-0.039325796,9.811760902
1784241656.210818,-0.007010879,0.001464223,-0.105635546,0.000205910,-0.000459908,0.000868082,0.004474073,-0.048776787,9.800052643
1784241656.212817,-0.007010011,0.001464341,-0.105635546,-0.000336675,-0.000348752,0.000651701,0.029191300,-0.082730800,9.804790497
1784241656.214825,-0.007010011,0.001464341,-0.105635546,0.000061231,-0.000544767,0.000241062,-0.000343297,-0.076048106,9.800320625
1784241656.216829,-0.007010043,0.001463416,-0.105635546,0.000736397,-0.000082290,0.000361091,-0.026711248,-0.065555230,9.821434975
1784241656.218829,-0.007010043,0.001463416,-0.105635546,0.000940952,0.000385261,0.000196077,-0.048974495,-0.088532522,9.816335678
1784241656.220829,-0.007010043,0.001463416,-0.105635546,0.000797651,0.000213684,-0.001010561,-0.019963177,-0.065908194,9.795884132
1784241656.222830,-0.007009824,0.001463484,-0.105635546,0.000384544,-0.000033975,-0.001890757,-0.022238733,-0.068564028,9.795416832
1784241656.224832,-0.007009824,0.001463484,-0.105635546,-0.000439882,0.000038372,-0.001737115,-0.001999902,-0.101987153,9.796566010
1784241656.226835,-0.007011715,0.001463617,-0.105635546,-0.000712267,0.000304634,-0.001803995,-0.013679782,-0.065165900,9.806206703
1784241656.228837,-0.007011715,0.001463617,-0.105635546,-0.000460880,0.000313208,-0.001762776,0.000077839,-0.079513535,9.782814026
1784241656.230833,-0.007011715,0.001463617,-0.105635546,-0.000698883,-0.000022085,-0.001067403,-0.031465616,-0.089087054,9.799758911
1784241656.232839,-0.007011896,0.001464558,-0.105635546,-0.000962099,-0.000193930,-0.000470311,-0.017814163,-0.112378024,9.774068832
1784241656.234844,-0.007011896,0.001464558,-0.105635546,-0.000892202,0.000364909,-0.000500457,-0.019829279,-0.055935401,9.779360771
1784241656.236839,-0.007011177,0.001464836,-0.105635546,-0.000510784,0.001166429,-0.000844627,-0.036197808,-0.034427226,9.808623314
1784241656.238840,-0.007011177,0.001464836,-0.105635546,-0.000146538,0.001476641,-0.000645444,-0.029324882,-0.062873937,9.764063835
1784241656.240841,-0.007011177,0.001464836,-0.105635546,0.000260628,0.001518892,-0.000140104,0.006688004,-0.052281111,9.784789085
1784241656.242874,-0.007011000,0.001463715,-0.105635561,0.000447058,0.001353974,0.000046248,-0.041259095,-0.045486700,9.797787666
1784241656.244869,-0.007011000,0.001463715,-0.105635561,0.000004507,0.001205511,-0.000053747,-0.004533003,-0.051759377,9.794644356
1784241656.246851,-0.007010294,0.001462428,-0.105635568,-0.000206791,0.001365371,0.000001440,-0.001915819,-0.056438822,9.817930222
1784241656.248852,-0.007010294,0.001462428,-0.105635568,0.000072426,0.001457719,0.000276871,0.008303860,-0.066279933,9.797254562
1784241656.250851,-0.007010294,0.001462428,-0.105635568,0.000197082,0.000896866,0.000311428,-0.004202436,-0.097177111,9.817219734
1784241656.252856,-0.007010619,0.001461871,-0.105635576,0.000444477,-0.000071594,0.000369836,-0.004733710,-0.103496872,9.824800491
1784241656.254855,-0.007010619,0.001461871,-0.105635576,0.000951169,-0.000672964,0.000467640,-0.005779104,-0.078816317,9.821370125
1784241656.256854,-0.007011255,0.001461261,-0.105635576,0.001216905,-0.000729413,0.000125659,-0.001357620,-0.083849080,9.828065872
1784241656.258868,-0.007011255,0.001461261,-0.105635576,0.001142660,-0.000531554,-0.000465548,-0.009766447,-0.075930543,9.800762177
1784241656.260869,-0.007011255,0.001461261,-0.105635576,0.000905636,-0.000583436,-0.000897620,-0.009414298,-0.083993249,9.799814224
1784241656.262991,-0.007011237,0.001461098,-0.105635576,0.001253950,-0.000827828,-0.000725304,-0.002706556,-0.086690933,9.789041519
1784241656.264899,-0.007011237,0.001461098,-0.105635576,0.001396853,-0.001098207,-0.000022806,-0.039431203,-0.080812164,9.784562111
1784241656.266883,-0.007011209,0.001461650,-0.105635576,0.000491048,-0.001050297,0.000488716,-0.019922899,-0.062753387,9.793215752
1784241656.268921,-0.007011209,0.001461650,-0.105635576,-0.000183433,-0.000761367,0.000555866,-0.024842283,-0.062966406,9.768998146
1784241656.270884,-0.007011209,0.001461650,-0.105635576,-0.000295421,-0.000660756,0.000243738,-0.007214987,-0.088828743,9.782749176
1784241656.272872,-0.007011975,0.001461653,-0.105635576,-0.000378716,-0.000714324,0.000160061,-0.006575536,-0.073549747,9.775224686
1784241656.274921,-0.007011975,0.001461653,-0.105635576,0.000121365,-0.000653612,0.000461586,0.017722636,-0.067242533,9.789634705
1784241656.276896,-0.007012521,0.001460124,-0.105635583,0.000745690,0.000018005,0.000649049,-0.009397835,-0.045462836,9.800060272
1784241656.278966,-0.007012521,0.001460124,-0.105635583,0.000803733,0.000566542,0.000622848,-0.042832717,-0.065097071,9.786004066
1784241656.280905,-0.007012521,0.001460124,-0.105635583,0.000226166,0.000469627,0.000473646,-0.034475219,-0.076662883,9.822253227
1784241656.282892,-0.007012231,0.001461489,-0.105635576,-0.000593178,0.000453669,0.000960335,-0.009411191,-0.082347654,9.820446968
1784241656.284935,-0.007012231,0.001461489,-0.105635576,-0.000897805,0.000761550,0.001533749,-0.009613038,-0.062561661,9.810709953
1784241656.286905,-0.007012664,0.001460875,-0.105635576,-0.000937169,0.000900846,0.000814028,-0.013838602,-0.078982733,9.796255112
1784241656.288898,-0.007012664,0.001460875,-0.105635576,-0.000679889,0.000658249,0.000125790,0.000339654,-0.057588879,9.786540985
1784241656.290898,-0.007012664,0.001460875,-0.105635576,-0.000151428,0.000366528,0.000165871,-0.023764826,-0.082125530,9.815053940
1784241656.292918,-0.007013061,0.001461366,-0.105635576,0.000180418,0.000174908,-0.000183987,-0.023580007,-0.068508632,9.790036201
1784241656.294899,-0.007013061,0.001461366,-0.105635576,0.000062681,0.000167068,-0.000745572,-0.052396439,-0.074599728,9.816420555
1784241656.296891,-0.007013433,0.001462589,-0.105635561,-0.000204903,0.000178217,-0.000649425,-0.030878365,-0.079488494,9.772025108
1784241656.298894,-0.007013433,0.001462589,-0.105635561,0.000031682,0.000105594,0.000088769,-0.008727445,-0.101472035,9.799252510
1784241656.300894,-0.007013433,0.001462589,-0.105635561,0.000477584,0.000213282,0.000375140,-0.011853099,-0.062910929,9.800843239
1784241656.302900,-0.007012994,0.001462499,-0.105635561,0.000460669,0.000352403,0.000096155,-0.010641060,-0.038554467,9.775893211
1784241656.304902,-0.007012994,0.001462499,-0.105635561,0.000048975,0.000366401,0.000162573,0.008105689,-0.082028523,9.807016373
1784241656.306916,-0.007013532,0.001461875,-0.105635561,-0.000179254,0.000461726,0.000879463,-0.002862021,-0.061675668,9.799962997
1784241656.308901,-0.007013532,0.001461875,-0.105635561,-0.000165048,0.000510891,0.001456039,-0.014696413,-0.039852973,9.776778221
1784241656.310899,-0.007013532,0.001461875,-0.105635561,-0.000226363,0.000444135,0.001117207,-0.028696872,-0.082843728,9.798905373
1784241656.312900,-0.007012981,0.001463320,-0.105635546,-0.000126849,0.000305282,0.000653476,0.013257869,-0.103383437,9.776396751
1784241656.314909,-0.007012981,0.001463320,-0.105635546,0.000377120,0.000123273,0.001001857,0.012197870,-0.077197209,9.813328743
1784241656.316908,-0.007013366,0.001462370,-0.105635546,0.000812889,-0.000264482,0.001651476,0.001543408,-0.067645684,9.812482834
1784241656.318906,-0.007013366,0.001462370,-0.105635546,0.000680919,-0.000465577,0.001384332,-0.002653272,-0.082217678,9.789967537
1784241656.320908,-0.007013366,0.001462370,-0.105635546,0.000397022,0.000310899,0.000707165,-0.023822594,-0.051070556,9.795527458
1784241656.322917,-0.007012677,0.001463185,-0.105635546,0.000245913,0.001159735,0.000901491,-0.008151277,-0.053965908,9.796421051
1784241656.324918,-0.007012677,0.001463185,-0.105635546,0.000108785,0.000985434,0.001201063,-0.015143278,-0.074991070,9.804348946
1784241656.326915,-0.007013617,0.001463701,-0.105635546,0.000240172,0.000478866,0.001273136,-0.030959260,-0.083774507,9.807863235
1784241656.328915,-0.007013617,0.001463701,-0.105635546,0.000661749,0.000107430,0.001145626,-0.050951600,-0.068974361,9.778798103
1784241656.330915,-0.007013617,0.001463701,-0.105635546,0.000770815,-0.000123916,0.000872123,-0.046362896,-0.059313435,9.798144341
1784241656.332919,-0.007011951,0.001465291,-0.105635539,0.000653605,-0.000074670,0.000727935,-0.045453764,-0.060042795,9.773032188
1784241656.334917,-0.007011951,0.001465291,-0.105635539,0.000749384,-0.000127313,0.000063084,-0.006877041,-0.060629439,9.786067009
1784241656.336921,-0.007012094,0.001464099,-0.105635546,0.000783479,-0.000234065,-0.000945193,-0.024550198,-0.073529631,9.804798126
1784241656.338927,-0.007012094,0.001464099,-0.105635546,0.000485637,0.000031195,-0.001281174,-0.025500944,-0.042428188,9.780337334
1784241656.340930,-0.007012094,0.001464099,-0.105635546,-0.000057505,0.000261073,-0.001056900,-0.021269176,-0.063142769,9.787382126
1784241656.342956,-0.007012310,0.001465173,-0.105635539,-0.000399610,0.000303736,-0.001182958,-0.040934339,-0.056602448,9.785163879
1784241656.344936,-0.007012310,0.001465173,-0.105635539,-0.000336043,0.000782861,-0.001506470,-0.039348576,-0.072459891,9.807032585
1784241656.346935,-0.007013240,0.001465946,-0.105635531,-0.000218395,0.001111139,-0.001417215,-0.003236263,-0.054597929,9.813457489
1784241656.348930,-0.007013240,0.001465946,-0.105635531,-0.000082049,0.001060535,-0.001155157,0.014538809,-0.067135893,9.843432426
1784241656.350935,-0.007013240,0.001465946,-0.105635531,-0.000073272,0.001076763,-0.000657218,-0.030089462,-0.083598778,9.844628334
1784241656.352930,-0.007013439,0.001466549,-0.105635531,-0.000357621,0.000982950,-0.000169163,-0.009906155,-0.086354479,9.817729950
1784241656.354938,-0.007013439,0.001466549,-0.105635531,-0.000241697,0.000607574,-0.000211957,-0.001568904,-0.064542845,9.822811127
1784241656.356944,-0.007013564,0.001465682,-0.105635539,0.000169913,0.000475025,-0.000314034,-0.008734558,-0.027969481,9.796137810
1784241656.358940,-0.007013564,0.001465682,-0.105635539,-0.000016273,0.000546582,-0.000532646,-0.013111332,-0.054500062,9.817484856
1784241656.360939,-0.007013564,0.001465682,-0.105635539,-0.000644923,0.000154047,-0.000695164,-0.012216520,-0.054937266,9.814342499
1784241656.362939,-0.007013195,0.001465477,-0.105635539,-0.001049711,-0.000222701,-0.000777874,-0.007317919,-0.060156647,9.783379555
1784241656.364946,-0.007013195,0.001465477,-0.105635539,-0.000816700,-0.000143641,-0.000708956,-0.007104849,-0.079043537,9.792674065
1784241656.366925,-0.007013741,0.001465073,-0.105635539,-0.000412377,-0.000142242,-0.000712846,-0.029972326,-0.079026580,9.768441200
1784241656.368941,-0.007013741,0.001465073,-0.105635539,-0.000861814,-0.000385189,-0.000718221,-0.032453995,-0.061524786,9.769001007
1784241656.371015,-0.007013741,0.001465073,-0.105635539,-0.001819035,-0.000180278,-0.000251663,-0.028774599,-0.051541131,9.807623863
1784241656.372946,-0.007013261,0.001465442,-0.105635539,-0.002294944,0.000258030,-0.000469424,-0.026729101,-0.069748677,9.781058311
1784241656.374961,-0.007013261,0.001465442,-0.105635539,-0.002156548,0.000196774,-0.001062654,-0.001471852,-0.095692836,9.792572975
1784241656.376965,-0.007014242,0.001465127,-0.105635539,-0.001480378,-0.000019699,-0.000899149,-0.007850455,-0.065675877,9.804414749
1784241656.378961,-0.007014242,0.001465127,-0.105635539,-0.000420577,0.000428792,-0.000829914,-0.017080197,-0.047821119,9.830524445
1784241656.380964,-0.007014242,0.001465127,-0.105635539,0.000333354,0.000720595,-0.000924115,0.002356341,-0.075618736,9.798085213
1784241656.382963,-0.007013750,0.001464955,-0.105635539,0.000297136,0.000379294,-0.000635720,0.008565492,-0.082351871,9.788631439
1784241656.384958,-0.007013750,0.001464955,-0.105635539,-0.000144359,0.000224468,-0.000317453,-0.021987859,-0.083505124,9.816842079
1784241656.386962,-0.007014462,0.001465154,-0.105635539,-0.000920004,-0.000063639,-0.000051193,-0.028453996,-0.098658502,9.817185402
1784241656.388959,-0.007014462,0.001465154,-0.105635539,-0.001536691,-0.000056311,0.000035592,-0.032304905,-0.084564149,9.795304298
1784241656.390970,-0.007014462,0.001465154,-0.105635539,-0.001364767,0.000501412,-0.000077640,-0.012704133,-0.095260136,9.814981461
1784241656.392968,-0.007015669,0.001465225,-0.105635531,-0.000573707,0.000647543,0.000001947,-0.006133504,-0.073202930,9.788677216
1784241656.394967,-0.007015669,0.001465225,-0.105635531,0.000416922,0.000640760,0.000186315,-0.021788521,-0.029346958,9.824361801
1784241656.396965,-0.007014125,0.001465579,-0.105635531,0.000852591,0.000804770,-0.000310702,-0.027294667,-0.078365482,9.796693802
1784241656.398966,-0.007014125,0.001465579,-0.105635531,0.000625038,0.000608574,-0.001072537,0.006978705,-0.063260511,9.816102982
1784241656.400976,-0.007014125,0.001465579,-0.105635531,0.000367786,0.000463866,-0.001176386,0.004510783,-0.046460666,9.789307594
1784241656.402974,-0.007013480,0.001464315,-0.105635546,0.000166676,0.000789802,-0.001123295,0.005576833,-0.069762357,9.787814140
1784241656.404976,-0.007013480,0.001464315,-0.105635546,-0.000160752,0.000958857,-0.001356065,-0.009657746,-0.065751448,9.818312645
1784241656.406979,-0.007013359,0.001463950,-0.105635546,-0.000388479,0.000468262,-0.001258260,-0.027918747,-0.056743741,9.781588554
1784241656.408972,-0.007013359,0.001463950,-0.105635546,-0.000212777,-0.000002692,-0.000880219,-0.000453946,-0.049463201,9.779420853
1784241656.410975,-0.007013359,0.001463950,-0.105635546,0.000302402,0.000316793,-0.000726877,-0.015262972,-0.086472720,9.780962944
1784241656.412978,-0.007013820,0.001463197,-0.105635546,0.000574666,0.001037067,-0.000684823,-0.023605404,-0.109135762,9.769600868
1784241656.414987,-0.007013820,0.001463197,-0.105635546,0.000603838,0.001022077,-0.000404737,-0.020134704,-0.079420157,9.806108475
1784241656.416982,-0.007014530,0.001463198,-0.105635546,0.000669623,0.000110828,-0.000223695,-0.012230343,-0.059098922,9.769483566
1784241656.418987,-0.007014530,0.001463198,-0.105635546,0.000774145,-0.000320071,-0.000018213,-0.011833478,-0.061134983,9.803094864
1784241656.420981,-0.007014530,0.001463198,-0.105635546,0.000565351,-0.000234811,0.000115198,-0.020428963,-0.066442616,9.808881760
1784241656.422981,-0.007014177,0.001463593,-0.105635546,-0.000152539,-0.000705247,-0.000008101,0.020085668,-0.056196265,9.807192802
1784241656.424993,-0.007014177,0.001463593,-0.105635546,-0.000732915,-0.001335433,-0.000081565,-0.002865471,-0.061297659,9.809828758
1784241656.427007,-0.007014067,0.001463994,-0.105635546,-0.001187777,-0.001451191,-0.000295686,0.002500770,-0.063536495,9.799955368
1784241656.429005,-0.007014067,0.001463994,-0.105635546,-0.001626880,-0.001392466,-0.000108061,-0.048140440,-0.058343641,9.790972710
1784241656.430998,-0.007014067,0.001463994,-0.105635546,-0.001945898,-0.001242475,0.000155583,-0.036930658,-0.094517611,9.817204475
1784241656.432996,-0.007016186,0.001465467,-0.105635531,-0.001993864,-0.000915884,-0.000192406,-0.018500309,-0.055682756,9.804469109
1784241656.434996,-0.007016186,0.001465467,-0.105635531,-0.001484737,-0.000539508,-0.000498431,-0.005779682,-0.079226121,9.815988541
1784241656.437003,-0.007016875,0.001464759,-0.105635531,-0.001243588,-0.000394566,0.000035882,-0.003510156,-0.041864853,9.787535667
1784241656.438997,-0.007016875,0.001464759,-0.105635531,-0.001627009,-0.000086950,0.000750294,-0.038887091,-0.070743747,9.816905975
1784241656.441002,-0.007016875,0.001464759,-0.105635531,-0.001468132,0.000388394,0.000622966,-0.027050752,-0.094577320,9.807798386
1784241656.443041,-0.007010600,0.001457331,-0.105614744,-0.000832635,0.000207939,0.000293780,-0.013502858,-0.088795945,9.789467812
1784241656.445015,-0.007010600,0.001457331,-0.105614744,-0.000788776,-0.000174353,0.000503557,-0.026372796,-0.073726036,9.835728645
1784241656.447011,-0.007010726,0.001458151,-0.105614737,-0.001042951,-0.000249226,0.000241866,-0.020528456,-0.075738505,9.793129921
1784241656.449009,-0.007010726,0.001458151,-0.105614737,-0.001244589,-0.000264495,-0.000454031,0.014203159,-0.061779674,9.783839226
1784241656.451013,-0.007010726,0.001458151,-0.105614737,-0.001157707,-0.000316351,-0.000599805,-0.030635936,-0.059743226,9.767220497
1784241656.453010,-0.007010429,0.001458456,-0.105614737,-0.000531878,-0.000074862,-0.000270306,-0.036773808,-0.084363580,9.775126457
1784241656.455015,-0.007010429,0.001458456,-0.105614737,-0.000292121,0.000262948,0.000367429,-0.020741593,-0.093631521,9.789429665
1784241656.457016,-0.007011462,0.001458841,-0.105614737,-0.000676836,0.000552841,0.000542539,-0.001490894,-0.062305849,9.760058403
1784241656.459012,-0.007011462,0.001458841,-0.105614737,-0.000809838,0.000891641,0.000147546,0.008083314,-0.047046833,9.802309036
1784241656.461014,-0.007011462,0.001458841,-0.105614737,-0.000041498,0.000895023,-0.000122131,-0.015535005,-0.033703554,9.795645714
1784241656.463015,-0.007009614,0.001458382,-0.105614737,0.000947734,0.000584103,0.000131644,-0.024115771,-0.074053302,9.814658165
1784241656.465029,-0.007009614,0.001458382,-0.105614737,0.001070634,0.000326166,0.000622272,-0.018344941,-0.041487902,9.824287415
1784241656.467022,-0.007008355,0.001458328,-0.105614744,0.000672566,0.000162403,0.000834634,-0.003859824,-0.031756315,9.815845490
1784241656.469132,-0.007008355,0.001458328,-0.105614744,0.000252819,-0.000313710,0.000698315,-0.004514868,-0.048779447,9.816631317
1784241656.471038,-0.007008355,0.001458328,-0.105614744,-0.000138572,-0.000209872,0.000637487,-0.015968177,-0.068733558,9.807974815
1784241656.473030,-0.007007803,0.001458114,-0.105614744,-0.000109243,0.000510575,0.000561162,-0.018964797,-0.095417745,9.785384178
1784241656.475039,-0.007007803,0.001458114,-0.105614744,0.000232982,0.000547746,0.000214524,-0.024631565,-0.079845607,9.811032295
1784241656.477044,-0.007007882,0.001458548,-0.105614744,0.000228682,0.000488781,-0.000237450,-0.020891255,-0.071001962,9.757741928
1784241656.479076,-0.007007882,0.001458548,-0.105614744,0.000119453,0.000768077,-0.000095734,-0.020937335,-0.071771055,9.803018570
1784241656.481053,-0.007007882,0.001458548,-0.105614744,-0.000001457,0.000591238,0.000456615,-0.034134876,-0.088871330,9.774203300
1784241656.483046,-0.007008892,0.001459104,-0.105614737,-0.000113183,-0.000164095,0.000331964,-0.025834337,-0.069375813,9.790028572
1784241656.485054,-0.007008892,0.001459104,-0.105614737,-0.000011569,-0.000570667,-0.000028528,-0.039439946,-0.079665430,9.812365532
1784241656.487051,-0.007009302,0.001459980,-0.105614737,0.000284150,-0.000419592,-0.000234143,-0.035566550,-0.095608473,9.779090881
1784241656.489047,-0.007009302,0.001459980,-0.105614737,0.000409335,-0.000360679,-0.000691241,-0.017348927,-0.071826600,9.804366112
1784241656.491048,-0.007009302,0.001459980,-0.105614737,-0.000044017,-0.000422430,-0.000610488,-0.023276089,-0.081409864,9.776503563
1784241656.493049,-0.007009455,0.001460255,-0.105614737,-0.000500188,-0.000289386,-0.000009315,-0.018751200,-0.078331634,9.776527405
1784241656.495058,-0.007009455,0.001460255,-0.105614737,-0.000772437,0.000259303,0.000034106,-0.000514478,-0.053993694,9.786564827
1784241656.497051,-0.007009082,0.001459663,-0.105614737,-0.001131621,0.000910526,0.000427920,-0.017487256,-0.047081240,9.790179253
1784241656.499056,-0.007009082,0.001459663,-0.105614737,-0.000946802,0.000946037,0.001056058,-0.042944271,-0.034061544,9.832382202
1784241656.501052,-0.007009082,0.001459663,-0.105614737,-0.000258828,0.000195184,0.000986698,0.000754413,-0.059078414,9.806259155
1784241656.503058,-0.007008643,0.001459266,-0.105614737,0.000257274,-0.000745070,0.000464657,0.012745033,-0.067509979,9.836256027
1784241656.505066,-0.007008643,0.001459266,-0.105614737,0.000639097,-0.000925124,-0.000075289,-0.008450887,-0.076999515,9.822723389
1784241656.507064,-0.007008499,0.001458994,-0.105614737,0.000651517,-0.000409440,0.000184413,-0.007387244,-0.027977191,9.794795036
1784241656.509062,-0.007008499,0.001458994,-0.105614737,-0.000261938,0.000027518,0.000805722,-0.019951951,-0.065009087,9.795441628
1784241656.511063,-0.007008499,0.001458994,-0.105614737,-0.001144354,0.000295619,0.001023041,-0.015784796,-0.089475878,9.826224327
1784241656.513064,-0.007009761,0.001459913,-0.105614737,-0.001029433,0.000286205,0.000946746,-0.017875824,-0.077301301,9.819127083
1784241656.515069,-0.007009761,0.001459913,-0.105614737,-0.000657092,0.000099564,0.000349068,-0.039917063,-0.044725671,9.814383507
1784241656.517065,-0.007008747,0.001460670,-0.105614737,-0.000620202,-0.000049661,-0.000447816,-0.010287992,-0.045394104,9.791991234
1784241656.519066,-0.007008747,0.001460670,-0.105614737,-0.000538874,-0.000123401,-0.000955850,0.003167669,-0.046014536,9.791999817
1784241656.521073,-0.007008747,0.001460670,-0.105614737,-0.000366840,0.000200200,-0.001413924,0.020845605,-0.032266114,9.779998779
1784241656.523074,-0.007006994,0.001458986,-0.105614752,-0.000262129,0.000237175,-0.001586301,-0.001806778,-0.048283312,9.804980278
1784241656.525079,-0.007006994,0.001458986,-0.105614752,0.000259311,-0.000335660,-0.001552043,-0.008642846,-0.057540663,9.795948029
1784241656.527082,-0.007006524,0.001458647,-0.105614752,0.000530202,-0.000840567,-0.001726318,0.017098205,-0.046434049,9.762867928
1784241656.529080,-0.007006524,0.001458647,-0.105614752,0.000182952,-0.001348168,-0.001584142,-0.023213116,-0.036433492,9.815348625
1784241656.531077,-0.007006524,0.001458647,-0.105614752,0.000023955,-0.001377311,-0.001424366,0.001583622,-0.066517651,9.779762268
1784241656.533078,-0.007006515,0.001458248,-0.105614752,-0.000050602,-0.000930897,-0.001323352,0.002755555,-0.079662487,9.798956871
1784241656.535083,-0.007006515,0.001458248,-0.105614752,-0.000398607,-0.000893830,-0.000710281,0.012705267,-0.072281756,9.814255714
1784241656.537083,-0.007006022,0.001457567,-0.105614752,-0.000420215,-0.001087310,0.000060407,-0.018962020,-0.056995451,9.800873756
1784241656.539083,-0.007006022,0.001457567,-0.105614752,0.000254983,-0.000998178,0.000046566,-0.004575121,-0.054523449,9.805387497
1784241656.541090,-0.007006022,0.001457567,-0.105614752,0.000441743,-0.000836750,-0.000486966,-0.023384538,-0.051565599,9.801352501
1784241656.543124,-0.007004503,0.001457384,-0.105614759,-0.000197622,-0.000530688,-0.000893872,-0.040473156,-0.091262758,9.806909561
1784241656.545103,-0.007004503,0.001457384,-0.105614759,-0.000787736,-0.000195732,-0.001623116,-0.027330572,-0.080675237,9.806542397
1784241656.547103,-0.007004904,0.001457846,-0.105614752,-0.001205270,-0.000386491,-0.001723522,-0.008878948,-0.078451753,9.775639534
1784241656.549097,-0.007004904,0.001457846,-0.105614752,-0.001224788,-0.000732826,-0.000768416,-0.032424815,-0.058052383,9.784713745
1784241656.551101,-0.007004904,0.001457846,-0.105614752,-0.000749478,-0.000951862,-0.000486861,-0.013577938,-0.057877690,9.789216995
1784241656.553100,-0.007004918,0.001458310,-0.105614752,-0.000529142,-0.001195970,-0.000950338,-0.001486054,-0.059430860,9.796840668
1784241656.555101,-0.007004918,0.001458310,-0.105614752,-0.000477259,-0.001320512,-0.000980972,-0.012130043,-0.049796663,9.784338951
1784241656.557101,-0.007003658,0.001457747,-0.105614759,-0.000289890,-0.000910204,-0.000783637,-0.007857823,-0.066949807,9.794544220
1784241656.559104,-0.007003658,0.001457747,-0.105614759,-0.000457235,-0.000249035,-0.000475879,-0.029318890,-0.062016170,9.769448280
1784241656.561107,-0.007003658,0.001457747,-0.105614759,-0.000835742,-0.000071042,-0.000181573,-0.011478576,-0.071202189,9.768959045
1784241656.563108,-0.007004692,0.001457593,-0.105614759,-0.000984231,0.000094024,-0.000093137,0.002645027,-0.051860895,9.795994759
1784241656.565111,-0.007004692,0.001457593,-0.105614759,-0.000764918,0.000373510,-0.000153668,0.000930249,-0.081501305,9.808805466
1784241656.567111,-0.007005054,0.001457762,-0.105614752,-0.000697843,0.000362232,-0.000217160,-0.012312162,-0.064607993,9.788278580
1784241656.569118,-0.007005054,0.001457762,-0.105614752,-0.001299318,0.000467364,0.000006962,-0.023027547,-0.022000169,9.801542282
1784241656.571115,-0.007005054,0.001457762,-0.105614752,-0.001863324,0.000564635,-0.000046474,0.026539661,-0.043165047,9.790246010
1784241656.573115,-0.007002583,0.001456337,-0.105614766,-0.001842413,0.000380400,-0.000338862,0.002056442,-0.062685706,9.807133675
1784241656.575118,-0.007002583,0.001456337,-0.105614766,-0.001520157,0.000259548,-0.000334680,-0.023075718,-0.062401909,9.812491417
1784241656.577121,-0.007001850,0.001457343,-0.105614766,-0.001284814,0.000295504,-0.000006008,-0.037705265,-0.084215723,9.819063187
1784241656.579130,-0.007001850,0.001457343,-0.105614766,-0.001189001,0.000051530,0.000394266,-0.004338345,-0.072412662,9.800341606
1784241656.581137,-0.007001850,0.001457343,-0.105614766,-0.000829975,-0.000199437,0.000379032,0.001228873,-0.096470647,9.771050453
1784241656.583131,-0.007003848,0.001456280,-0.105614766,-0.000474349,-0.000093853,0.000135018,-0.012610056,-0.089249030,9.788568497
1784241656.585134,-0.007003848,0.001456280,-0.105614766,-0.000431734,0.000074177,0.000155989,-0.040710967,-0.075813293,9.776969910
1784241656.587139,-0.007003590,0.001458072,-0.105614759,-0.000531579,-0.000128092,0.000512234,-0.045253467,-0.080651574,9.772452354
1784241656.589135,-0.007003590,0.001458072,-0.105614759,-0.000896443,-0.000524613,0.000824058,-0.008066248,-0.086021356,9.767521858
1784241656.591135,-0.007003590,0.001458072,-0.105614759,-0.000882906,-0.000200639,0.000423263,-0.038006503,-0.075345770,9.769353867
1784241656.593132,-0.007004255,0.001458935,-0.105614752,-0.000598192,0.000304278,-0.000173658,-0.038750783,-0.060751870,9.797691345
1784241656.595140,-0.007004255,0.001458935,-0.105614752,-0.000233984,0.000287783,0.000147776,0.006784504,-0.043414097,9.797846794
1784241656.597138,-0.007003203,0.001457787,-0.105614766,0.000050824,0.000436663,0.000527279,0.027567565,-0.068388939,9.807122231
1784241656.599148,-0.007003203,0.001457787,-0.105614766,-0.000588757,0.000683569,0.000261614,0.017584823,-0.078867272,9.786421776
1784241656.601139,-0.007003203,0.001457787,-0.105614766,-0.001169097,0.000359476,0.000263660,-0.043322511,-0.068252489,9.789569855
1784241656.603148,-0.007003849,0.001458866,-0.105614752,-0.000961670,-0.000117517,0.000282862,-0.055408858,-0.062197819,9.842052460
1784241656.605145,-0.007003849,0.001458866,-0.105614752,-0.000516094,0.000000134,0.000245754,-0.032781508,-0.085994504,9.808296204
1784241656.607156,-0.007004384,0.001459145,-0.105614752,-0.000333274,0.000409696,0.000491077,-0.010313547,-0.083591014,9.807886124
1784241656.609147,-0.007004384,0.001459145,-0.105614752,-0.000563997,0.000548550,0.000902999,-0.042702612,-0.052722681,9.809844971
1784241656.611153,-0.007004384,0.001459145,-0.105614752,-0.000570877,0.000469080,0.001021812,-0.007110715,-0.078684613,9.805229187
1784241656.613147,-0.007004635,0.001459243,-0.105614752,0.000241863,0.000675568,0.000587636,-0.012546342,-0.081046201,9.832108498
1784241656.615153,-0.007004635,0.001459243,-0.105614752,0.001161812,0.001056225,0.000309250,-0.022233902,-0.068525881,9.790036201
1784241656.617169,-0.007004158,0.001459691,-0.105614752,0.001016551,0.001197553,0.000230759,-0.045526598,-0.064265214,9.799904823
1784241656.619162,-0.007004158,0.001459691,-0.105614752,0.000765579,0.001125736,-0.000423336,-0.022499505,-0.053295817,9.791029930
1784241656.621159,-0.007004158,0.001459691,-0.105614752,0.001072148,0.001141355,-0.001097250,-0.020173490,-0.083778948,9.789043427
1784241656.623166,-0.007004477,0.001460121,-0.105614744,0.000916090,0.001420061,-0.000486143,-0.014574546,-0.065538771,9.797236443
1784241656.625168,-0.007004477,0.001460121,-0.105614744,0.000724946,0.001383299,0.001040691,0.005628333,-0.065708451,9.784701347
1784241656.627169,-0.007004371,0.001459989,-0.105614752,0.001217158,0.001118820,0.001647203,-0.015667535,-0.080850154,9.810138702
1784241656.629170,-0.007004371,0.001459989,-0.105614752,0.001327110,0.001062794,0.000789676,0.008570956,-0.082713984,9.776524544
1784241656.631174,-0.007004371,0.001459989,-0.105614752,0.000736848,0.000745536,-0.000541649,-0.000518909,-0.054028664,9.791496277
1784241656.633180,-0.007003922,0.001459126,-0.105614752,0.000484325,0.000311524,-0.001024955,-0.019695826,-0.042318877,9.817554474
1784241656.635177,-0.007003922,0.001459126,-0.105614752,0.000696220,0.000038771,-0.000347215,-0.006532949,-0.068755724,9.794084549
1784241656.637174,-0.007004064,0.001458486,-0.105614752,0.000777680,-0.000213138,0.000146100,-0.000404689,-0.079774879,9.820472717
1784241656.639175,-0.007004064,0.001458486,-0.105614752,0.000463058,-0.000010541,-0.000160885,-0.012160590,-0.050848380,9.806300163
1784241656.641177,-0.007004064,0.001458486,-0.105614752,0.000252026,0.000102072,-0.000583257,-0.017312326,-0.067890339,9.817841530
1784241656.643214,-0.007004245,0.001458132,-0.105614752,0.000362871,-0.000273151,-0.000171005,-0.004698490,-0.065223642,9.798145294
1784241656.645245,-0.007004245,0.001458132,-0.105614752,0.000428181,-0.000189556,0.000654783,0.003441553,-0.061584454,9.775759697
1784241656.647197,-0.007003841,0.001457466,-0.105614759,0.000368411,-0.000124623,0.000786866,-0.024416132,-0.063150227,9.794104576
1784241656.649226,-0.007003841,0.001457466,-0.105614759,-0.000076144,-0.000448876,0.000537395,-0.014615227,-0.068696752,9.800354004
