time_sec,roll_rad,pitch_rad,yaw_rad,gyro_x,gyro_y,gyro_z,acc_x,acc_y,acc_z
1784244719.321742,-0.007045517,0.004602528,0.818632007,0.000867801,0.000875348,-0.000417418,-0.060000606,-0.036724441,9.796482086
1784244719.323670,-0.007045517,0.004602528,0.818632007,0.001103309,0.000573569,-0.000524123,-0.083446719,-0.083422624,9.789882660
1784244719.325636,-0.007045992,0.004603789,0.818632007,0.001053586,0.000065026,-0.000098365,-0.065179870,-0.095626108,9.771888733
1784244719.327642,-0.007045992,0.004603789,0.818632007,0.000833731,-0.000468221,0.000661892,-0.068209425,-0.082954288,9.822628021
1784244719.329630,-0.007045992,0.004603789,0.818632007,0.000552083,-0.000457401,0.000892829,-0.059203569,-0.082818083,9.787219048
1784244719.331634,-0.007046591,0.004604620,0.818632007,0.000208514,-0.000082066,0.000088095,-0.033209268,-0.048233431,9.791501999
1784244719.333606,-0.007046591,0.004604620,0.818632007,-0.000152696,-0.000006208,-0.000373060,-0.037467562,-0.066128753,9.795417786
1784244719.335608,-0.007046505,0.004604395,0.818632007,-0.000509072,-0.000079699,-0.000096110,-0.035884853,-0.046851881,9.791059494
1784244719.337608,-0.007046505,0.004604395,0.818632007,-0.000330711,0.000222468,0.000036115,-0.040164895,-0.064918898,9.819184303
1784244719.339590,-0.007046505,0.004604395,0.818632007,0.000157583,0.000097963,-0.000067481,-0.082410172,-0.070583150,9.809691429
1784244719.341600,-0.007046728,0.004605402,0.818632007,0.000653842,-0.000407238,-0.000307502,-0.057122327,-0.096285664,9.787135124
1784244719.343613,-0.007046728,0.004605402,0.818632007,0.001433243,-0.000582008,-0.000444510,-0.048093837,-0.053517826,9.805351257
1784244719.345621,-0.007046209,0.004605500,0.818632007,0.001623094,-0.000455808,-0.000128316,-0.035994060,-0.055414017,9.798178673
1784244719.347660,-0.007046209,0.004605500,0.818632007,0.000753678,0.000079085,0.000084843,-0.034591623,-0.086092331,9.825331688
1784244719.349618,-0.007046209,0.004605500,0.818632007,0.000447954,0.000645872,0.000133324,-0.046295464,-0.090292089,9.806910515
1784244719.351600,-0.007047459,0.004605399,0.818632007,0.001270676,0.000794402,0.000349348,-0.053038321,-0.092734635,9.784472466
1784244719.353611,-0.007047459,0.004605399,0.818632007,0.002103060,0.000649985,0.000198802,-0.047592591,-0.047029905,9.837224960
1784244719.355603,-0.007046788,0.004605589,0.818632007,0.002144715,0.000207444,0.000321027,-0.054501556,-0.062536456,9.825014114
1784244719.357597,-0.007046788,0.004605589,0.818632007,0.001883536,-0.000187559,0.001022960,-0.055038188,-0.070114248,9.820481300
1784244719.359605,-0.007046788,0.004605589,0.818632007,0.001572952,0.000101958,0.001537336,-0.069809511,-0.066804692,9.822730064
1784244719.361600,-0.007046380,0.004605900,0.818632007,0.001223888,0.000656287,0.001895720,-0.049730640,-0.077274293,9.809680939
1784244719.363597,-0.007046380,0.004605900,0.818632007,0.001094205,0.000843772,0.001993326,-0.009007191,-0.085543193,9.828047752
1784244719.365595,-0.007046813,0.004604662,0.818632007,0.000601124,0.000772424,0.001448877,-0.046336252,-0.057076808,9.798605919
1784244719.367605,-0.007046813,0.004604662,0.818632007,-0.000011883,0.000581403,0.000690038,-0.058077712,-0.061978903,9.816046715
1784244719.369606,-0.007046813,0.004604662,0.818632007,-0.000372040,0.000081110,0.000171460,-0.031609289,-0.062762886,9.815620422
1784244719.371605,-0.007047089,0.004604327,0.818632007,-0.000618173,-0.000480741,-0.000333755,-0.034295686,-0.027524125,9.779528618
1784244719.373604,-0.007047089,0.004604327,0.818632007,-0.000323019,-0.000446396,-0.000500003,-0.055970743,-0.036842946,9.805898666
1784244719.375615,-0.007045824,0.004604788,0.818632007,0.000183191,-0.000122071,-0.000041325,-0.058508873,-0.062239874,9.790490150
1784244719.377617,-0.007045824,0.004604788,0.818632007,0.000367613,-0.000137908,0.000634104,-0.075247921,-0.072835453,9.798476219
1784244719.379625,-0.007045824,0.004604788,0.818632007,0.000484709,-0.000182158,0.000620486,-0.051487934,-0.074928828,9.798037529
1784244719.381614,-0.007046820,0.004605013,0.818632007,0.000431554,0.000205397,-0.000091336,-0.035361696,-0.077375613,9.798037529
1784244719.383609,-0.007046820,0.004605013,0.818632007,0.000172931,0.000342563,-0.000033391,-0.063397355,-0.057751074,9.798136711
1784244719.385609,-0.007046082,0.004605591,0.818632007,0.000010958,-0.000405199,0.000238814,-0.037792839,-0.056232888,9.790550232
1784244719.387611,-0.007046082,0.004605591,0.818632007,0.000364805,-0.000915483,-0.000139603,-0.052008618,-0.079949223,9.811903954
1784244719.389661,-0.007046082,0.004605591,0.818632007,0.000720448,-0.000586638,-0.000357063,-0.069825232,-0.069765538,9.798053741
1784244719.391651,-0.007046696,0.004606256,0.818632007,0.000128779,-0.000288002,0.000151415,-0.064862624,-0.067995608,9.792241096
1784244719.393650,-0.007046696,0.004606256,0.818632007,-0.000559863,-0.000429205,0.000772153,-0.033385236,-0.064617217,9.764496803
1784244719.395694,-0.007046325,0.004606117,0.818632007,-0.000337705,-0.000573216,0.000792031,-0.053336147,-0.080595776,9.779169083
1784244719.397641,-0.007046325,0.004606117,0.818632007,0.000026627,-0.000443554,0.000356846,-0.045838464,-0.053047728,9.798183441
1784244719.399637,-0.007046325,0.004606117,0.818632007,-0.000215265,-0.000451400,0.000002338,-0.034981403,-0.046815682,9.784335136
1784244719.401650,-0.007045160,0.004605778,0.818632007,0.000063642,-0.000121477,-0.000018650,-0.048539836,-0.089459635,9.819916725
1784244719.403633,-0.007045160,0.004605778,0.818632007,0.001228276,0.000431822,0.000077642,-0.055390861,-0.100861400,9.797418594
1784244719.405639,-0.007046311,0.004606464,0.818632007,0.001604601,0.000659773,0.000182168,-0.047889978,-0.076124743,9.770685196
1784244719.407665,-0.007046311,0.004606464,0.818632007,0.000845239,0.000514319,0.000038314,-0.059035011,-0.066898152,9.816462517
1784244719.409678,-0.007046311,0.004606464,0.818632007,0.000233244,-0.000005212,-0.000032775,-0.041342579,-0.050198428,9.830485344
1784244719.411655,-0.007046311,0.004606464,0.818632007,0.000039178,-0.000459835,0.000150086,-0.041342579,-0.050198428,9.830485344
1784244719.413662,-0.007045774,0.004606321,0.818632007,-0.000238686,-0.000068698,0.000142691,-0.040767688,-0.042318568,9.792429924
1784244719.415657,-0.007044326,0.004606012,0.818632007,-0.000167792,0.000323725,-0.000258802,-0.029380284,-0.100496069,9.825242043
1784244719.417733,-0.007044326,0.004606012,0.818632007,0.000076901,0.000050097,-0.000644356,-0.035377111,-0.078713126,9.797132492
1784244719.419648,-0.007044945,0.004605979,0.818632007,0.000023024,0.000245705,-0.000345738,-0.054027084,-0.062338706,9.796322823
1784244719.421664,-0.007044945,0.004605979,0.818632007,0.000434090,0.000291582,0.000160808,-0.061246943,-0.066214770,9.787323952
1784244719.423743,-0.007045063,0.004606365,0.818632007,0.000926573,-0.000322062,0.000039124,-0.049182106,-0.070007741,9.794934273
1784244719.425692,-0.007045063,0.004606365,0.818632007,0.000653954,-0.000688740,-0.000302802,-0.054945998,-0.062902354,9.814250946
1784244719.427658,-0.007045063,0.004606365,0.818632007,0.000710154,-0.000814283,-0.000604853,-0.056914996,-0.078843802,9.791282654
1784244719.429644,-0.007045102,0.004607017,0.818632007,0.001235858,-0.001234620,-0.000880112,-0.062251605,-0.073939443,9.804309845
1784244719.431652,-0.007045102,0.004607017,0.818632007,0.001293054,-0.001608208,-0.001262046,-0.047719818,-0.060192108,9.798136711
1784244719.433650,-0.007044489,0.004606891,0.818632007,0.001196997,-0.001248685,-0.001573085,-0.060519628,-0.042542174,9.796443939
1784244719.435649,-0.007044489,0.004606891,0.818632007,0.001186367,-0.000414320,-0.001327042,-0.055181235,-0.081780314,9.823097229
1784244719.437653,-0.007044489,0.004606891,0.818632007,0.000889289,0.000213962,-0.001039837,-0.070925757,-0.086757489,9.795253754
1784244719.439677,-0.007044906,0.004608142,0.818632007,0.000668169,0.000257175,-0.000742669,-0.048580632,-0.093834311,9.805092812
1784244719.441671,-0.007044906,0.004608142,0.818632007,0.000846370,-0.000128321,-0.000636280,-0.047566660,-0.086846590,9.765685081
1784244719.443668,-0.007045386,0.004607994,0.818632007,0.000633656,-0.000350463,-0.000721461,-0.042534608,-0.078449443,9.772917747
1784244719.445666,-0.007045386,0.004607994,0.818632007,-0.000065831,-0.000599405,-0.000297466,-0.045435693,-0.093842760,9.800611496
1784244719.447668,-0.007045386,0.004607994,0.818632007,-0.000286390,-0.000854541,-0.000205163,-0.055283718,-0.091505088,9.804652214
1784244719.449667,-0.007046433,0.004608229,0.818632007,0.000498563,-0.000616518,-0.000477042,-0.041247476,-0.082174383,9.790378571
1784244719.451670,-0.007046433,0.004608229,0.818632007,0.001345503,-0.000033544,-0.000437710,-0.025130788,-0.048727654,9.783435822
1784244719.453666,-0.007045493,0.004607600,0.818632007,0.001308470,0.000145103,-0.000230950,-0.038953274,-0.078155585,9.788166046
1784244719.455667,-0.007045493,0.004607600,0.818632007,0.000427626,-0.000058640,0.000096975,-0.060791459,-0.065356396,9.791812897
1784244719.457668,-0.007045493,0.004607600,0.818632007,0.000007640,0.000100184,-0.000257781,-0.047101434,-0.083885126,9.789465904
1784244719.459677,-0.007046087,0.004607962,0.818632007,0.000428173,0.000409032,-0.001001386,-0.051169045,-0.085685641,9.797968864
1784244719.461693,-0.007046087,0.004607962,0.818632007,0.000442309,0.000489640,-0.000966705,-0.043170545,-0.092079662,9.800625801
1784244719.463699,-0.007047154,0.004608280,0.818632007,0.000048989,0.000100189,-0.000529387,-0.042502545,-0.072928019,9.815544128
1784244719.465688,-0.007047154,0.004608280,0.818632007,0.000157391,-0.000509996,-0.000500826,-0.058896746,-0.056080323,9.807118416
1784244719.467690,-0.007047154,0.004608280,0.818632007,0.000513787,-0.000346523,-0.000313725,-0.046857979,-0.064536959,9.777485847
1784244719.469692,-0.007046942,0.004608910,0.818632007,0.000234458,0.000172146,0.000184982,-0.029032165,-0.073837429,9.793134689
1784244719.471697,-0.007046942,0.004608910,0.818632007,-0.000334078,0.000090042,-0.000122774,-0.044046320,-0.090276316,9.800637245
1784244719.473696,-0.007047294,0.004609768,0.818632007,-0.000297996,-0.000294071,-0.001088187,-0.082997724,-0.081805043,9.813654900
1784244719.475736,-0.007047294,0.004609768,0.818632007,0.000019550,-0.000361929,-0.001645422,-0.049465384,-0.093317620,9.797025681
1784244719.477725,-0.007047294,0.004609768,0.818632007,-0.000240215,-0.000448597,-0.000987293,-0.032681633,-0.079532266,9.781437874
1784244719.479707,-0.007048051,0.004609619,0.818632007,-0.000631576,-0.000692866,0.000032371,-0.045628335,-0.073173575,9.792674065
1784244719.481707,-0.007048051,0.004609619,0.818632007,-0.000459536,-0.000547551,0.000091744,-0.055006031,-0.069049798,9.796727180
1784244719.483718,-0.007047444,0.004610023,0.818632007,-0.000204553,-0.000172658,0.000064495,-0.054679718,-0.079342760,9.794420242
1784244719.485731,-0.007047444,0.004610023,0.818632007,-0.000129099,0.000026984,0.000477302,-0.054566361,-0.069532134,9.800759315
1784244719.487781,-0.007047444,0.004610023,0.818632007,0.000142712,0.000187307,0.000904819,-0.044609409,-0.064930990,9.765829086
1784244719.489732,-0.007047139,0.004609202,0.818632007,-0.000144687,0.000491319,0.000891599,-0.046979044,-0.073597923,9.791773796
1784244719.491717,-0.007047139,0.004609202,0.818632007,-0.000858842,0.000686881,0.000122847,-0.050658248,-0.080338120,9.801142693
1784244719.493718,-0.007047227,0.004608689,0.818632007,-0.001163748,0.000717922,-0.000256942,-0.033804934,-0.061545692,9.774378777
1784244719.495717,-0.007047227,0.004608689,0.818632007,-0.001030416,0.000283512,-0.000012093,-0.032174565,-0.072593205,9.812866211
1784244719.497719,-0.007047227,0.004608689,0.818632007,-0.000768923,0.000074490,-0.000031434,-0.051083185,-0.077307925,9.816852570
1784244719.499728,-0.007048036,0.004608836,0.818632007,-0.000770933,0.000500602,-0.000096762,-0.058069598,-0.059888542,9.837131500
1784244719.501726,-0.007048036,0.004608836,0.818632007,-0.000648443,0.000628031,0.000125602,-0.045189474,-0.073662259,9.797603607
1784244719.503730,-0.007048592,0.004608863,0.818632007,-0.000344340,0.000608225,0.000666393,-0.033464581,-0.105670422,9.804134369
1784244719.505726,-0.007048592,0.004608863,0.818632007,-0.000901061,0.000582529,0.001329832,-0.045806356,-0.051173210,9.786539078
1784244719.507729,-0.007048592,0.004608863,0.818632007,-0.001571508,0.000950294,0.000894230,-0.029533276,-0.041518677,9.785719872
1784244719.509727,-0.007047626,0.004608904,0.818632007,-0.001073084,0.001952063,-0.000482501,-0.045658197,-0.075435638,9.795798302
1784244719.511736,-0.007047626,0.004608904,0.818632007,-0.000477861,0.002531914,-0.000926296,-0.050641447,-0.043831304,9.770889282
1784244719.513779,-0.007046536,0.004608667,0.818632007,-0.000360547,0.002357347,-0.000206419,-0.029907819,-0.073654227,9.768924713
1784244719.515753,-0.007046536,0.004608667,0.818632007,-0.000297714,0.001868776,0.000586731,-0.063355982,-0.055803429,9.776181221
1784244719.517786,-0.007046536,0.004608667,0.818632007,0.000217822,0.001332007,0.000478302,-0.065791689,-0.070665516,9.791326523
1784244719.519765,-0.007046280,0.004609829,0.818632007,0.001031992,0.001245775,-0.000175950,-0.070081227,-0.091239057,9.793879509
1784244719.521753,-0.007046280,0.004609829,0.818632007,0.001212856,0.001529054,-0.000597136,-0.057041697,-0.087949283,9.811847687
1784244719.523788,-0.007046761,0.004610504,0.818632007,0.000761915,0.001381055,-0.000798556,-0.045718674,-0.080776185,9.790832520
1784244719.525768,-0.007046761,0.004610504,0.818632007,0.000358102,0.001021398,-0.000838500,-0.024741594,-0.091250949,9.776886940
1784244719.527767,-0.007046761,0.004610504,0.818632007,0.000532668,0.000698459,-0.000560313,-0.050245576,-0.083870322,9.793049812
1784244719.529762,-0.007047329,0.004611208,0.818632007,0.000892356,0.000244262,-0.000286299,-0.046784319,-0.054634482,9.834038734
1784244719.531763,-0.007047329,0.004611208,0.818632007,0.001085488,0.000272893,0.000113780,-0.019542897,-0.068569914,9.791383743
1784244719.533758,-0.007047734,0.004610142,0.818632007,0.000795464,0.000569046,0.000297772,-0.032684259,-0.076311044,9.832569122
1784244719.535766,-0.007047734,0.004610142,0.818632007,0.000114580,0.000703510,-0.000165100,-0.037539195,-0.070341647,9.820944786
1784244719.537770,-0.007047734,0.004610142,0.818632007,-0.000294572,0.000528992,-0.000250952,-0.033878583,-0.065774485,9.802148819
1784244719.539771,-0.007047305,0.004609259,0.818632007,-0.000506769,0.000126847,0.000353026,-0.087984554,-0.085792542,9.816314697
1784244719.541771,-0.007047305,0.004609259,0.818632007,-0.000716196,-0.000272076,0.000557667,-0.074819699,-0.073813438,9.809230804
1784244719.543766,-0.007047012,0.004610497,0.818632007,-0.000991240,-0.000340948,-0.000014285,-0.038311914,-0.061240558,9.802620888
1784244719.545776,-0.007047012,0.004610497,0.818632007,-0.001043116,-0.000032848,-0.000410663,-0.030691868,-0.063832104,9.775263786
1784244719.547776,-0.007047012,0.004610497,0.818632007,-0.000613491,0.000039799,-0.000248228,-0.063469745,-0.062780410,9.812450409
1784244719.549779,-0.007047380,0.004610543,0.818632007,-0.000326524,-0.000487289,0.000570852,-0.070722677,-0.031354006,9.816679955
1784244719.551779,-0.007047380,0.004610543,0.818632007,-0.000442272,-0.000778655,0.001311958,-0.042625118,-0.048868719,9.771761894
1784244719.553784,-0.007046859,0.004610106,0.818632007,-0.000316928,-0.000230565,0.000773306,-0.059569243,-0.077293716,9.767080307
1784244719.555786,-0.007046859,0.004610106,0.818632007,0.000268619,0.000476454,-0.000771912,-0.046123829,-0.078400269,9.772465706
1784244719.557792,-0.007046859,0.004610106,0.818632007,0.000455733,0.000632779,-0.001683344,-0.055715915,-0.091368981,9.786272049
1784244719.559795,-0.007047437,0.004610409,0.818632007,0.000167461,0.000203847,-0.001141541,-0.033949528,-0.071197711,9.808838844
1784244719.561796,-0.007047437,0.004610409,0.818632007,0.000116812,-0.000346437,-0.000404930,-0.032282811,-0.083579205,9.782757759
1784244719.563804,-0.007048518,0.004610259,0.818632007,0.000223645,-0.001031204,-0.000790313,-0.032161687,-0.107244596,9.834164619
1784244719.565805,-0.007048518,0.004610259,0.818632007,-0.000093194,-0.001412930,-0.001865314,-0.066779889,-0.077449746,9.802042007
1784244719.567810,-0.007048518,0.004610259,0.818632007,-0.000753606,-0.001132833,-0.001923941,-0.055656128,-0.122408055,9.803557396
1784244719.569801,-0.007050123,0.004610935,0.818632007,-0.001112235,-0.000975512,-0.000432313,-0.051552258,-0.079894550,9.803385735
1784244719.571803,-0.007050123,0.004610935,0.818632007,-0.000905638,-0.001116610,0.000437020,-0.041349083,-0.052276071,9.807607651
1784244719.573808,-0.007049787,0.004610914,0.818632007,-0.000407982,-0.001108838,0.000042534,-0.021940557,-0.045136515,9.776737213
1784244719.575808,-0.007049787,0.004610914,0.818632007,-0.000298317,-0.001117342,-0.000425843,-0.028053395,-0.067532957,9.786899567
1784244719.577808,-0.007049787,0.004610914,0.818632007,-0.000383026,-0.001249085,-0.000551391,-0.039584946,-0.054567490,9.811630249
1784244719.579809,-0.007049201,0.004610507,0.818632007,-0.000351587,-0.001111519,-0.000731661,-0.042692844,-0.054266509,9.774864197
1784244719.581819,-0.007049201,0.004610507,0.818632007,-0.000448937,-0.000416366,-0.000805706,-0.064647473,-0.050086703,9.793701172
1784244719.583819,-0.007048872,0.004611399,0.818632007,-0.000701369,0.000247686,0.000169895,-0.059530336,-0.071718231,9.802085876
1784244719.585819,-0.007048872,0.004611399,0.818632007,-0.000920317,0.000857151,0.000989566,-0.043588180,-0.089802317,9.796155930
1784244719.587827,-0.007048872,0.004611399,0.818632007,-0.001041403,0.001306480,0.000648085,-0.048333205,-0.073644266,9.800738335
1784244719.589823,-0.007049362,0.004612079,0.818632007,-0.000841723,0.001242142,-0.000811877,-0.018883932,-0.049894840,9.810335159
1784244719.591822,-0.007049362,0.004612079,0.818632007,-0.000844878,0.000836669,-0.001841574,-0.009041716,-0.052683651,9.806739807
1784244719.593828,-0.007048050,0.004610132,0.818632007,-0.000688823,0.000405947,-0.001346626,-0.049265303,-0.075932987,9.809241295
1784244719.595825,-0.007048050,0.004610132,0.818632007,0.000366935,0.000332008,-0.000658295,-0.042170733,-0.121983103,9.782501221
1784244719.597827,-0.007048050,0.004610132,0.818632007,0.000736805,0.000051116,-0.000591996,-0.050036818,-0.101575494,9.825216293
1784244719.599832,-0.007048705,0.004610270,0.818632007,0.000136736,-0.000411024,-0.001051965,-0.034753088,-0.099524803,9.824348450
1784244719.601835,-0.007048705,0.004610270,0.818632007,-0.000528810,-0.000168255,-0.001546648,-0.032787725,-0.086448818,9.809190750
1784244719.603833,-0.007049407,0.004608655,0.818632007,-0.001031411,0.000132129,-0.001473116,-0.035336088,-0.074741893,9.805675507
1784244719.605837,-0.007049407,0.004608655,0.818632007,-0.000936827,-0.000395412,-0.000863369,-0.018485880,-0.092348173,9.793922424
1784244719.607836,-0.007049407,0.004608655,0.818632007,-0.000634411,-0.000821114,0.000050312,-0.013729671,-0.069207080,9.807525635
1784244719.609841,-0.007049409,0.004607241,0.818632007,-0.000190178,-0.000485788,0.000737923,-0.040101614,-0.062392928,9.778850555
1784244719.611849,-0.007049409,0.004607241,0.818632007,0.000534157,-0.000080736,0.000734923,-0.065175027,-0.057997979,9.773026466
1784244719.613879,-0.007049308,0.004607887,0.818632007,0.000730466,-0.000392288,0.000440002,-0.072547995,-0.070782766,9.820011139
1784244719.615857,-0.007049308,0.004607887,0.818632007,0.000438056,-0.000793440,0.000042974,-0.039642200,-0.059882604,9.803077698
1784244719.617896,-0.007049308,0.004607887,0.818632007,0.000320697,-0.000530724,0.000081920,-0.031758036,-0.076500237,9.794460297
1784244719.619877,-0.007048887,0.004606941,0.818632007,-0.000037420,-0.000340052,0.000705565,-0.063511282,-0.067971513,9.786414146
1784244719.621864,-0.007048887,0.004606941,0.818632007,-0.000642503,-0.000339218,0.000797531,-0.079919480,-0.087608375,9.805102348
1784244719.623867,-0.007050086,0.004608588,0.818632007,-0.000772395,-0.000192877,0.000035450,-0.040208757,-0.071749233,9.771617889
1784244719.625871,-0.007050086,0.004608588,0.818632007,-0.000684862,0.000002760,-0.000681399,-0.027512690,-0.060733441,9.774838448
1784244719.627870,-0.007050086,0.004608588,0.818632007,-0.000891420,0.000325418,-0.000751747,-0.024126006,-0.074539408,9.820035934
1784244719.629874,-0.007049994,0.004607944,0.818632007,-0.000920130,0.000214407,-0.000353433,-0.048941176,-0.086648472,9.803344727
1784244719.631876,-0.007049994,0.004607944,0.818632007,-0.000453661,0.000038838,-0.000153279,-0.009533186,-0.095468514,9.775528908
1784244719.633869,-0.007050883,0.004606719,0.818632007,0.000126365,0.000394104,0.000031709,-0.012978365,-0.080503449,9.819558144
1784244719.635875,-0.007050883,0.004606719,0.818632007,0.000617042,0.000343977,0.000525894,-0.027587261,-0.100938417,9.821206093
1784244719.637881,-0.007050883,0.004606719,0.818632007,0.000591539,-0.000081847,0.000467934,-0.049271226,-0.040010858,9.798264503
1784244719.639883,-0.007050092,0.004607157,0.818632007,-0.000037880,-0.000060598,0.000282172,-0.059897624,-0.066206582,9.783740044
1784244719.641890,-0.007050092,0.004607157,0.818632007,-0.000277811,0.000271751,0.000925187,-0.034873292,-0.074636362,9.789985657
1784244719.643881,-0.007050611,0.004606560,0.818632007,-0.000240888,0.000008156,0.001300876,-0.044157714,-0.099260978,9.804165840
1784244719.645900,-0.007050611,0.004606560,0.818632007,-0.000850077,-0.000623006,0.000921239,-0.038987335,-0.080856070,9.789941788
1784244719.647895,-0.007050611,0.004606560,0.818632007,-0.001304969,-0.000434821,0.000666322,-0.071499474,-0.059064608,9.808431625
1784244719.649897,-0.007050276,0.004608202,0.818632007,-0.001179714,0.000146773,0.000574079,-0.020543812,-0.040296134,9.786631584
1784244719.651895,-0.007050276,0.004608202,0.818632007,-0.001218186,0.000353764,0.000848452,-0.050276179,-0.049358856,9.791478157
1784244719.653898,-0.007049512,0.004608145,0.818632007,-0.001087705,0.000282096,0.001823570,-0.031517282,-0.055957623,9.803559303
1784244719.655899,-0.007049512,0.004608145,0.818632007,-0.000361172,0.000044746,0.002263128,-0.038129754,-0.084829278,9.780054092
1784244719.657897,-0.007049512,0.004608145,0.818632007,0.000112064,-0.000324663,0.002437743,-0.028714083,-0.084600613,9.793962479
1784244719.659901,-0.007050379,0.004607544,0.818632007,0.000239705,-0.000504315,0.003034449,-0.040621843,-0.068220206,9.780158997
1784244719.661905,-0.007050379,0.004607544,0.818632007,0.000611164,-0.000199570,0.002388903,-0.038768053,-0.099288642,9.798342705
1784244719.663903,-0.007051556,0.004607234,0.818632007,0.001118601,0.000006972,0.001088537,-0.052475922,-0.119706474,9.795955658
1784244719.665907,-0.007051556,0.004607234,0.818632007,0.001522405,0.000064415,0.000574014,-0.059914988,-0.065533236,9.815126419
1784244719.667912,-0.007051556,0.004607234,0.818632007,0.001490256,0.000055008,0.000324747,-0.061164178,-0.019055832,9.834253311
1784244719.669997,-0.007048795,0.004608481,0.818632007,0.000978220,-0.000017798,0.000015653,-0.045980085,-0.102697663,9.786655426
1784244719.671922,-0.007048795,0.004608481,0.818632007,0.000553806,0.000199485,-0.000171991,-0.041111905,-0.070162110,9.802114487
1784244719.673921,-0.007048069,0.004608255,0.818632007,0.000366954,0.000048143,0.000068869,-0.044252880,-0.069311798,9.814220428
1784244719.675922,-0.007048069,0.004608255,0.818632007,0.000300074,-0.000245724,0.000712768,-0.065508932,-0.083328635,9.807385445
1784244719.677923,-0.007048069,0.004608255,0.818632007,0.000709617,0.000146342,0.001330361,-0.041243050,-0.082139410,9.785448074
1784244719.679923,-0.007048802,0.004607431,0.818632007,0.000992354,0.000648449,0.001727297,-0.068190202,-0.046428397,9.789686203
1784244719.681925,-0.007048802,0.004607431,0.818632007,0.000309039,0.000647605,0.001724176,-0.029766323,-0.059974115,9.798154831
1784244719.683929,-0.007048803,0.004606275,0.818632007,-0.000387705,0.000508905,0.001107055,-0.029025024,-0.037406929,9.773641586
1784244719.685925,-0.007048803,0.004606275,0.818632007,-0.000365451,0.000888792,0.000552700,-0.038584262,-0.047684692,9.787016869
1784244719.687936,-0.007048803,0.004606275,0.818632007,-0.000367212,0.001253512,0.000510356,-0.033153675,-0.042120967,9.813958168
1784244719.689934,-0.007047792,0.004606001,0.818632007,-0.000229167,0.001031616,0.000495065,-0.031049129,-0.054594051,9.799981117
1784244719.691944,-0.007047792,0.004606001,0.818632007,0.000285579,0.000616278,0.000031875,-0.019588752,-0.034989338,9.794737816
1784244719.693931,-0.007045891,0.004604889,0.818632007,0.000227899,0.000374032,-0.000576682,0.014700379,-0.055323560,9.820194244
1784244719.695945,-0.007045891,0.004604889,0.818632007,-0.000085659,0.000269605,-0.000550693,-0.030413248,-0.074906886,9.820026398
1784244719.697938,-0.007045891,0.004604889,0.818632007,0.000043236,-0.000188748,-0.000461115,-0.051397543,-0.102889419,9.823413849
1784244719.699952,-0.007046916,0.004604655,0.818632007,0.000077525,-0.001025766,-0.000434859,-0.085738696,-0.087828971,9.783575058
1784244719.701943,-0.007046916,0.004604655,0.818632007,-0.000039815,-0.001365553,-0.000161729,-0.080694541,-0.076499596,9.819519997
1784244719.703945,-0.007046443,0.004605966,0.818632007,-0.000171885,-0.000980506,-0.000302291,-0.056463186,-0.077203959,9.811916351
1784244719.705952,-0.007046443,0.004605966,0.818632007,-0.000339568,-0.000679573,-0.000675466,-0.052925594,-0.082523741,9.797538757
1784244719.707944,-0.007046443,0.004605966,0.818632007,-0.000700285,-0.000764314,-0.000859133,-0.027750442,-0.043257214,9.774950027
1784244719.709944,-0.007045835,0.004605271,0.818632007,-0.001107896,-0.000737478,-0.000505270,-0.016992401,-0.044291109,9.774953842
1784244719.711946,-0.007045835,0.004605271,0.818632007,-0.001472521,-0.000180321,0.000260853,-0.031093674,-0.060214046,9.771251678
1784244719.713978,-0.007045289,0.004605158,0.818632007,-0.001899039,0.000336951,0.000548554,-0.054971907,-0.067159384,9.782840729
1784244719.716001,-0.007045289,0.004605158,0.818632007,-0.001755080,0.000785743,-0.000035015,-0.058832146,-0.089918070,9.776863098
1784244719.718003,-0.007045289,0.004605158,0.818632007,-0.000906721,0.001197874,-0.000981986,-0.074968167,-0.085927464,9.811842918
1784244719.719972,-0.007045820,0.004607069,0.818632007,-0.000022342,0.001115370,-0.001366673,-0.016823869,-0.065961160,9.797678947
1784244719.721963,-0.007045820,0.004607069,0.818632007,0.000401671,0.000874219,-0.001088665,-0.027283322,-0.041496556,9.778549194
1784244719.723953,-0.007045574,0.004606410,0.818632007,0.000640734,0.000933174,-0.000866892,-0.024599161,-0.076347768,9.823160172
1784244719.725958,-0.007045574,0.004606410,0.818632007,0.000980744,0.001244875,-0.000793830,-0.027841013,-0.085209511,9.815031052
1784244719.727962,-0.007045574,0.004606410,0.818632007,0.001043550,0.001130959,-0.000580333,-0.008247080,-0.061206404,9.806685448
1784244719.729963,-0.007045228,0.004605490,0.818632007,0.000706410,0.000746335,-0.000463195,-0.024577355,-0.039396174,9.793360710
1784244719.731961,-0.007045228,0.004605490,0.818632007,0.000011187,0.000634531,-0.000630363,-0.027605882,-0.027121441,9.836923599
1784244719.733965,-0.007044102,0.004604458,0.818632007,-0.000964061,0.000683910,-0.000716055,-0.013994647,-0.054377288,9.801793098
1784244719.735970,-0.007044102,0.004604458,0.818632007,-0.001404390,0.000661754,-0.000579806,-0.060800433,-0.101396173,9.819378853
1784244719.737963,-0.007044102,0.004604458,0.818632007,-0.000947841,0.000602009,-0.000605920,-0.057456173,-0.122426413,9.809385300
1784244719.739964,-0.007046024,0.004605409,0.818632007,-0.000194724,0.000898482,-0.001037573,-0.037622239,-0.078697115,9.798923492
1784244719.741972,-0.007046024,0.004605409,0.818632007,0.000194667,0.001405049,-0.001495077,-0.020139815,-0.043491676,9.794234276
1784244719.743978,-0.007045249,0.004604063,0.818632007,-0.000085181,0.001579838,-0.001451253,0.000121566,-0.076736733,9.770278931
1784244719.745981,-0.007045249,0.004604063,0.818632007,-0.000384579,0.001292557,-0.001151012,-0.024329586,-0.055982839,9.794149399
1784244719.747973,-0.007045249,0.004604063,0.818632007,-0.000067886,0.000288091,-0.001351062,-0.062118802,-0.062759489,9.807070732
1784244719.749974,-0.007045435,0.004604565,0.818632007,0.000342122,-0.000641916,-0.001768393,-0.047591507,-0.051073913,9.775778770
1784244719.751973,-0.007045435,0.004604565,0.818632007,0.000491153,-0.000006850,-0.001577941,-0.079322837,-0.076719970,9.784997940
1784244719.753980,-0.007046023,0.004606431,0.818632007,0.000352628,0.001103880,-0.001020788,-0.087435737,-0.079739496,9.783177376
1784244719.755979,-0.007046023,0.004606431,0.818632007,0.000007996,0.001175925,-0.000330573,-0.069249704,-0.094202235,9.831073761
1784244719.757986,-0.007046023,0.004606431,0.818632007,-0.000155984,0.000956486,0.000333331,-0.037343107,-0.091388844,9.819017410
1784244719.759985,-0.007046902,0.004606339,0.818632007,-0.000013424,0.001429087,-0.000045569,-0.028029064,-0.101688683,9.801475525
1784244719.761986,-0.007046902,0.004606339,0.818632007,0.000162728,0.001685031,-0.000719111,-0.026077779,-0.051134020,9.808527946
1784244719.763984,-0.007045934,0.004605899,0.818632007,0.000447587,0.001521502,-0.000182527,-0.046163570,-0.042745233,9.799145699
1784244719.765985,-0.007045934,0.004605899,0.818632007,0.000944350,0.001486704,0.000624490,-0.051443860,-0.071338780,9.797163963
1784244719.767989,-0.007045934,0.004605899,0.818632007,0.001053217,0.001324295,0.000525259,-0.068831027,-0.059286702,9.834884644
1784244719.769993,-0.007045516,0.004606762,0.818632007,0.000679070,0.001032097,0.000252710,-0.043811828,-0.069377951,9.822738647
1784244719.771989,-0.007045516,0.004606762,0.818632007,0.000241325,0.000604692,0.000106860,-0.033454787,-0.066787437,9.817833900
1784244719.773992,-0.007045882,0.004605944,0.818632007,-0.000475594,0.000244401,-0.000126659,-0.031737316,-0.073094606,9.819588661
1784244719.775991,-0.007045882,0.004605944,0.818632007,-0.001215467,0.000052623,0.000298983,-0.051014028,-0.072304040,9.806123734
1784244719.777993,-0.007045882,0.004605944,0.818632007,-0.001714054,0.000343353,0.000792040,-0.054636162,-0.076972589,9.776053429
1784244719.779995,-0.007046122,0.004606140,0.818632007,-0.002071072,0.001025937,0.000684512,-0.051002745,-0.072215021,9.793571472
1784244719.782007,-0.007046122,0.004606140,0.818632007,-0.001791027,0.001231595,0.000244376,-0.033945326,-0.070759289,9.810186386
1784244719.784009,-0.007046289,0.004606254,0.818632007,-0.001193167,0.000877175,-0.000728307,-0.068794101,-0.094963990,9.811342239
1784244719.785998,-0.007046289,0.004606254,0.818632007,-0.000646774,0.000833889,-0.001453574,-0.074700944,-0.101144820,9.809056282
1784244719.788002,-0.007046289,0.004606254,0.818632007,-0.000586830,0.001519882,-0.000985614,-0.039358474,-0.074969590,9.781908989
1784244719.790044,-0.007046631,0.004605824,0.818632007,-0.000886498,0.002163774,-0.000066794,-0.029964613,-0.076939411,9.789975166
1784244719.792016,-0.007046631,0.004605824,0.818632007,-0.000495780,0.002016738,0.000202951,-0.040184114,-0.066691667,9.816482544
1784244719.794051,-0.007046478,0.004605777,0.818632007,0.000053243,0.001294358,0.000468658,-0.035226244,-0.066580027,9.791831017
1784244719.796015,-0.007046478,0.004605777,0.818632007,-0.000326681,0.000595200,0.000876641,-0.035990328,-0.091758668,9.805566788
1784244719.798014,-0.007046478,0.004605777,0.818632007,-0.001107918,0.000218302,0.001011323,-0.072275892,-0.086772040,9.799736023
1784244719.800016,-0.007047694,0.004606864,0.818632007,-0.001203275,0.000280612,0.001112067,-0.052012529,-0.044011191,9.798684120
1784244719.802012,-0.007047694,0.004606864,0.818632007,-0.000727762,0.000536782,0.001079187,-0.070043065,-0.048890032,9.824189186
1784244719.804010,-0.007047381,0.004607072,0.818632007,-0.000401904,0.000507299,0.001108153,-0.040512048,-0.059248272,9.778422356
1784244719.806013,-0.007047381,0.004607072,0.818632007,-0.000381557,0.000417935,0.000839703,-0.052634191,-0.057123508,9.816532135
1784244719.808016,-0.007047381,0.004607072,0.818632007,-0.000708376,0.000431282,0.000192738,-0.042671312,-0.050854523,9.799097061
1784244719.810015,-0.007046350,0.004606918,0.818632007,-0.001218670,0.000423838,0.000063888,-0.059213866,-0.082494125,9.804705620
1784244719.812026,-0.007046350,0.004606918,0.818632007,-0.000992736,0.000572192,0.000260657,-0.073254764,-0.056703236,9.794548035
1784244719.814056,-0.007045678,0.004608057,0.818632007,-0.000155223,0.000963212,0.000045611,-0.069848470,-0.071570106,9.799835205
1784244719.816039,-0.007045678,0.004608057,0.818632007,0.000322125,0.000691081,-0.000042155,-0.038684499,-0.092550136,9.795695305
1784244719.818062,-0.007045678,0.004608057,0.818632007,0.000210907,-0.000045069,0.000359529,-0.039023135,-0.084785968,9.775569916
1784244719.820040,-0.007047107,0.004608542,0.818632007,-0.000534804,-0.000178308,0.000671393,-0.020829104,-0.063621908,9.790966988
1784244719.822041,-0.007047107,0.004608542,0.818632007,-0.001707465,-0.000032491,0.000555951,-0.046034381,-0.031593900,9.805942535
1784244719.824046,-0.007045815,0.004608728,0.818632007,-0.001660476,-0.000170416,0.000544132,-0.071001478,-0.055438980,9.801731110
1784244719.826035,-0.007045815,0.004608728,0.818632007,-0.000558699,-0.000175183,0.000664114,-0.036150515,-0.068401709,9.797645569
1784244719.828029,-0.007045815,0.004608728,0.818632007,-0.000347656,0.000190585,0.000283290,-0.049542300,-0.062008649,9.804847717
1784244719.830035,-0.007045511,0.004608650,0.818632007,-0.000285393,0.000350256,-0.000030980,-0.040585008,-0.064687401,9.787354469
1784244719.832042,-0.007045511,0.004608650,0.818632007,0.000137789,0.000335288,-0.000061484,-0.054665789,-0.076801255,9.815058708
1784244719.834036,-0.007045635,0.004608622,0.818632007,0.000265430,0.000344221,-0.000065830,-0.046918161,-0.068254188,9.796291351
1784244719.836040,-0.007045635,0.004608622,0.818632007,0.000356747,0.000258979,0.000219318,-0.050662909,-0.079969645,9.812352180
1784244719.838043,-0.007045635,0.004608622,0.818632007,0.000711737,0.000104218,0.000354781,-0.044183955,-0.101494424,9.803254128
1784244719.840037,-0.007047644,0.004608573,0.818632007,0.001426963,0.000348418,0.000149298,-0.044716034,-0.073067419,9.776087761
1784244719.842043,-0.007047644,0.004608573,0.818632007,0.001553284,0.000853339,0.000199370,-0.068903945,-0.068372741,9.789544106
1784244719.844041,-0.007047381,0.004609580,0.818632007,0.001064451,0.001028999,0.000306061,-0.033080269,-0.075078703,9.785949707
1784244719.846040,-0.007047381,0.004609580,0.818632007,0.000920964,0.000653573,-0.000088030,-0.046081122,-0.072389551,9.809267044
1784244719.848038,-0.007047381,0.004609580,0.818632007,0.000941757,0.000218063,-0.000592446,-0.072030246,-0.067001343,9.791343689
1784244719.850040,-0.007046988,0.004610785,0.818632007,0.000906760,0.000279324,-0.000957879,-0.084204696,-0.071773678,9.791301727
1784244719.852043,-0.007046988,0.004610785,0.818632007,0.000447383,0.000346186,-0.001152451,-0.073244363,-0.093400471,9.788483620
1784244719.854041,-0.007049271,0.004612852,0.818632007,0.000076311,0.000429626,-0.001023282,-0.043930322,-0.083686903,9.755846024
1784244719.856046,-0.007049271,0.004612852,0.818632007,-0.000026815,0.000902591,-0.000926621,-0.027112890,-0.064367391,9.781092644
1784244719.858046,-0.007049271,0.004612852,0.818632007,-0.000501938,0.001035685,-0.000894123,-0.062582068,-0.064894982,9.793160439
1784244719.860053,-0.007049694,0.004613554,0.818632007,-0.000185754,0.000513529,-0.000872845,-0.057772871,-0.038903955,9.783917427
1784244719.862057,-0.007049694,0.004613554,0.818632007,0.000768622,0.000232557,-0.000729277,-0.070890635,-0.046864118,9.792819023
1784244719.864056,-0.007049199,0.004614868,0.818632007,0.000580650,0.000341722,-0.000353567,-0.045883991,-0.059080709,9.764519691
1784244719.866054,-0.007049199,0.004614868,0.818632007,-0.000656871,0.000648884,-0.000044243,-0.067759685,-0.048604000,9.779809952
1784244719.868058,-0.007049199,0.004614868,0.818632007,-0.001433006,0.000728299,0.000018025,-0.061197862,-0.062179945,9.786902428
1784244719.870064,-0.007048887,0.004615544,0.818632007,-0.000824770,0.000559610,-0.000278995,-0.054240331,-0.078611575,9.816842079
1784244719.872069,-0.007048887,0.004615544,0.818632007,0.000146479,0.000825903,-0.000311846,-0.066443510,-0.087663203,9.788526535
1784244719.874061,-0.007050377,0.004616606,0.818632007,0.000385320,0.001325954,0.000477515,-0.049230672,-0.075659543,9.770686150
1784244719.876065,-0.007050377,0.004616606,0.818632007,0.000283424,0.001208672,0.000814761,-0.044108566,-0.058446251,9.798150063
1784244719.878066,-0.007050377,0.004616606,0.818632007,0.000567363,0.000620596,0.000209775,-0.043467153,-0.042341311,9.800495148
1784244719.880069,-0.007048893,0.004616606,0.818632007,0.000447829,0.000123268,-0.000159647,-0.050181758,-0.042534508,9.776726723
1784244719.882073,-0.007048893,0.004616606,0.818632007,-0.000797303,-0.000246535,-0.000105715,-0.027044147,-0.131709799,9.799939156
1784244719.884072,-0.007053048,0.004615617,0.818632066,-0.001431534,-0.000409662,-0.000263971,-0.009164925,-0.100567184,9.798810005
1784244719.886080,-0.007053048,0.004615617,0.818632066,-0.000555306,-0.000471928,-0.000214352,-0.050244812,-0.045463927,9.810781479
1784244719.888075,-0.007053048,0.004615617,0.818632066,0.000335757,-0.000503452,0.000056948,-0.061107643,-0.090547152,9.806447029
1784244719.890069,-0.007053633,0.004616169,0.818632066,0.000673554,-0.000918268,0.000125547,-0.090340436,-0.095161431,9.814907074
1784244719.892077,-0.007053633,0.004616169,0.818632066,0.001007279,-0.001385941,0.000589929,-0.062399786,-0.087266989,9.788534164
1784244719.894078,-0.007054236,0.004616743,0.818632126,0.001006358,-0.000878263,0.000968669,-0.050660618,-0.081167266,9.791721344
1784244719.896075,-0.007054236,0.004616743,0.818632126,0.000374756,-0.000479416,0.000557768,-0.042011954,-0.069766238,9.811080933
1784244719.898074,-0.007054236,0.004616743,0.818632126,-0.000362115,-0.000707631,0.000218997,-0.076296188,-0.047367096,9.810295105
1784244719.900081,-0.007053029,0.004618362,0.818632126,-0.000770025,-0.000589278,0.000298928,-0.058324628,-0.046195954,9.802249908
1784244719.902081,-0.007053029,0.004618362,0.818632126,-0.000645075,-0.000036532,-0.000145023,-0.037922196,-0.067790851,9.777921677
1784244719.904082,-0.007053014,0.004618249,0.818632126,0.000166806,0.000159931,-0.000396233,-0.058618836,-0.071618438,9.786396027
1784244719.906083,-0.007053014,0.004618249,0.818632126,0.001057324,-0.000351353,-0.000058905,-0.071829669,-0.088823639,9.772373199
1784244719.908084,-0.007053014,0.004618249,0.818632126,0.001366210,-0.000413282,0.000043610,-0.065213129,-0.098320238,9.772768974
1784244719.910085,-0.007055015,0.004618656,0.818632126,0.001416891,0.000120011,0.000030978,-0.079760201,-0.074598432,9.802495956
1784244719.912101,-0.007055015,0.004618656,0.818632126,0.001380066,0.000365643,-0.000033293,-0.049692787,-0.111728549,9.803183556
1784244719.914096,-0.007057360,0.004618888,0.818632126,0.001188360,0.000260809,-0.000479096,-0.036636457,-0.071931951,9.790897369
1784244719.916093,-0.007057360,0.004618888,0.818632126,0.000632770,0.000206148,-0.000678037,-0.048654448,-0.026126634,9.797905922
1784244719.918092,-0.007057360,0.004618888,0.818632126,0.000066069,0.000397526,-0.000081808,-0.011689744,-0.050679248,9.781642914
1784244719.920105,-0.007056715,0.004617775,0.818632126,-0.000130337,0.000568282,0.000732146,-0.035168357,-0.061665174,9.793654442
1784244719.922111,-0.007056715,0.004617775,0.818632126,-0.000332462,0.000225998,0.001214097,-0.046609238,-0.080710635,9.783209801
1784244719.924101,-0.007057182,0.004617264,0.818632126,-0.000664205,-0.000398350,0.001400345,-0.071465425,-0.093954094,9.800138474
1784244719.926106,-0.007057182,0.004617264,0.818632126,-0.001138372,-0.000651687,0.001374311,-0.063418999,-0.059542920,9.798125267
1784244719.928103,-0.007057182,0.004617264,0.818632126,-0.001516641,-0.000599905,0.001031678,-0.039278150,-0.068256527,9.782848358
1784244719.930107,-0.007057106,0.004617236,0.818632126,-0.001395933,-0.000710227,0.000745775,-0.040574245,-0.062981404,9.799470901
1784244719.932111,-0.007057106,0.004617236,0.818632126,-0.000404509,-0.000836557,0.000574780,-0.078426771,-0.077957712,9.768402100
1784244719.934106,-0.007057723,0.004619060,0.818632126,0.000244420,-0.001035348,0.000377294,-0.057556558,-0.054928564,9.831784248
1784244719.936110,-0.007057723,0.004619060,0.818632126,-0.000367192,-0.001079916,0.000466936,-0.063377157,-0.055565327,9.805771828
1784244719.938112,-0.007057723,0.004619060,0.818632126,-0.000770219,-0.000501533,0.000644022,-0.040860802,-0.050753511,9.781615257
1784244719.940110,-0.007056849,0.004618290,0.818632126,-0.000790484,0.000079854,0.000611886,-0.062258165,-0.075207010,9.793542862
1784244719.942123,-0.007056849,0.004618290,0.818632126,-0.000716604,0.000305438,0.000425048,-0.044551518,-0.094769262,9.803297043
1784244719.944118,-0.007057918,0.004618180,0.818632126,-0.000485110,0.000214872,0.000450266,-0.041380748,-0.092547439,9.800174713
1784244719.946116,-0.007057918,0.004618180,0.818632126,-0.000610960,-0.000298794,0.000610090,-0.037163526,-0.077813290,9.799826622
1784244719.948116,-0.007057918,0.004618180,0.818632126,-0.000703203,-0.000744431,0.000635861,-0.056967828,-0.084123939,9.777797699
1784244719.950122,-0.007058620,0.004618845,0.818632126,-0.000514693,-0.000785172,0.000873246,-0.064857684,-0.066740759,9.804801941
1784244719.952124,-0.007058620,0.004618845,0.818632126,-0.000589960,-0.000538917,0.000451667,-0.074334629,-0.034726351,9.793342590
1784244719.954139,-0.007056191,0.004620006,0.818632126,-0.001132389,-0.000370384,-0.000163164,-0.063586898,-0.073026262,9.804314613
1784244719.956146,-0.007056191,0.004620006,0.818632126,-0.001203808,-0.000255415,0.000093430,-0.052919485,-0.045696151,9.785223007
1784244719.958134,-0.007056191,0.004620006,0.818632126,-0.000856664,0.000072702,0.000823905,-0.028784798,-0.090427279,9.794372559
1784244719.960130,-0.007057103,0.004618961,0.818632126,-0.000695298,0.000274838,0.001662579,-0.036651000,-0.071236357,9.819147110
1784244719.962138,-0.007057103,0.004618961,0.818632126,-0.000231506,0.000565341,0.001787493,-0.045487244,-0.062333472,9.780191422
1784244719.964156,-0.007057356,0.004618891,0.818632126,0.000636406,0.001153443,0.001195462,-0.037347533,-0.091423824,9.823949814
1784244719.966141,-0.007057356,0.004618891,0.818632126,0.001409796,0.001256362,0.000762585,-0.051701453,-0.055235051,9.801301956
1784244719.968140,-0.007057356,0.004618891,0.818632126,0.001628419,0.001174279,0.000247246,-0.048211042,-0.062953621,9.809326172
1784244719.970147,-0.007057211,0.004618378,0.818632126,0.001484321,0.001442957,-0.000325395,-0.038035724,-0.075171262,9.807912827
1784244719.972147,-0.007057211,0.004618378,0.818632126,0.001197575,0.001725661,0.000069969,-0.033594854,-0.080861472,9.780979156
1784244719.974151,-0.007057442,0.004617905,0.818632126,0.000913937,0.001856211,0.001043418,-0.006519997,-0.066627204,9.809791565
1784244719.976144,-0.007057442,0.004617905,0.818632126,0.001136470,0.001462038,0.001533899,-0.050695822,-0.047097400,9.789250374
1784244719.978148,-0.007057442,0.004617905,0.818632126,0.001186127,0.000640882,0.001111828,-0.049345288,-0.047079671,9.784319878
1784244719.980154,-0.007055723,0.004617799,0.818632126,0.000520657,0.000181552,-0.000062475,-0.068360306,-0.060334269,9.792287827
1784244719.982158,-0.007055723,0.004617799,0.818632126,0.000201941,0.000151241,-0.000934034,-0.051663037,-0.089279480,9.800186157
1784244719.984167,-0.007057528,0.004618241,0.818632126,0.000473569,0.000170088,-0.000322353,-0.065562032,-0.087395266,9.812290192
1784244719.986162,-0.007057528,0.004618241,0.818632126,0.000452756,0.000216751,0.001007625,-0.061408471,-0.078837179,9.798451424
1784244719.988183,-0.007057528,0.004618241,0.818632126,0.000419041,0.000109719,0.001524390,-0.057408761,-0.082841076,9.787220955
1784244719.990161,-0.007058578,0.004619665,0.818632126,0.000523594,0.000141892,0.001324009,-0.045902569,-0.058416903,9.797252655
1784244719.992162,-0.007058578,0.004619665,0.818632126,0.000331019,0.000331992,0.000889705,-0.049453355,-0.092412159,9.795685768
1784244719.994160,-0.007059895,0.004619648,0.818632126,-0.000042436,0.000512753,-0.000040576,-0.061119270,-0.091449440,9.807338715
1784244719.996162,-0.007059895,0.004619648,0.818632126,-0.000507950,0.001080384,-0.001023036,-0.080869474,-0.055690497,9.791856766
1784244719.998164,-0.007059895,0.004619648,0.818632126,-0.000541612,0.001468287,-0.001034385,-0.028142298,-0.075529486,9.777433395
1784244720.000199,-0.007059736,0.004618572,0.818632126,0.000059341,0.001147939,-0.000683981,-0.058595590,-0.069813877,9.784613609
1784244720.002180,-0.007059736,0.004618572,0.818632126,0.000785167,0.000680793,-0.000971115,-0.056203395,-0.092885166,9.811367035
1784244720.004173,-0.007060394,0.004619190,0.818632126,0.000970976,0.000485629,-0.000764833,-0.041073292,-0.066209942,9.813345909
1784244720.006217,-0.007060394,0.004619190,0.818632126,0.000489643,0.000310010,0.000052191,-0.008463275,-0.081555068,9.770239830
1784244720.008185,-0.007060394,0.004619190,0.818632126,0.000427661,0.000037402,0.000249898,-0.051139582,-0.083426766,9.795294762
1784244720.010178,-0.007061401,0.004619218,0.818632126,0.001125280,-0.000165325,-0.000236731,-0.047501970,-0.078230768,9.814160347
1784244720.012178,-0.007061401,0.004619218,0.818632126,0.001491756,-0.000059050,-0.000662252,-0.057552151,-0.095320396,9.778173447
1784244720.014182,-0.007062550,0.004619730,0.818632126,0.000979690,0.000005119,-0.000377842,-0.059489880,-0.068156801,9.805246353
1784244720.016235,-0.007062550,0.004619730,0.818632126,-0.000319897,-0.000264675,0.000241303,-0.049333036,-0.081330776,9.812346458
1784244720.018228,-0.007062550,0.004619730,0.818632126,-0.001174050,-0.000229111,0.000838199,-0.064339116,-0.060116109,9.817398071
1784244720.020269,-0.007061961,0.004620481,0.818632126,-0.001179189,-0.000011202,0.001166771,-0.068823896,-0.060446162,9.808875084
1784244720.022202,-0.007061961,0.004620481,0.818632126,-0.001348677,-0.000208440,0.001042849,-0.052910287,-0.082402907,9.780502319
1784244720.024191,-0.007062170,0.004620773,0.818632126,-0.001475438,-0.000710525,0.000697846,-0.043646742,-0.055916861,9.819686890
1784244720.026197,-0.007062170,0.004620773,0.818632126,-0.001023866,-0.000885712,0.000701166,-0.055880759,-0.067643538,9.789562225
1784244720.028190,-0.007062170,0.004620773,0.818632126,-0.000060241,-0.000787847,0.000976627,-0.068192564,-0.044420704,9.822427750
1784244720.030193,-0.007061523,0.004621789,0.818632126,0.000946499,-0.000936493,0.001284866,-0.058773831,-0.044573229,9.826918602
1784244720.032194,-0.007061523,0.004621789,0.818632126,0.000881421,-0.001393831,0.001127114,-0.062572621,-0.026825255,9.795197487
1784244720.034197,-0.007060031,0.004622057,0.818632126,-0.000012594,-0.001534887,0.000524520,-0.055893648,-0.067745298,9.803908348
1784244720.036199,-0.007060031,0.004622057,0.818632126,-0.000923757,-0.000590889,0.000090956,-0.087531120,-0.049386866,9.799512863
1784244720.038198,-0.007060031,0.004622057,0.818632126,-0.001473510,0.000634774,-0.000095351,-0.002793262,-0.056674968,9.789683342
1784244720.040196,-0.007059581,0.004620297,0.818632126,-0.001162069,0.000563698,0.000143776,-0.024530694,-0.072970383,9.789110184
1784244720.042209,-0.007059581,0.004620297,0.818632126,-0.000778927,-0.000136297,0.000079940,-0.055924855,-0.108823560,9.783917427
1784244720.044205,-0.007061185,0.004620260,0.818632126,-0.001234606,-0.000236797,-0.000868040,-0.049117379,-0.099791959,9.824780464
1784244720.046204,-0.007061185,0.004620260,0.818632126,-0.001768514,-0.000490702,-0.001090615,-0.043242075,-0.097912706,9.801933289
1784244720.048210,-0.007061185,0.004620260,0.818632126,-0.001654582,-0.000759618,-0.000187370,-0.057134863,-0.095574170,9.813142776
1784244720.050240,-0.007062385,0.004620826,0.818632126,-0.001819387,-0.000466760,0.000454913,-0.054770339,-0.085731871,9.810967445
1784244720.052214,-0.007062385,0.004620826,0.818632126,-0.001830513,-0.000305932,0.000489445,-0.038845502,-0.069199547,9.788671494
1784244720.054210,-0.007061711,0.004620666,0.818632126,-0.000750695,0.000052595,0.000337157,-0.049090602,-0.023995547,9.814058304
1784244720.056212,-0.007061711,0.004620666,0.818632126,0.000236935,0.000562050,0.000480645,-0.055411406,-0.066270433,9.784640312
1784244720.058218,-0.007061711,0.004620666,0.818632126,0.000370443,0.000342981,0.000996147,-0.035503656,-0.090248838,9.781366348
1784244720.060214,-0.007062110,0.004620275,0.818632126,0.000334085,-0.000463249,0.001385921,-0.048600022,-0.096013702,9.796560287
1784244720.062226,-0.007062110,0.004620275,0.818632126,0.000198391,-0.001261297,0.001000603,-0.066206902,-0.068369076,9.784167290
1784244720.064224,-0.007062049,0.004620919,0.818632126,0.000376946,-0.001322242,0.000488570,-0.049723379,-0.039627105,9.808129311
1784244720.066226,-0.007062049,0.004620919,0.818632126,0.000643670,-0.000397263,0.000301695,-0.038326077,-0.063378617,9.788261414
1784244720.068227,-0.007062049,0.004620919,0.818632126,0.000333032,0.000372790,0.000038929,-0.041526664,-0.068672568,9.782396317
1784244720.070221,-0.007062382,0.004620933,0.818632126,0.000279667,0.000194266,-0.000210493,-0.038586218,-0.048510663,9.777149200
1784244720.072228,-0.007062382,0.004620933,0.818632126,0.000638277,0.000024260,-0.000445941,-0.041556176,-0.070121378,9.797182083
1784244720.074229,-0.007062068,0.004621616,0.818632126,0.001230061,0.000329937,-0.000795063,-0.054357015,-0.052074365,9.802665710
1784244720.076229,-0.007062068,0.004621616,0.818632126,0.001565617,0.000120452,-0.000853384,-0.061167892,-0.096291162,9.795201302
1784244720.078232,-0.007062068,0.004621616,0.818632126,0.001317417,-0.000388378,-0.000645912,-0.038409468,-0.107300453,9.790221214
1784244720.080234,-0.007063623,0.004621404,0.818632126,0.001071025,-0.000198602,-0.000780581,-0.050281424,-0.086990155,9.790788651
1784244720.082250,-0.007063623,0.004621404,0.818632126,0.000968227,0.000265020,-0.001237788,-0.047957081,-0.081922814,9.767062187
1784244720.084234,-0.007064158,0.004621335,0.818632126,0.000708710,0.000297441,-0.001356232,-0.047055401,-0.079469115,9.798460960
1784244720.086236,-0.007064158,0.004621335,0.818632126,0.000209399,0.000246983,-0.000558883,-0.053311341,-0.077968426,9.787705421
1784244720.088238,-0.007064158,0.004621335,0.818632126,0.000008694,0.000296804,0.000293495,-0.068119958,-0.077384792,9.795316696
1784244720.090244,-0.007064529,0.004621968,0.818632126,0.000243516,0.000314975,0.000265083,-0.078231968,-0.059804343,9.798557281
1784244720.092245,-0.007064529,0.004621968,0.818632126,0.000161276,0.000277942,0.000081237,-0.043611001,-0.054013733,9.804007530
1784244720.094243,-0.007063773,0.004621489,0.818632126,0.000061612,-0.000072815,-0.000018457,-0.039860327,-0.040630430,9.805442810
1784244720.096247,-0.007063773,0.004621489,0.818632126,0.000441317,-0.000349886,-0.000307106,-0.038484532,-0.038792241,9.796489716
1784244720.098251,-0.007063773,0.004621489,0.818632126,0.000377539,-0.000225069,-0.000353638,-0.042714760,-0.054844841,9.793243408
1784244720.100253,-0.007062864,0.004621450,0.818632126,-0.000121989,-0.000202028,-0.000262272,-0.054860912,-0.058177907,9.779760361
1784244720.102261,-0.007062864,0.004621450,0.818632126,-0.000000865,-0.000548464,-0.000521898,-0.063350298,-0.056568988,9.757794380
1784244720.104255,-0.007062231,0.004622034,0.818632126,0.000666927,-0.000646977,-0.000402375,-0.079104178,-0.057162307,9.806643486
1784244720.106256,-0.007062231,0.004622034,0.818632126,0.001174130,-0.000502201,-0.000440426,-0.072201140,-0.080913559,9.794839859
1784244720.108259,-0.007062231,0.004622034,0.818632126,0.001218999,-0.000478690,-0.001209243,-0.057389997,-0.080261417,9.802481651
1784244720.110258,-0.007062239,0.004622786,0.818632126,0.000857536,-0.000098103,-0.001641556,-0.037693761,-0.084530137,9.800230026
1784244720.112258,-0.007062239,0.004622786,0.818632126,0.000901925,0.000404288,-0.001052158,-0.021548817,-0.083587185,9.827600479
1784244720.114262,-0.007062789,0.004621881,0.818632126,0.001506886,0.000276461,-0.000353852,-0.042070355,-0.038311005,9.798281670
1784244720.116260,-0.007062789,0.004621881,0.818632126,0.001417815,-0.000402486,-0.000246389,-0.078747712,-0.066406719,9.782823563
1784244720.118264,-0.007062789,0.004621881,0.818632126,0.000446641,-0.001015748,0.000226935,-0.089173734,-0.073594488,9.804286957
1784244720.120271,-0.007063143,0.004624516,0.818632126,-0.000292742,-0.001013728,0.000826922,-0.053420611,-0.050967369,9.771288872
1784244720.122274,-0.007063143,0.004624516,0.818632126,-0.000407944,-0.000419860,0.000780581,-0.033784218,-0.058140069,9.799508095
1784244720.124270,-0.007063033,0.004624167,0.818632126,-0.000349290,-0.000221543,0.000547173,-0.043829028,-0.071134821,9.817796707
1784244720.126279,-0.007063033,0.004624167,0.818632126,-0.000057934,-0.000493734,0.000375211,-0.042388406,-0.103537843,9.772307396
1784244720.128273,-0.007063033,0.004624167,0.818632126,0.000120193,-0.000511440,0.000214787,-0.054214615,-0.077598006,9.800259590
1784244720.130275,-0.007063398,0.004624443,0.818632126,-0.000058217,-0.000523119,0.000440421,-0.035577465,-0.057294279,9.809822083
1784244720.132283,-0.007063398,0.004624443,0.818632126,-0.000078519,-0.000442260,0.000515207,-0.042949121,-0.036936548,9.795599937
1784244720.134284,-0.007062753,0.004625151,0.818632126,0.000108708,-0.000219999,-0.000006740,-0.062239178,-0.073030792,9.802522659
1784244720.136281,-0.007062753,0.004625151,0.818632126,0.000192704,0.000104696,-0.000422252,-0.060012590,-0.076029941,9.779191971
1784244720.138284,-0.007062753,0.004625151,0.818632126,0.000019621,0.000433201,-0.000634550,-0.043252371,-0.062835619,9.783776283
1784244720.140292,-0.007062148,0.004625282,0.818632126,-0.000179823,0.000530639,-0.001006735,-0.024672365,-0.084220283,9.796210289
1784244720.142302,-0.007062148,0.004625282,0.818632126,0.000050996,0.000308472,-0.001098385,-0.045570690,-0.105445236,9.794260979
1784244720.144295,-0.007064232,0.004626146,0.818632126,0.000610454,-0.000346560,-0.000679879,-0.053284764,-0.112511702,9.793760300
1784244720.146297,-0.007064232,0.004626146,0.818632126,0.000492433,-0.000873844,-0.000087286,-0.041226245,-0.080385715,9.790840149
1784244720.148294,-0.007064232,0.004626146,0.818632126,-0.000434391,-0.000491162,0.000058518,-0.035824664,-0.077887774,9.807897568
1784244720.150302,-0.007063718,0.004625925,0.818632126,-0.000871463,0.000002922,-0.000140568,-0.021130046,-0.087881759,9.800673485
1784244720.152305,-0.007063718,0.004625925,0.818632126,-0.000509283,-0.000273457,-0.000450530,-0.032136131,-0.069047675,9.818268776
1784244720.154298,-0.007063131,0.004624824,0.818632126,-0.000426363,-0.000438176,-0.000459796,-0.054354258,-0.051242039,9.811635971
1784244720.156303,-0.007063131,0.004624824,0.818632126,-0.000782760,-0.000503664,0.000182961,-0.012267226,-0.061821654,9.774397850
1784244720.158303,-0.007063131,0.004624824,0.818632126,-0.001135039,-0.000766143,0.000613755,-0.056281012,-0.063202702,9.795866966
1784244720.160305,-0.007062441,0.004623738,0.818632126,-0.001205569,-0.000543278,0.000587202,-0.093019240,-0.059052192,9.782407761
1784244720.162308,-0.007062441,0.004623738,0.818632126,-0.001198509,-0.000020795,0.000443595,-0.046993487,-0.074522465,9.795802116
1784244720.164312,-0.007063701,0.004622951,0.818632126,-0.001230781,0.000252015,0.000374423,-0.045685418,-0.078082070,9.789953232
1784244720.166320,-0.007063701,0.004622951,0.818632126,-0.000895629,0.000176899,0.000323075,-0.022631451,-0.065279469,9.775260925
1784244720.168317,-0.007063701,0.004622951,0.818632126,-0.000453011,0.000031481,0.000050806,-0.064303845,-0.057406086,9.814277649
1784244720.170397,-0.007062476,0.004623890,0.818632126,-0.000291246,0.000072489,-0.000345546,-0.045177441,-0.072756797,9.796264648
1784244720.172326,-0.007062476,0.004623890,0.818632126,-0.000496597,0.000269059,-0.000832439,-0.050475098,-0.065923870,9.790026665
1784244720.174331,-0.007062491,0.004624605,0.818632126,-0.000695944,0.000721769,-0.001672889,-0.038520798,-0.079505213,9.788156509
1784244720.176330,-0.007062491,0.004624605,0.818632126,-0.000519162,0.000759330,-0.002159902,-0.060050514,-0.078355588,9.791282654
1784244720.178326,-0.007062491,0.004624605,0.818632126,-0.000146717,0.000129896,-0.001507056,-0.056985367,-0.083857231,9.803354263
1784244720.180327,-0.007063538,0.004625719,0.818632126,0.000229158,-0.000637303,-0.000780293,-0.004220341,-0.100560479,9.788951874
1784244720.182338,-0.007063538,0.004625719,0.818632126,0.000398427,-0.000922538,-0.000664687,-0.064312316,-0.095062822,9.817174911
1784244720.184341,-0.007065015,0.004628204,0.818632126,0.000347354,-0.000517028,-0.000487071,-0.078499191,-0.044586990,9.801344872
1784244720.186337,-0.007065015,0.004628204,0.818632126,0.000052574,-0.000580263,-0.000125413,-0.058875337,-0.053885028,9.813409805
1784244720.188337,-0.007065015,0.004628204,0.818632126,-0.000058224,-0.000971537,0.000479278,-0.061328415,-0.070910603,9.817781448
1784244720.190336,-0.007065348,0.004630087,0.818632126,0.000028995,-0.000772518,0.000940804,-0.041452613,-0.064440601,9.754179001
1784244720.192341,-0.007065348,0.004630087,0.818632126,0.000093205,-0.000573323,0.001241220,-0.044458877,-0.050774299,9.791026115
1784244720.194338,-0.007064838,0.004629764,0.818632126,0.000177809,-0.000301851,0.001334472,-0.052155353,-0.093670681,9.788501740
1784244720.196340,-0.007064838,0.004629764,0.818632126,0.000121879,0.000567690,0.000665836,-0.038337588,-0.100654177,9.800575256
1784244720.198339,-0.007064838,0.004629764,0.818632126,-0.000134908,0.001310801,0.000287321,-0.035434023,-0.083215013,9.800241470
1784244720.200350,-0.007065648,0.004629304,0.818632126,-0.000200924,0.001451764,0.000514989,-0.022968879,-0.092258893,9.789435387
1784244720.202350,-0.007065648,0.004629304,0.818632126,-0.000107716,0.001229387,0.000607049,-0.060835358,-0.068539821,9.798518181
1784244720.204345,-0.007065202,0.004631210,0.818632126,-0.000513560,0.000713066,0.000581127,-0.080954224,-0.062438533,9.795847893
1784244720.206353,-0.007065202,0.004631210,0.818632126,-0.000953391,0.000322148,0.000291156,-0.038635928,-0.052145220,9.784298897
1784244720.208354,-0.007065202,0.004631210,0.818632126,-0.001362206,0.000183421,-0.000099931,-0.026800100,-0.074361838,9.799858093
1784244720.210354,-0.007065735,0.004629659,0.818632126,-0.001462930,0.000040694,0.000192906,-0.020376833,-0.062788978,9.799041748
1784244720.212364,-0.007065735,0.004629659,0.818632126,-0.000629028,0.000267925,0.000571987,-0.042939398,-0.072423443,9.808374405
1784244720.214367,-0.007066494,0.004629767,0.818632126,0.000396343,0.000626724,0.000885989,-0.048124518,-0.096213043,9.760692596
1784244720.216369,-0.007066494,0.004629767,0.818632126,0.000812558,0.000423029,0.001219929,-0.054776683,-0.087402873,9.793919563
1784244720.218368,-0.007066494,0.004629767,0.818632126,0.000606971,-0.000093984,0.000828526,-0.059641160,-0.080293089,9.810996056
1784244720.220371,-0.007067180,0.004630577,0.818632126,0.000823103,-0.000236040,-0.000194843,-0.074112527,-0.053136665,9.798604012
1784244720.222378,-0.007067180,0.004630577,0.818632126,0.001381677,0.000014805,-0.000721123,-0.035589494,-0.058199733,9.811161041
1784244720.224376,-0.007066635,0.004629623,0.818632126,0.000842722,-0.000139446,-0.000259458,-0.028066803,-0.068854585,9.783753395
1784244720.226376,-0.007066635,0.004629623,0.818632126,-0.000004700,-0.000499123,0.000110863,-0.042446453,-0.071269356,9.771169662
1784244720.228377,-0.007066635,0.004629623,0.818632126,0.000054328,-0.000136915,0.000132465,-0.051339068,-0.062811628,9.794978142
1784244720.230381,-0.007067037,0.004629795,0.818632126,0.000408057,0.000412251,0.000041975,-0.039490063,-0.048550036,9.784319878
1784244720.232376,-0.007067037,0.004629795,0.818632126,0.000134492,0.000187737,0.000025885,-0.040404264,-0.047455382,9.821089745
1784244720.234376,-0.007066103,0.004629997,0.818632126,-0.000180835,-0.000606422,0.000317347,-0.047190156,-0.053885069,9.792346954
1784244720.236382,-0.007066103,0.004629997,0.818632126,0.000224592,-0.001028264,0.000278830,-0.028373778,-0.055572163,9.806702614
1784244720.238382,-0.007066103,0.004629997,0.818632126,0.000688377,-0.000937753,-0.000342454,-0.041764766,-0.086762711,9.806488991
1784244720.240388,-0.007067932,0.004629511,0.818632126,0.000898751,-0.000960328,-0.000813801,-0.053253684,-0.072650127,9.795809746
1784244720.242395,-0.007067932,0.004629511,0.818632126,0.001017211,-0.000780399,-0.000831201,-0.035964891,-0.089531593,9.807374954
1784244720.244392,-0.007069260,0.004628697,0.818632126,0.000838728,-0.000000047,-0.000587954,-0.005603144,-0.065269381,9.806214333
1784244720.246392,-0.007069260,0.004628697,0.818632126,0.000544300,0.000425878,-0.000357652,-0.059427392,-0.062800348,9.807971954
1784244720.248389,-0.007069260,0.004628697,0.818632126,0.000359735,0.000124861,-0.000355703,-0.047309544,-0.026153421,9.799251556
1784244720.250393,-0.007066965,0.004628986,0.818632126,0.000045962,0.000016277,-0.000480315,-0.029337011,-0.062159259,9.789622307
1784244720.252401,-0.007066965,0.004628986,0.818632126,-0.000378197,0.000227714,-0.000641992,-0.040895682,-0.091050327,9.777769089
1784244720.254392,-0.007068037,0.004628665,0.818632126,-0.000093976,0.000034136,-0.000887129,-0.078292400,-0.065954976,9.781481743
1784244720.256400,-0.007068037,0.004628665,0.818632126,0.000673945,-0.000024373,-0.000829684,-0.070139058,-0.059374012,9.786462784
1784244720.258402,-0.007068037,0.004628665,0.818632126,0.001307373,0.000146535,-0.000515752,-0.030934349,-0.082767293,9.792178154
1784244720.260397,-0.007069137,0.004628256,0.818632126,0.001495702,0.000006542,-0.000704155,-0.037416007,-0.062884919,9.780195236
1784244720.262406,-0.007069137,0.004628256,0.818632126,0.000455294,-0.000281509,-0.000717950,-0.047100410,-0.084282219,9.782291412
1784244720.264407,-0.007069755,0.004628790,0.818632126,-0.000523097,-0.000707953,-0.000242157,-0.054864477,-0.059016600,9.771684647
1784244720.266408,-0.007069755,0.004628790,0.818632126,-0.000347766,-0.000970096,-0.000561783,-0.044170838,-0.101796128,9.782628059
1784244720.268406,-0.007069755,0.004628790,0.818632126,0.000326481,-0.000928872,-0.001460382,-0.061868787,-0.079733707,9.799343109
1784244720.270407,-0.007071516,0.004629900,0.818632126,0.001160515,-0.000799190,-0.001355726,-0.045205057,-0.037816435,9.797385216
1784244720.272408,-0.007071516,0.004629900,0.818632126,0.001263476,-0.000310157,-0.000158876,-0.052135829,-0.052684620,9.821492195
1784244720.274409,-0.007071286,0.004630291,0.818632126,0.000856342,0.000539157,0.000408116,-0.043790881,-0.069212608,9.799426079
1784244720.276414,-0.007071286,0.004630291,0.818632126,0.001082105,0.000762235,-0.000155008,-0.075945884,-0.092629030,9.810902596
1784244720.278415,-0.007071286,0.004630291,0.818632126,0.001513496,0.000473437,-0.000820053,-0.035964482,-0.051938429,9.813443184
1784244720.280411,-0.007070715,0.004628942,0.818632126,0.001885311,0.000603418,-0.001140078,-0.040775932,-0.080378756,9.789047241
1784244720.282425,-0.007070715,0.004628942,0.818632126,0.001993414,0.000804758,-0.000867426,-0.050416462,-0.060192585,9.803064346
1784244720.284419,-0.007069929,0.004629781,0.818632126,0.001288860,0.000559802,-0.000004312,-0.079609334,-0.062465314,9.797193527
1784244720.286417,-0.007069929,0.004629781,0.818632126,0.000376275,0.000189107,0.000388079,-0.052609514,-0.058549695,9.764966011
1784244720.288423,-0.007069929,0.004629781,0.818632126,-0.000326899,-0.000401191,0.000130532,-0.063150972,-0.074753918,9.794441223
1784244720.290422,-0.007069932,0.004630740,0.818632126,-0.000621594,-0.000832013,-0.000309473,-0.036953729,-0.061162420,9.789173126
1784244720.292425,-0.007069932,0.004630740,0.818632126,-0.000266176,-0.000339832,-0.000985651,-0.039440230,-0.043698769,9.795111656
1784244720.294446,-0.007068578,0.004630490,0.818632126,0.000107110,0.000592573,-0.001330446,-0.040542427,-0.062730208,9.764054298
1784244720.296429,-0.007068578,0.004630490,0.818632126,0.000355224,0.000819883,-0.001223145,-0.060790364,-0.066563562,9.772527695
1784244720.298431,-0.007068578,0.004630490,0.818632126,0.000747332,0.000583894,-0.000605325,-0.038660098,-0.089925960,9.804679871
1784244720.300442,-0.007069378,0.004629879,0.818632126,0.000432871,0.000182024,0.000239655,-0.033736404,-0.090894669,9.806022644
1784244720.302444,-0.007069378,0.004629879,0.818632126,-0.000830824,-0.000512564,0.000688866,-0.069214486,-0.055929009,9.804418564
1784244720.304444,-0.007068741,0.004631189,0.818632126,-0.001638795,-0.000816695,0.000187031,-0.058332041,-0.046659812,9.804489136
1784244720.306441,-0.007068741,0.004631189,0.818632126,-0.001570513,-0.000609921,-0.000734726,-0.057061721,-0.052138440,9.816560745
1784244720.308444,-0.007068741,0.004631189,0.818632126,-0.001502782,-0.000284693,-0.000556780,-0.063436016,-0.058056321,9.841174126
1784244720.310442,-0.007068390,0.004631867,0.818632126,-0.001124312,0.000395675,0.000063245,-0.059744492,-0.051624186,9.812076569
1784244720.312450,-0.007068390,0.004631867,0.818632126,-0.000177303,0.001047621,0.000264138,-0.040370196,-0.044754900,9.819313049
1784244720.314547,-0.007067402,0.004631703,0.818632126,0.000165634,0.001149974,0.000137082,-0.048124786,-0.057409566,9.785600662
1784244720.316494,-0.007067402,0.004631703,0.818632126,-0.000254426,0.001089316,-0.000210020,-0.061702445,-0.101826280,9.818478584
1784244720.318516,-0.007067402,0.004631703,0.818632126,-0.000668588,0.001099628,-0.000354437,-0.080924258,-0.096549757,9.804146767
1784244720.320481,-0.007068000,0.004632706,0.818632126,-0.000715717,0.001248167,-0.000422349,-0.076887079,-0.059831128,9.799903870
1784244720.322517,-0.007068000,0.004632706,0.818632126,-0.000637674,0.001680147,-0.000632307,-0.041722570,-0.009628772,9.796672821
1784244720.324475,-0.007065600,0.004632561,0.818632126,-0.000760144,0.002245552,-0.000260644,-0.017628003,-0.059944924,9.772162437
1784244720.326470,-0.007065600,0.004632561,0.818632126,-0.000891304,0.002205591,0.000386612,-0.038844980,-0.070816495,9.764001846
1784244720.328464,-0.007065600,0.004632561,0.818632126,-0.000896107,0.002071380,0.000225876,-0.055657219,-0.086447768,9.787199974
1784244720.330464,-0.007066524,0.004632278,0.818632126,-0.000412308,0.001843689,-0.000107789,-0.056244649,-0.096452974,9.809103966
1784244720.332472,-0.007066524,0.004632278,0.818632126,0.000150435,0.001151028,0.000061730,0.008014663,-0.088420801,9.824011803
1784244720.334462,-0.007066803,0.004630134,0.818632126,0.000382776,0.000989002,0.000403471,-0.025871746,-0.073318429,9.777448654
1784244720.336503,-0.007066803,0.004630134,0.818632126,0.000482294,0.001140822,0.000798233,-0.052658647,-0.058937605,9.819660187
1784244720.338472,-0.007066803,0.004630134,0.818632126,0.000621434,0.000711170,0.001010701,-0.060604431,-0.048480134,9.812543869
1784244720.340483,-0.007066453,0.004630560,0.818632126,0.000866762,0.000237395,0.000713520,-0.033745669,-0.056214675,9.780689240
1784244720.342479,-0.007066453,0.004630560,0.818632126,0.000578928,0.000221270,0.000498119,0.008901946,-0.052948602,9.811686516
1784244720.344479,-0.007066017,0.004628718,0.818632126,0.000202671,-0.000008545,0.000971535,-0.010494682,-0.063236229,9.781115532
1784244720.346478,-0.007066017,0.004628718,0.818632126,0.000648950,-0.000418384,0.001424518,-0.057087615,-0.053558636,9.827310562
1784244720.348471,-0.007066017,0.004628718,0.818632126,0.001160206,-0.000337762,0.001233418,-0.086037181,-0.036889810,9.803628922
1784244720.350477,-0.007065051,0.004629832,0.818632126,0.000829943,-0.000160358,0.000588297,-0.078738607,-0.026313402,9.815360069
1784244720.352480,-0.007065051,0.004629832,0.818632126,0.000390260,-0.000029527,0.000208285,-0.040470492,-0.054057155,9.804457664
1784244720.354481,-0.007064339,0.004629531,0.818632126,0.000340233,0.000095545,0.000473599,-0.061284933,-0.070567198,9.769364357
1784244720.356474,-0.007064339,0.004629531,0.818632126,0.000646603,0.000111186,0.000630899,-0.062311329,-0.078463569,9.810558319
1784244720.358474,-0.007064339,0.004629531,0.818632126,0.001089970,0.000390970,0.000620973,-0.039675821,-0.100979954,9.785777092
1784244720.360503,-0.007065581,0.004628947,0.818632126,0.001090065,0.000797258,0.000451890,-0.049253162,-0.039057702,9.790200233
1784244720.362495,-0.007065581,0.004628947,0.818632126,0.000619404,0.000904082,-0.000286848,-0.045199078,-0.039795518,9.760609627
1784244720.364485,-0.007065268,0.004628983,0.818632126,-0.000356547,0.000952951,-0.000862282,-0.040004190,-0.055139694,9.766792297
1784244720.366488,-0.007065268,0.004628983,0.818632126,-0.001321976,0.001092872,-0.000234298,-0.073387794,-0.067479745,9.798064232
1784244720.368484,-0.007065268,0.004628983,0.818632126,-0.001051512,0.001002872,0.000458334,-0.068451732,-0.069566570,9.767569542
1784244720.370493,-0.007065330,0.004629863,0.818632126,-0.000097138,0.000574028,0.000167808,-0.039240234,-0.100684017,9.806403160
1784244720.372495,-0.007065330,0.004629863,0.818632126,0.000235402,0.000122644,-0.000225705,-0.030678408,-0.098073676,9.801943779
1784244720.374527,-0.007066470,0.004629434,0.818632126,-0.000061890,0.000069400,-0.000475594,-0.039295357,-0.104766533,9.813549995
1784244720.376508,-0.007066470,0.004629434,0.818632126,-0.000513777,0.000014928,-0.000621993,-0.064005271,-0.071565352,9.788632393
1784244720.378506,-0.007066470,0.004629434,0.818632126,-0.001242234,-0.000129329,-0.000585446,-0.044350866,-0.042221703,9.785252571
1784244720.380500,-0.007065113,0.004629635,0.818632126,-0.001620626,0.000501021,-0.000410067,-0.033561591,-0.040577374,9.786619186
1784244720.382509,-0.007065113,0.004629635,0.818632126,-0.000703719,0.000963151,0.000080641,-0.051446311,-0.032957818,9.818483353
1784244720.384516,-0.007063887,0.004630603,0.818632126,0.000497955,0.000466865,0.000307962,-0.071531244,-0.062962711,9.789577484
1784244720.386508,-0.007063887,0.004630603,0.818632126,0.000962264,0.000366839,-0.000356017,-0.061485574,-0.085524797,9.793925285
1784244720.388511,-0.007063887,0.004630603,0.818632126,0.000947998,0.001108511,-0.000962103,-0.065771952,-0.070509709,9.769358635
1784244720.390517,-0.007064173,0.004631727,0.818632126,0.000920999,0.001792763,-0.001366751,-0.052199256,-0.096854098,9.795207024
1784244720.392513,-0.007064173,0.004631727,0.818632126,0.000804327,0.001697864,-0.001592786,-0.041702677,-0.081409439,9.809661865
1784244720.394511,-0.007064382,0.004631776,0.818632126,0.000566506,0.001049423,-0.000948589,-0.087207697,-0.096481971,9.805934906
1784244720.396511,-0.007064382,0.004631776,0.818632126,0.000282763,0.000485580,-0.000046739,-0.030144760,-0.053334799,9.810301781
1784244720.398516,-0.007064382,0.004631776,0.818632126,-0.000265344,0.000171381,0.000140897,-0.048878048,-0.044102315,9.805859566
1784244720.400516,-0.007063451,0.004631369,0.818632126,-0.000828083,-0.000197639,-0.000066437,-0.042256497,-0.053154133,9.806704521
1784244720.402519,-0.007063451,0.004631369,0.818632126,-0.000910305,-0.000359126,-0.000685706,-0.029948905,-0.076815404,9.772491455
1784244720.404518,-0.007063807,0.004631012,0.818632126,-0.000590711,-0.000481303,-0.001064052,-0.076910511,-0.099632286,9.789336205
1784244720.406523,-0.007063807,0.004631012,0.818632126,-0.000052496,-0.000578581,-0.000526903,-0.067123748,-0.069726899,9.787744522
1784244720.408523,-0.007063807,0.004631012,0.818632126,0.000416498,-0.000253519,-0.000259629,-0.065230712,-0.062490314,9.774791718
1784244720.410540,-0.007063516,0.004631806,0.818632126,0.000290653,0.000064862,-0.000805336,-0.053278543,-0.074467421,9.799384117
1784244720.412536,-0.007063516,0.004631806,0.818632126,-0.000095775,-0.000116551,-0.000790457,-0.049623616,-0.069134697,9.798973083
1784244720.414531,-0.007063876,0.004631932,0.818632126,-0.000525846,-0.000344628,0.000447134,-0.075441197,-0.051765993,9.797266006
1784244720.416567,-0.007063876,0.004631932,0.818632126,-0.000637654,-0.000313744,0.001151555,-0.064065747,-0.074069068,9.825828552
1784244720.418547,-0.007063876,0.004631932,0.818632126,-0.000009956,-0.000131033,0.000709991,-0.061731163,-0.106105566,9.790205956
1784244720.420547,-0.007065400,0.004632567,0.818632126,0.000509550,0.000564356,-0.000420783,-0.049130082,-0.064733967,9.809312820
1784244720.422554,-0.007065400,0.004632567,0.818632126,0.000182260,0.001076888,-0.000974851,-0.033196319,-0.046104923,9.807206154
1784244720.424549,-0.007064504,0.004632257,0.818632126,-0.000313594,0.001284515,-0.000314760,-0.038185738,-0.088108078,9.800207138
1784244720.426559,-0.007064504,0.004632257,0.818632126,-0.000529621,0.001505647,0.000256989,-0.033791985,-0.059417177,9.790083885
1784244720.428555,-0.007064504,0.004632257,0.818632126,-0.000380229,0.001539430,0.000348347,-0.040569704,-0.064566568,9.770318031
1784244720.430556,-0.007064569,0.004631703,0.818632126,-0.000091688,0.001454328,0.000378472,-0.018740196,-0.039439112,9.788881302
1784244720.432557,-0.007064569,0.004631703,0.818632126,-0.000392779,0.000929866,0.000397028,-0.074535511,-0.052117351,9.782021523
1784244720.434560,-0.007064153,0.004633639,0.818632126,-0.000503317,0.000494955,0.000031336,-0.043195114,-0.057520494,9.792328835
1784244720.436559,-0.007064153,0.004633639,0.818632126,-0.000125511,0.000696934,-0.000520276,-0.057515092,-0.089354180,9.821252823
1784244720.438560,-0.007064153,0.004633639,0.818632126,0.000243011,0.001235508,-0.000342133,-0.051228721,-0.091019846,9.792105675
1784244720.440564,-0.007065689,0.004633948,0.818632126,0.000671395,0.001391475,-0.000105110,-0.045995962,-0.065638334,9.804827690
1784244720.442570,-0.007065689,0.004633948,0.818632126,0.000848556,0.000575130,-0.000677961,-0.047299433,-0.099227101,9.805058479
1784244720.444564,-0.007066944,0.004634477,0.818632126,0.000414752,-0.000247157,-0.001151595,-0.061717160,-0.066784173,9.805253983
1784244720.446565,-0.007066944,0.004634477,0.818632126,-0.000294340,-0.000269956,-0.000844181,-0.048155051,-0.056837965,9.831333160
1784244720.448572,-0.007066944,0.004634477,0.818632126,-0.000537748,-0.000021957,-0.000221185,-0.061878692,-0.082243420,9.774219513
1784244720.450571,-0.007067982,0.004635037,0.818632126,0.000078778,-0.000099073,-0.000218809,-0.049716268,-0.078376532,9.775600433
1784244720.452575,-0.007067982,0.004635037,0.818632126,0.000417334,-0.000351940,-0.000236401,-0.063450068,-0.064651370,9.760433197
1784244720.454574,-0.007067546,0.004635818,0.818632126,-0.000076028,-0.000384953,-0.000123188,-0.025951834,-0.077598095,9.812391281
1784244720.456581,-0.007067546,0.004635818,0.818632126,-0.000597671,-0.000476040,-0.000564847,-0.062802672,-0.082441770,9.803807259
1784244720.458583,-0.007067546,0.004635818,0.818632126,-0.000693333,-0.000925548,-0.000545290,-0.055681556,-0.087045170,9.808267593
1784244720.460586,-0.007068450,0.004635798,0.818632126,-0.000583723,-0.001381269,-0.000477316,-0.052865859,-0.075162776,9.833452225
1784244720.462590,-0.007068450,0.004635798,0.818632126,-0.000226269,-0.001244841,-0.000984354,-0.057951123,-0.051253278,9.819703102
1784244720.464588,-0.007067720,0.004636463,0.818632126,0.000201415,-0.000663050,-0.001061943,-0.055884317,-0.065645382,9.823647499
1784244720.466599,-0.007067720,0.004636463,0.818632126,0.000275150,-0.000366304,-0.000523842,-0.036958959,-0.061203755,9.795001984
1784244720.468592,-0.007067720,0.004636463,0.818632126,0.000670963,-0.000244919,0.000048692,-0.052886758,-0.081811868,9.760332108
1784244720.470593,-0.007068466,0.004636897,0.818632126,0.000977797,-0.000033131,0.000863634,-0.068806686,-0.058689300,9.813817024
1784244720.472601,-0.007068466,0.004636897,0.818632126,0.001220378,0.000175943,0.001295180,-0.021167612,-0.054641046,9.788782120
1784244720.474605,-0.007068148,0.004635868,0.818632126,0.001020596,0.000445397,0.000779228,-0.055773322,-0.056663916,9.820567131
1784244720.476605,-0.007068148,0.004635868,0.818632126,-0.000011177,0.000650361,0.000546417,-0.056638043,-0.054368097,9.814305305
1784244720.478611,-0.007068148,0.004635868,0.818632126,-0.000401963,0.000758901,0.000521577,-0.026854256,-0.080868214,9.769777298
1784244720.480610,-0.007068137,0.004635421,0.818632126,-0.000127204,0.000671827,0.000196564,-0.042915747,-0.070615686,9.806142807
1784244720.482613,-0.007068137,0.004635421,0.818632126,0.000147113,0.000769809,-0.000075291,-0.040988717,-0.062705375,9.761362076
1784244720.484614,-0.007068120,0.004635529,0.818632126,0.000146952,0.000735460,-0.000292293,-0.066539884,-0.057723552,9.799926758
1784244720.486616,-0.007068120,0.004635529,0.818632126,-0.000082593,-0.000474040,-0.000619807,-0.051671598,-0.052972987,9.798178673
1784244720.488614,-0.007068120,0.004635529,0.818632126,-0.000160328,-0.001393439,-0.000641847,-0.042149883,-0.079770826,9.832089424
1784244720.490621,-0.007068258,0.004635186,0.818632126,0.000012381,-0.000808951,-0.000127048,-0.057994865,-0.091620043,9.825720787
1784244720.492628,-0.007068258,0.004635186,0.818632126,0.000613652,0.000168030,0.000522581,-0.058875076,-0.092688516,9.788501740
1784244720.494627,-0.007068465,0.004635337,0.818632126,0.001082698,0.000393771,0.000939015,-0.042484198,-0.073188372,9.789090157
1784244720.496626,-0.007068465,0.004635337,0.818632126,0.000789126,0.000296189,0.001059396,-0.034864247,-0.036569811,9.792471886
1784244720.498629,-0.007068465,0.004635337,0.818632126,0.000396872,0.000495685,0.001364938,-0.042288437,-0.019868895,9.788536072
1784244720.500630,-0.007066944,0.004635354,0.818632126,0.000707284,0.000545919,0.001371318,-0.015929682,-0.065998100,9.801266670
1784244720.502634,-0.007066944,0.004635354,0.818632126,0.000901528,0.000821275,0.000655173,-0.054488163,-0.064051665,9.785999298
1784244720.504637,-0.007066428,0.004635815,0.818632126,0.000286928,0.001370790,0.000332781,-0.077121086,-0.041109584,9.813921928
1784244720.506642,-0.007066428,0.004635815,0.818632126,0.000124437,0.001477718,0.000475828,-0.053081352,-0.059131805,9.784687996
1784244720.508636,-0.007066428,0.004635815,0.818632126,0.000489918,0.001084410,0.000253248,-0.045049708,-0.098801523,9.804167747
1784244720.510643,-0.007067387,0.004636557,0.818632126,0.000593412,0.000694528,-0.000379081,-0.021881986,-0.076185122,9.795368195
1784244720.512649,-0.007067387,0.004636557,0.818632126,0.000637152,0.000877384,-0.000602502,-0.061743531,-0.070234314,9.786400795
1784244720.514648,-0.007067074,0.004637596,0.818632126,0.000796500,0.001204111,-0.000258530,-0.071203150,-0.072836325,9.791307449
1784244720.516692,-0.007067074,0.004637596,0.818632126,0.000220653,0.000964496,-0.000156125,-0.052552842,-0.053644374,9.768135071
1784244720.518670,-0.007067074,0.004637596,0.818632126,-0.000927866,0.000222822,-0.000248308,-0.045324810,-0.048488017,9.786108017
1784244720.520659,-0.007066060,0.004637921,0.818632126,-0.001474979,-0.000179819,0.000209267,-0.065095507,-0.051291283,9.774862289
1784244720.522662,-0.007066060,0.004637921,0.818632126,-0.001436177,-0.000118977,0.000725791,-0.041777264,-0.089698128,9.778224945
1784244720.524657,-0.007067387,0.004637407,0.818632126,-0.000702448,-0.000098821,0.000868387,-0.050728455,-0.087781750,9.776885033
1784244720.526669,-0.007067387,0.004637407,0.818632126,0.000266554,-0.000034826,0.000973232,-0.032556873,-0.068415910,9.793166161
1784244720.528669,-0.007067387,0.004637407,0.818632126,0.000387448,-0.000575982,0.001063457,-0.034550194,-0.047364786,9.797783852
1784244720.530668,-0.007066120,0.004636774,0.818632126,-0.000216823,-0.001501392,0.000908504,-0.058698226,-0.039518476,9.809017181
1784244720.532674,-0.007066120,0.004636774,0.818632126,-0.000574268,-0.001344709,0.000186622,-0.072706461,-0.049033232,9.786077499
1784244720.534670,-0.007064156,0.004639278,0.818632126,-0.000304405,-0.000678530,-0.000299240,-0.056289800,-0.026492756,9.800136566
1784244720.536705,-0.007064156,0.004639278,0.818632126,-0.000382340,-0.000373798,-0.000076970,-0.041282330,-0.047291260,9.799570084
1784244720.538742,-0.007064156,0.004639278,0.818632126,-0.000694522,-0.000364929,0.000065306,-0.080937661,-0.060281400,9.807518959
1784244720.540702,-0.007062847,0.004641234,0.818632126,-0.000600325,-0.000756701,-0.000031324,-0.073159009,-0.048652653,9.796392441
1784244720.542697,-0.007062847,0.004641234,0.818632126,-0.000385403,-0.000846906,0.000098171,-0.042027093,-0.072317287,9.791786194
1784244720.544694,-0.007063790,0.004640459,0.818632126,0.000301358,-0.000378249,0.000178275,-0.021988206,-0.084318377,9.805179596
1784244720.546703,-0.007063790,0.004640459,0.818632126,0.000765240,-0.000177119,-0.000305764,-0.015013180,-0.065453522,9.786028862
1784244720.548699,-0.007063790,0.004640459,0.818632126,0.000467083,-0.000364727,-0.000823720,-0.062323481,-0.080585733,9.793955803
1784244720.550704,-0.007064629,0.004642580,0.818632126,0.000032013,-0.000431367,-0.000496980,-0.062991984,-0.098120414,9.803707123
1784244720.552727,-0.007064629,0.004642580,0.818632126,-0.000609147,-0.000298308,0.000048423,-0.067587703,-0.070652053,9.792669296
1784244720.554735,-0.007063908,0.004643435,0.818632126,-0.001111820,-0.000199552,0.000211024,-0.053996067,-0.059257030,9.803963661
1784244720.556717,-0.007063908,0.004643435,0.818632126,-0.000846557,-0.000225300,0.000474351,-0.047760047,-0.064156987,9.788696289
1784244720.558712,-0.007063908,0.004643435,0.818632126,-0.000287030,0.000236533,0.000904114,-0.006050170,-0.028471017,9.798827171
1784244720.560716,-0.007061909,0.004641197,0.818632126,0.000429856,0.000802077,0.001471686,-0.035842966,-0.043684356,9.786597252
1784244720.562720,-0.007061909,0.004641197,0.818632126,0.000856006,0.000693019,0.001900152,-0.046955977,-0.072199978,9.784161568
1784244720.564730,-0.007062471,0.004642091,0.818632126,0.000334352,0.000428869,0.001505913,-0.036133256,-0.067454912,9.790479660
1784244720.566724,-0.007062471,0.004642091,0.818632126,-0.000441243,0.000281241,0.000478211,-0.042867076,-0.069420874,9.764007568
1784244720.568724,-0.007062471,0.004642091,0.818632126,-0.000879354,0.000243217,-0.000089352,-0.044381309,-0.044893563,9.782993317
1784244720.570730,-0.007060926,0.004642835,0.818632126,-0.000797977,0.000585862,0.000041438,-0.051397588,-0.067326210,9.799880028
1784244720.572736,-0.007060926,0.004642835,0.818632126,-0.000320593,0.000959285,-0.000241016,-0.034849692,-0.072018541,9.799865723
1784244720.574734,-0.007060617,0.004642204,0.818632126,0.000115192,0.000909263,-0.000917783,-0.069043636,-0.041206706,9.813033104
1784244720.576740,-0.007060617,0.004642204,0.818632126,0.000246644,0.000423962,-0.001269182,-0.043933641,-0.044502228,9.790169716
1784244720.578739,-0.007060617,0.004642204,0.818632126,0.000067314,-0.000216587,-0.001202276,-0.057598002,-0.061739817,9.781527519
1784244720.580739,-0.007059737,0.004642298,0.818632126,-0.000131830,-0.000322720,-0.001115533,-0.060411014,-0.109569773,9.770907402
1784244720.582744,-0.007059737,0.004642298,0.818632126,0.000015549,-0.000132537,-0.001158697,-0.059429020,-0.103239879,9.761085510
1784244720.584749,-0.007061872,0.004643086,0.818632126,-0.000043118,-0.000193181,-0.000704116,-0.030596973,-0.054977812,9.790115356
1784244720.586746,-0.007061872,0.004643086,0.818632126,-0.000413062,-0.000378377,-0.000284006,-0.024390761,-0.062949903,9.765861511
1784244720.588742,-0.007061872,0.004643086,0.818632126,-0.000534850,-0.000297011,-0.000283400,-0.070296437,-0.073584765,9.768886566
1784244720.590776,-0.007060792,0.004644367,0.818632126,-0.000350151,0.000027532,0.000007782,-0.086091474,-0.079366013,9.791252136
1784244720.592758,-0.007060792,0.004644367,0.818632126,-0.000017227,0.000243046,0.000346466,-0.049242359,-0.075751752,9.783688545
1784244720.594790,-0.007060857,0.004643974,0.818632126,-0.000080633,0.000459445,0.000250055,-0.052732076,-0.066406682,9.798987389
1784244720.596766,-0.007060857,0.004643974,0.818632126,-0.000508787,0.000440330,0.000322643,-0.038920362,-0.076274708,9.775624275
1784244720.598765,-0.007060857,0.004643974,0.818632126,-0.000445554,0.000043270,0.000554502,-0.052727755,-0.064751565,9.818277359
1784244720.600760,-0.007060745,0.004644017,0.818632126,0.000214624,-0.000376608,0.000398724,-0.058635924,-0.072158612,9.799394608
1784244720.602765,-0.007060745,0.004644017,0.818632126,0.000410447,-0.000318762,0.000178505,-0.078188598,-0.095430762,9.767842293
1784244720.604766,-0.007061638,0.004645830,0.818632126,-0.000293574,0.000072832,0.000289456,-0.094433703,-0.064032465,9.792238235
1784244720.606766,-0.007061638,0.004645830,0.818632126,-0.000667509,-0.000130478,0.000548299,-0.040650826,-0.033696014,9.776791573
1784244720.608771,-0.007061638,0.004645830,0.818632126,-0.000584741,-0.000928838,0.000481080,-0.056629311,-0.090267971,9.822143555
1784244720.610786,-0.007061886,0.004646221,0.818632126,-0.000322321,-0.001294300,0.000054549,-0.040983308,-0.097010553,9.797010422
1784244720.612777,-0.007061886,0.004646221,0.818632126,-0.000017110,-0.001005007,-0.000054328,-0.083180487,-0.099052958,9.782160759
1784244720.614777,-0.007063212,0.004647988,0.818632245,-0.000172637,-0.000558077,0.000173952,-0.058827825,-0.088262953,9.796151161
1784244720.616780,-0.007063212,0.004647988,0.818632245,-0.000192745,-0.000033846,0.000070730,-0.029197762,-0.050928432,9.785210609
1784244720.618829,-0.007063212,0.004647988,0.818632245,0.000044115,0.000201235,0.000013167,-0.050212834,-0.044806104,9.781195641
1784244720.620790,-0.007061352,0.004648407,0.818632245,0.000397566,0.000423318,0.000170373,-0.046028588,-0.068732716,9.798979759
1784244720.622822,-0.007061352,0.004648407,0.818632245,0.000749826,0.000910281,-0.000074178,-0.047900327,-0.074990727,9.800282478
1784244720.624804,-0.007061571,0.004648316,0.818632245,0.000950430,0.001051081,-0.000488285,-0.046514574,-0.071452893,9.804341316
1784244720.626803,-0.007061571,0.004648316,0.818632245,0.001401033,0.001020501,-0.000158402,-0.032662749,-0.075735904,9.814638138
1784244720.628792,-0.007061571,0.004648316,0.818632245,0.001619859,0.001066973,0.000804195,-0.039743584,-0.067977704,9.807509422
1784244720.630794,-0.007061505,0.004648034,0.818632245,0.001146000,0.000948872,0.000980082,-0.060359731,-0.067522459,9.780591965
1784244720.632802,-0.007061505,0.004648034,0.818632245,0.000657249,0.000867152,0.000656715,-0.048995383,-0.054754809,9.791893005
1784244720.634797,-0.007060374,0.004648023,0.818632245,0.000461095,0.000658693,0.000944072,-0.044185776,-0.063513726,9.817844391
1784244720.636802,-0.007060374,0.004648023,0.818632245,0.000375904,0.000795083,0.001010691,-0.041630872,-0.076789923,9.789964676
1784244720.638804,-0.007060374,0.004648023,0.818632245,0.000520883,0.001560614,0.000666124,-0.051700704,-0.054418623,9.812515259
1784244720.640827,-0.007060262,0.004635183,0.818642914,0.000620084,0.001529386,0.000411952,-0.034498200,-0.068772182,9.783747673
1784244720.642839,-0.007060262,0.004635183,0.818642914,0.000484288,0.000714470,0.000456853,-0.038437773,-0.073986605,9.768018723
1784244720.644827,-0.007060862,0.004635118,0.818642914,0.000546756,-0.000030146,0.000362616,-0.090690993,-0.089922860,9.771901131
1784244720.646822,-0.007060862,0.004635118,0.818642914,0.001042647,-0.000896562,-0.000501404,-0.059827548,-0.097569615,9.783537865
1784244720.648822,-0.007060862,0.004635118,0.818642914,0.001565943,-0.001653709,-0.001420106,-0.040289473,-0.075628631,9.813287735
1784244720.650825,-0.007061107,0.004634863,0.818642914,0.001825474,-0.001648983,-0.001599067,-0.066218771,-0.106457882,9.784818649
1784244720.652824,-0.007061107,0.004634863,0.818642914,0.001985786,-0.000891256,-0.001400348,-0.084531136,-0.100287385,9.769149780
1784244720.654831,-0.007061626,0.004636488,0.818642914,0.001885337,-0.000285134,-0.000894591,-0.037765112,-0.089956552,9.807369232
1784244720.656829,-0.007061626,0.004636488,0.818642914,0.001282834,-0.000270738,-0.000384959,-0.021980327,-0.084661409,9.790381432
1784244720.658828,-0.007061626,0.004636488,0.818642914,0.000679473,-0.000507920,-0.000430530,-0.046112303,-0.038287871,9.802312851
1784244720.660831,-0.007060016,0.004636798,0.818642914,0.000566811,-0.000558014,-0.000498629,-0.027080897,-0.060872741,9.793668747
1784244720.662836,-0.007060016,0.004636798,0.818642914,0.000609992,-0.000669183,-0.000331833,-0.038682822,-0.090510666,9.823952675
1784244720.664837,-0.007061058,0.004636609,0.818642914,0.000821505,-0.000823995,-0.000228501,-0.053187847,-0.066051543,9.812888145
1784244720.666834,-0.007061058,0.004636609,0.818642914,0.000545024,-0.000678594,-0.000405196,-0.051818501,-0.064264230,9.811107635
1784244720.668839,-0.007061058,0.004636609,0.818642914,-0.000252967,-0.000461120,-0.000064896,-0.094519101,-0.070380233,9.802956581
1784244720.670912,-0.007061378,0.004637859,0.818642914,-0.000165861,-0.000258669,0.000635612,-0.054591238,-0.111776218,9.755655289
1784244720.672856,-0.007061378,0.004637859,0.818642914,0.000022051,-0.000380412,0.000801638,-0.019750977,-0.086828224,9.776023865
1784244720.674847,-0.007061680,0.004637313,0.818642914,-0.000423711,-0.000858358,0.000847284,-0.048957482,-0.090019129,9.773284912
1784244720.676854,-0.007061680,0.004637313,0.818642914,-0.000923343,-0.000769572,0.000377243,-0.034752749,-0.066795260,9.758203506
1784244720.678851,-0.007061680,0.004637313,0.818642914,-0.000920510,-0.000292984,-0.000269180,0.005498125,-0.038872719,9.791598320
1784244720.680853,-0.007060429,0.004635722,0.818642914,-0.000435745,-0.000332414,-0.000181874,-0.031746138,-0.076811485,9.775178909
1784244720.682858,-0.007060429,0.004635722,0.818642914,0.000295119,-0.000545204,-0.000118697,-0.076819539,-0.092429928,9.784451485
1784244720.684859,-0.007061076,0.004636691,0.818642914,0.000631875,-0.000304893,0.000380513,-0.062440097,-0.052021753,9.809830666
1784244720.686858,-0.007061076,0.004636691,0.818642914,0.000460224,-0.000145767,0.001140571,-0.051886749,-0.070881896,9.796718597
1784244720.688870,-0.007061076,0.004636691,0.818642914,0.000804573,-0.000264137,0.000917478,-0.042980086,-0.078418262,9.769330978
1784244720.690864,-0.007060817,0.004636575,0.818642914,0.001218813,-0.000262909,0.000882067,-0.051135156,-0.083391786,9.790363312
1784244720.692867,-0.007060817,0.004636575,0.818642914,0.001155812,-0.000563736,0.000799854,-0.055373020,-0.061914831,9.802151680
1784244720.694870,-0.007060395,0.004636844,0.818642914,0.000295614,-0.000985999,0.000069620,-0.063228466,-0.043854747,9.796880722
1784244720.696873,-0.007060395,0.004636844,0.818642914,-0.000308577,-0.000862650,-0.000333548,-0.043185432,-0.054607350,9.823730469
1784244720.698875,-0.007060395,0.004636844,0.818642914,0.000067660,-0.000424377,-0.000172718,-0.037822627,-0.018878214,9.830241203
1784244720.700870,-0.007058527,0.004636824,0.818642914,0.000377902,-0.000035485,0.000269823,-0.052396145,-0.038223289,9.804548264
1784244720.702879,-0.007058527,0.004636824,0.818642914,0.000527846,-0.000128459,0.000445577,-0.065780751,-0.068552889,9.809273720
1784244720.704893,-0.007058753,0.004637137,0.818642914,0.000324729,-0.000713138,0.000299459,-0.051148899,-0.082689829,9.817714691
1784244720.706896,-0.007058753,0.004637137,0.818642914,-0.000400870,-0.001025511,0.000301039,-0.040506363,-0.097603805,9.753518105
1784244720.708885,-0.007058753,0.004637137,0.818642914,-0.000474102,-0.000829321,0.000846829,-0.063100800,-0.071926244,9.774732590
1784244720.710880,-0.007059011,0.004637535,0.818642914,0.000001116,-0.000278670,0.001337802,-0.062233254,-0.074199803,9.777856827
1784244720.712891,-0.007059011,0.004637535,0.818642914,0.000059514,0.000164342,0.001243951,-0.035231072,-0.066618182,9.797210693
1784244720.714889,-0.007058773,0.004636812,0.818642914,-0.000133667,0.000382836,0.000976057,-0.035583925,-0.060181994,9.774833679
1784244720.716893,-0.007058773,0.004636812,0.818642914,-0.000453068,0.000759370,0.000872084,-0.047903221,-0.077039748,9.773369789
1784244720.718892,-0.007058773,0.004636812,0.818642914,-0.000447685,0.001283867,0.000671751,-0.055452190,-0.067808278,9.811978340
1784244720.720891,-0.007059023,0.004636966,0.818642914,-0.000156726,0.001499653,0.000723910,-0.045047231,-0.062002551,9.795885086
1784244720.722900,-0.007059023,0.004636966,0.818642914,-0.000219029,0.001301927,0.000416510,-0.070972651,-0.090369798,9.799265862
1784244720.724895,-0.007060088,0.004638269,0.818642914,0.000096002,0.001011002,0.000029860,-0.055718560,-0.090984613,9.795241356
1784244720.726901,-0.007060088,0.004638269,0.818642914,0.000865554,0.000804823,0.000796085,-0.040872134,-0.087622441,9.799759865
1784244720.728908,-0.007060088,0.004638269,0.818642914,0.000738113,0.000449373,0.000810480,-0.043771084,-0.067030035,9.807510376
1784244720.730910,-0.007059614,0.004637925,0.818642914,-0.000058405,0.000079108,-0.000336087,-0.069994390,-0.047695223,9.782054901
1784244720.732909,-0.007059614,0.004637925,0.818642914,-0.000386182,-0.000072445,-0.000339906,-0.049448568,-0.053973965,9.808933258
1784244720.734912,-0.007059987,0.004637724,0.818642914,-0.000338969,-0.000351801,0.000288638,-0.083085760,-0.053015321,9.797698975
1784244720.736908,-0.007059987,0.004637724,0.818642914,-0.000467352,-0.000641225,0.000366700,-0.051731844,-0.058716986,9.786932945
1784244720.738923,-0.007059987,0.004637724,0.818642914,-0.000757283,-0.000563623,0.000695640,-0.033989295,-0.075969473,9.786839485
1784244720.740925,-0.007060346,0.004637197,0.818642914,-0.001055945,-0.000253606,0.000846284,-0.048997063,-0.094384268,9.757117271
1784244720.742937,-0.007060346,0.004637197,0.818642914,-0.000949192,-0.000226594,0.000522190,-0.035913970,-0.085887484,9.798878670
1784244720.744932,-0.007060915,0.004636661,0.818642914,-0.000112653,-0.000321543,0.000033933,-0.040009141,-0.053557716,9.796392441
1784244720.746930,-0.007060915,0.004636661,0.818642914,0.000612446,0.000239008,-0.000480531,-0.037337065,-0.056588024,9.776648521
1784244720.748935,-0.007060915,0.004636661,0.818642914,0.000471131,0.000618031,-0.000766282,-0.019775070,-0.050239094,9.797330856
1784244720.750936,-0.007060407,0.004635359,0.818642914,-0.000308634,0.000146251,-0.001106052,-0.025555262,-0.046504356,9.786589622
1784244720.752939,-0.007060407,0.004635359,0.818642914,-0.000553357,-0.000398803,-0.001372232,-0.034812115,-0.067669302,9.818274498
1784244720.754944,-0.007060446,0.004633884,0.818642914,0.000338659,-0.000360640,-0.001038513,-0.019552335,-0.069049679,9.795864105
1784244720.756959,-0.007060446,0.004633884,0.818642914,0.000919781,0.000079670,-0.000432177,-0.049189176,-0.069658354,9.808834076
1784244720.758958,-0.007060446,0.004633884,0.818642914,0.000493072,0.000286260,-0.000425697,-0.080949448,-0.061590303,9.802577972
1784244720.760950,-0.007059837,0.004636084,0.818642914,-0.000308045,0.000226608,-0.000513186,-0.042421937,-0.067428477,9.798094749
1784244720.762949,-0.007059837,0.004636084,0.818642914,-0.000674592,0.000268594,-0.000215064,-0.054211445,-0.076762505,9.808782578
1784244720.764949,-0.007060036,0.004635916,0.818642914,-0.000234270,0.000437318,-0.000284820,-0.047416005,-0.071473204,9.808824539
1784244720.766953,-0.007060036,0.004635916,0.818642914,0.000195370,0.000455047,-0.000985915,-0.059175193,-0.079352044,9.803830147
1784244720.768950,-0.007060036,0.004635916,0.818642914,0.000054684,0.000363532,-0.001281336,-0.051814925,-0.028672408,9.783538818
1784244720.770957,-0.007060036,0.004635916,0.818642914,-0.000302367,0.000278400,-0.000973552,-0.051814925,-0.028672408,9.783538818
1784244720.772954,-0.007058214,0.004637029,0.818642914,-0.000417603,0.000232930,-0.000767065,-0.023052415,-0.061407417,9.798600197
1784244720.774959,-0.007057612,0.004635601,0.818642914,-0.000788570,0.000523675,-0.000091789,-0.035758454,-0.111712821,9.775847435
1784244720.776985,-0.007057612,0.004635601,0.818642914,-0.000896102,0.000733726,0.000400390,-0.066673197,-0.067286536,9.821833611
1784244720.778965,-0.007057441,0.004636356,0.818642914,-0.000164414,0.000308899,-0.000362207,-0.068997048,-0.073970854,9.820893288
1784244720.781000,-0.007057441,0.004636356,0.818642914,-0.000010856,-0.000013493,-0.001080892,-0.047037847,-0.076899000,9.815066338
1784244720.782989,-0.007057546,0.004636574,0.818642914,-0.000111592,0.000237593,-0.001222989,-0.030483278,-0.081943892,9.801599503
1784244720.784978,-0.007057546,0.004636574,0.818642914,-0.000022220,0.000453865,-0.001181646,-0.030099714,-0.086921744,9.807843208
1784244720.786972,-0.007057546,0.004636574,0.818642914,-0.000036254,-0.000017702,-0.001155159,-0.020556135,-0.077578053,9.799843788
1784244720.788972,-0.007057456,0.004634877,0.818642914,0.000076849,-0.000633327,-0.001010821,-0.067618072,-0.071297146,9.820462227
1784244720.790968,-0.007057456,0.004634877,0.818642914,0.000161861,-0.000672609,-0.000127160,-0.065571584,-0.051501747,9.805347443
1784244720.792974,-0.007056343,0.004635280,0.818642914,0.000262915,-0.000361545,0.000825413,-0.039253626,-0.064415656,9.809773445
1784244720.794976,-0.007056343,0.004635280,0.818642914,0.000176485,0.000031106,0.001140935,-0.072873205,-0.061696965,9.803033829
1784244720.796969,-0.007056343,0.004635280,0.818642914,-0.000009714,0.000449451,0.000559000,-0.045758087,-0.047144741,9.787014008
1784244720.798980,-0.007054682,0.004635543,0.818642914,-0.000214793,0.000954833,-0.000170808,-0.046354905,-0.061276607,9.759125710
1784244720.800984,-0.007054682,0.004635543,0.818642914,-0.000363153,0.001500655,-0.000322385,-0.053792734,-0.080246992,9.793966293
1784244720.802977,-0.007055042,0.004636051,0.818642914,-0.000420653,0.001520859,-0.000615348,-0.058544889,-0.065766327,9.782397270
1784244720.804977,-0.007055042,0.004636051,0.818642914,-0.000650980,0.000800528,-0.000977578,-0.053435739,-0.050681572,9.794157028
1784244720.806979,-0.007055042,0.004636051,0.818642914,-0.001052569,0.000473962,-0.000861638,-0.056018047,-0.043295275,9.768198013
1784244720.808979,-0.007054067,0.004636014,0.818642914,-0.000853450,0.000537300,-0.000864976,-0.054902628,-0.060938809,9.790054321
1784244720.810984,-0.007054067,0.004636014,0.818642914,-0.000261023,0.000129302,-0.000977538,-0.062081221,-0.058410246,9.825482368
1784244720.812987,-0.007053053,0.004637026,0.818642914,-0.000026198,0.000119643,-0.000643058,-0.059088200,-0.072991550,9.791317940
1784244720.814987,-0.007053053,0.004637026,0.818642914,0.000330514,0.000578031,-0.000306245,-0.057119548,-0.057863366,9.802624702
1784244720.816994,-0.007053053,0.004637026,0.818642914,0.000461979,0.000751132,-0.000025876,-0.064989686,-0.077914335,9.801144600
1784244720.818992,-0.007053341,0.004637837,0.818642914,0.000286149,0.000791606,-0.000057213,-0.041079167,-0.068687864,9.783740997
1784244720.820989,-0.007053341,0.004637837,0.818642914,0.000121667,0.000628363,-0.000875453,-0.034844346,-0.070760511,9.811978340
1784244720.823009,-0.007053092,0.004637521,0.818642914,-0.000127683,0.000345746,-0.000967199,-0.035845041,-0.080480151,9.794429779
1784244720.825010,-0.007053092,0.004637521,0.818642914,-0.000021518,0.000220557,-0.000022227,-0.028547555,-0.071533427,9.783286095
1784244720.827002,-0.007053092,0.004637521,0.818642914,0.000291699,0.000146474,0.000395868,-0.068262942,-0.052270971,9.792338371
1784244720.829026,-0.007052234,0.004637395,0.818642914,0.000574290,-0.000047648,-0.000022321,-0.057556175,-0.057762228,9.789175034
1784244720.831057,-0.007052234,0.004637395,0.818642914,0.000946227,0.000080241,-0.000505721,-0.044002466,-0.086282827,9.806041718
1784244720.833038,-0.007052768,0.004637359,0.818642914,0.001087827,0.000010152,-0.000425744,-0.038287982,-0.060646333,9.782001495
1784244720.835039,-0.007052768,0.004637359,0.818642914,0.000806462,-0.000434182,-0.000135611,-0.061111201,-0.053795870,9.804889679
1784244720.837029,-0.007052768,0.004637359,0.818642914,0.000139833,-0.000031380,-0.000173663,-0.036913678,-0.057604171,9.792782784
1784244720.839015,-0.007052648,0.004637370,0.818642914,-0.000630260,0.000732440,-0.000090904,-0.029699463,-0.091362581,9.801539421
1784244720.841019,-0.007052648,0.004637370,0.818642914,-0.001015996,0.000835344,0.000237914,-0.037789289,-0.092984162,9.792106628
1784244720.843019,-0.007053680,0.004637391,0.818642914,-0.000918912,0.000604674,-0.000245720,-0.083809003,-0.077466190,9.771986961
1784244720.845019,-0.007053680,0.004637391,0.818642914,-0.000446826,0.000774068,-0.000559421,-0.056634318,-0.090712741,9.821693420
1784244720.847044,-0.007053680,0.004637391,0.818642914,-0.000553800,0.001202673,0.000133678,-0.060540449,-0.044327661,9.795535088
1784244720.849025,-0.007052811,0.004637499,0.818642914,-0.001250932,0.001160051,0.000888357,-0.044355310,-0.079846643,9.783665657
1784244720.851035,-0.007052811,0.004637499,0.818642914,-0.000913758,0.000670352,0.001364713,-0.046032213,-0.068761349,9.803014755
1784244720.853031,-0.007051831,0.004638655,0.818642914,0.000237400,0.000342835,0.001225936,-0.019706778,-0.082021460,9.793091774
1784244720.855032,-0.007051831,0.004638655,0.818642914,0.000644097,0.000218998,0.000781808,-0.020292476,-0.090797246,9.831142426
1784244720.857032,-0.007051831,0.004638655,0.818642914,0.000398966,0.000224617,0.000457938,-0.040105879,-0.099611230,9.783094406
1784244720.859031,-0.007053127,0.004638120,0.818642914,0.000256595,0.000123424,-0.000283977,-0.075897895,-0.090223886,9.787604332
1784244720.861032,-0.007053127,0.004638120,0.818642914,0.000113778,-0.000377425,-0.001548969,-0.061692186,-0.063750193,9.819619179
1784244720.863039,-0.007052307,0.004639672,0.818642914,0.000372081,-0.000586749,-0.002053868,-0.058786865,-0.086318493,9.774644852
1784244720.865052,-0.007052307,0.004639672,0.818642914,0.001015262,-0.000246365,-0.001407312,-0.043220419,-0.058530889,9.808462143
1784244720.867037,-0.007052307,0.004639672,0.818642914,0.001087906,0.000273091,-0.000484123,-0.045115825,-0.069433466,9.769835472
1784244720.869044,-0.007052212,0.004639480,0.818642914,0.000420707,0.000964596,0.000297321,-0.046124220,-0.078403458,9.772913933
1784244720.871039,-0.007052212,0.004639480,0.818642914,-0.000157100,0.001238339,0.000377768,-0.035787322,-0.075971916,9.790423393
1784244720.873056,-0.007051998,0.004639276,0.818642914,-0.000171771,0.000428853,-0.000128208,-0.054074511,-0.104760855,9.776324272
1784244720.875048,-0.007051998,0.004639276,0.818642914,-0.000200562,-0.000108206,-0.000243817,-0.054174524,-0.112439781,9.785242081
1784244720.877047,-0.007051998,0.004639276,0.818642914,-0.000086689,0.000412852,0.000363230,-0.072671711,-0.082296208,9.801108360
1784244720.879048,-0.007053201,0.004640294,0.818642914,0.000394748,0.000860027,0.000824518,-0.057629410,-0.061987832,9.816495895
1784244720.881045,-0.007053201,0.004640294,0.818642914,0.000202139,0.001014201,0.000743551,-0.046167720,-0.078746855,9.821331024
1784244720.883054,-0.007053371,0.004640143,0.818642914,-0.000099308,0.001289803,0.000757428,-0.050598413,-0.074597299,9.812835693
1784244720.885054,-0.007053371,0.004640143,0.818642914,0.000221825,0.001340531,0.000803664,-0.069695465,-0.058204401,9.810232162
1784244720.887052,-0.007053371,0.004640143,0.818642914,0.000378554,0.000910781,0.000762417,-0.042755224,-0.095996238,9.783563614
1784244720.889057,-0.007054102,0.004640189,0.818642914,0.000381134,0.000310929,0.000730593,-0.057332862,-0.076163001,9.793091774
1784244720.891055,-0.007054102,0.004640189,0.818642914,0.000202415,-0.000071107,0.000869895,-0.052844688,-0.075400874,9.803862572
1784244720.893061,-0.007054370,0.004640448,0.818642914,-0.000322128,0.000066049,0.001424359,-0.041343577,-0.091038227,9.776871681
1784244720.895064,-0.007054370,0.004640448,0.818642914,-0.000106442,0.000250070,0.001739440,-0.065222427,-0.059993323,9.801707268
1784244720.897059,-0.007054370,0.004640448,0.818642914,0.001223178,0.000032157,0.001535631,-0.051127613,-0.046958100,9.770421028
1784244720.899063,-0.007053264,0.004640479,0.818642914,0.001865218,-0.000283513,0.001133040,-0.038256612,-0.056751408,9.801305771
1784244720.901064,-0.007053264,0.004640479,0.818642914,0.001181169,-0.000084972,0.000497330,-0.061716538,-0.067184441,9.798525810
1784244720.903069,-0.007053311,0.004641111,0.818642914,0.000505670,0.000438340,0.000234619,-0.059388492,-0.060061708,9.800815582
1784244720.905072,-0.007053311,0.004641111,0.818642914,0.000207612,0.000577619,0.000998944,-0.064954512,-0.038831044,9.786600113
1784244720.907073,-0.007053311,0.004641111,0.818642914,0.000042857,0.000463745,0.001356060,-0.018012485,-0.053353298,9.791034698
1784244720.909067,-0.007052865,0.004640822,0.818642914,0.000213453,0.000276080,0.000569089,-0.042256851,-0.053967386,9.795042992
1784244720.911074,-0.007052865,0.004640822,0.818642914,0.000500594,0.000190502,0.000176850,-0.072897032,-0.063911341,9.799432755
1784244720.913092,-0.007052870,0.004642336,0.818642914,0.000151671,0.000542736,0.000777070,-0.059328724,-0.093937621,9.775939941
1784244720.915089,-0.007052870,0.004642336,0.818642914,-0.000283917,0.000799742,0.001466764,-0.033006851,-0.105199590,9.800103188
1784244720.917082,-0.007052870,0.004642336,0.818642914,0.000229289,0.000695117,0.001138508,-0.046020415,-0.067452438,9.807954788
1784244720.919116,-0.007052413,0.004642595,0.818642914,0.000966240,0.000566299,0.000033175,-0.034431662,-0.074292712,9.803886414
1784244720.921088,-0.007052413,0.004642595,0.818642914,0.000687906,0.000389590,-0.000503029,-0.056183878,-0.054735962,9.802198410
1784244720.923087,-0.007051075,0.004643114,0.818642914,-0.000168336,0.000103700,-0.000534525,-0.039996758,-0.051838994,9.806715012
1784244720.925087,-0.007051075,0.004643114,0.818642914,-0.000376297,-0.000056604,-0.000303817,-0.047084276,-0.043728221,9.813037872
1784244720.927090,-0.007051075,0.004643114,0.818642914,-0.000095300,-0.000269150,0.000044923,-0.041576080,-0.070683815,9.813318253
1784244720.929088,-0.007051602,0.004642796,0.818642914,0.000108452,-0.000601423,-0.000117205,-0.045939855,-0.061142821,9.802614212
1784244720.931093,-0.007051602,0.004642796,0.818642914,0.000442615,-0.000342834,-0.000015607,-0.052748773,-0.069780514,9.769375801
1784244720.933094,-0.007051708,0.004642804,0.818642914,0.000527639,0.000470806,0.001108643,-0.028537199,-0.069830604,9.795851707
1784244720.935091,-0.007051708,0.004642804,0.818642914,0.000087927,0.001483146,0.001893084,-0.045541618,-0.065599561,9.798550606
1784244720.937098,-0.007051708,0.004642804,0.818642914,0.000362906,0.001808304,0.001145408,-0.053768039,-0.078836352,9.784560204
1784244720.939096,-0.007052689,0.004643497,0.818642914,0.001005746,0.001018659,-0.000090252,-0.037459515,-0.066065162,9.786450386
1784244720.941095,-0.007052689,0.004643497,0.818642914,0.000674872,0.000232607,-0.000433255,-0.033453409,-0.066371284,9.822319984
1784244720.943107,-0.007053066,0.004643152,0.818642914,-0.000017653,-0.000211375,-0.000322093,-0.054176401,-0.073649026,9.811942101
1784244720.945101,-0.007053066,0.004643152,0.818642914,-0.000339425,-0.000514355,-0.000962781,-0.046489824,-0.068015471,9.824987411
1784244720.947102,-0.007053066,0.004643152,0.818642914,-0.000501601,-0.000806078,-0.001718625,-0.031268079,-0.072938211,9.796725273
1784244720.949102,-0.007053361,0.004641927,0.818642914,-0.000492347,-0.000825299,-0.001726416,-0.049663141,-0.071473069,9.812856674
1784244720.951103,-0.007053361,0.004641927,0.818642914,0.000168582,-0.000417805,-0.001169098,-0.044768203,-0.038321022,9.804554939
1784244720.953108,-0.007052390,0.004642042,0.818642914,0.000575060,-0.000372020,-0.000782667,-0.048158970,-0.058489904,9.811595917
1784244720.955103,-0.007052390,0.004642042,0.818642914,-0.000071893,-0.000721048,-0.001064392,-0.033107027,-0.078532025,9.767545700
1784244720.957107,-0.007052390,0.004642042,0.818642914,-0.000432463,-0.000760736,-0.001232150,-0.045777142,-0.086100861,9.783624649
1784244720.959106,-0.007053701,0.004641625,0.818642914,0.000065644,-0.000531627,-0.000737952,-0.048575789,-0.056206185,9.806230545
1784244720.961104,-0.007053701,0.004641625,0.818642914,0.000373383,-0.000383900,-0.000089300,-0.028410600,-0.059104983,9.799507141
1784244720.963105,-0.007053393,0.004641402,0.818642914,0.000200495,-0.000287786,0.000021506,-0.068004049,-0.066338398,9.816906929
1784244720.965112,-0.007053393,0.004641402,0.818642914,0.000151527,0.000055818,-0.000618199,-0.072690636,-0.047692526,9.786535263
1784244720.967109,-0.007053393,0.004641402,0.818642914,0.000135559,0.000432575,-0.001191793,-0.060158044,-0.050125115,9.791015625
1784244720.969109,-0.007052467,0.004642371,0.818642914,-0.000348995,0.000459818,-0.001557624,-0.045586836,-0.067172386,9.830821991
1784244720.971116,-0.007052467,0.004642371,0.818642914,-0.001208599,0.000449128,-0.001825102,-0.073468067,-0.072166026,9.827176094
1784244720.973118,-0.007052714,0.004643527,0.818642914,-0.001419121,0.000576536,-0.001314523,-0.056836333,-0.071333379,9.806126595
1784244720.975119,-0.007052714,0.004643527,0.818642914,-0.001066956,0.000627128,-0.000815641,-0.061204761,-0.061423924,9.806633949
1784244720.977122,-0.007052714,0.004643527,0.818642914,-0.000954606,0.000526636,-0.001283588,-0.045347888,-0.087475918,9.787202835
1784244720.979118,-0.007053553,0.004643800,0.818642914,-0.000840305,0.000111094,-0.001626339,-0.018061394,-0.056981508,9.797287941
1784244720.981119,-0.007053553,0.004643800,0.818642914,-0.000834080,-0.000517878,-0.001372518,-0.033826686,-0.099307366,9.792069435
1784244720.983133,-0.007054966,0.004643360,0.818642914,-0.000971754,-0.000758332,-0.001222729,-0.039113808,-0.090365008,9.804226875
1784244720.985138,-0.007054966,0.004643360,0.818642914,-0.000688331,-0.000594768,-0.001255527,-0.042237584,-0.090594657,9.779115677
1784244720.987175,-0.007054966,0.004643360,0.818642914,-0.000157409,-0.000534105,-0.001116764,-0.058179058,-0.108474039,9.801851273
1784244720.989147,-0.007056841,0.004643563,0.818642914,0.000351691,-0.000834545,-0.000800780,-0.072974600,-0.107382044,9.800948143
1784244720.991191,-0.007056841,0.004643563,0.818642914,0.000812920,-0.001089500,-0.000715062,-0.077508807,-0.074970201,9.787700653
1784244720.993159,-0.007056982,0.004644764,0.818642914,0.000594199,-0.000677047,-0.000361336,-0.014167035,-0.067085534,9.825023651
1784244720.995141,-0.007056982,0.004644764,0.818642914,-0.000217706,-0.000426418,0.000364381,-0.057193723,-0.063312031,9.812902451
1784244720.997135,-0.007056982,0.004644764,0.818642914,-0.000508121,-0.000980734,0.000185411,-0.038454741,-0.073310070,9.798956871
1784244720.999135,-0.007057859,0.004644636,0.818642914,-0.000264669,-0.001171693,-0.000231886,-0.038194183,-0.050584886,9.816140175
1784244721.001138,-0.007057859,0.004644636,0.818642914,-0.000258498,-0.000234319,0.000336329,-0.027894694,-0.054932814,9.778910637
1784244721.003145,-0.007057083,0.004644096,0.818642914,-0.000396232,0.000683739,0.000805508,-0.071963094,-0.062013343,9.782857895
1784244721.005137,-0.007057083,0.004644096,0.818642914,-0.000213318,0.000634050,0.000403622,-0.054069433,-0.064699337,9.813344955
1784244721.007140,-0.007057083,0.004644096,0.818642914,-0.000117262,0.000350581,-0.000594604,-0.063112237,-0.069585055,9.823615074
1784244721.009150,-0.007056977,0.004644222,0.818642914,-0.000314057,0.000578270,-0.001211496,-0.066869766,-0.083022408,9.829802513
1784244721.011147,-0.007056977,0.004644222,0.818642914,-0.000309799,0.001100207,-0.001279588,-0.062001035,-0.128093824,9.795445442
1784244721.013148,-0.007059763,0.004644755,0.818642914,-0.000217926,0.001317815,-0.001384114,-0.061376363,-0.076962672,9.786807060
1784244721.015145,-0.007059763,0.004644755,0.818642914,-0.000080784,0.001347707,-0.001153983,-0.048082046,-0.089798875,9.803773880
1784244721.017157,-0.007059763,0.004644755,0.818642914,0.000256862,0.001601353,-0.001056874,-0.030434661,-0.077102184,9.813735962
1784244721.019158,-0.007060530,0.004645119,0.818642914,0.000355017,0.001412065,-0.001367537,-0.029215196,-0.087034978,9.822191238
1784244721.021156,-0.007060530,0.004645119,0.818642914,0.000204368,0.000913263,-0.001054662,-0.062184576,-0.070168152,9.777882576
1784244721.023161,-0.007060329,0.004646004,0.818642914,0.000729216,0.000757710,-0.000607947,-0.078545295,-0.085782908,9.797942162
1784244721.025213,-0.007060329,0.004646004,0.818642914,0.001185204,0.000699477,-0.000588978,-0.072998829,-0.072009623,9.804312706
1784244721.027176,-0.007060329,0.004646004,0.818642914,0.000833619,0.000987749,-0.000466091,-0.052832950,-0.076118737,9.778750420
1784244721.029184,-0.007060928,0.004645797,0.818642914,0.000615578,0.001464784,0.000040170,-0.063050896,-0.065048218,9.815575600
1784244721.031171,-0.007060928,0.004645797,0.818642914,0.001082170,0.001139253,0.000460375,-0.036042057,-0.060656000,9.779314041
1784244721.033174,-0.007060478,0.004645441,0.818642914,0.001506628,0.000291214,0.000438288,-0.021757348,-0.066285469,9.789155006
1784244721.035188,-0.007060478,0.004645441,0.818642914,0.001078814,0.000024687,0.000206363,-0.029090963,-0.042385377,9.780782700
1784244721.037166,-0.007060478,0.004645441,0.818642914,0.000265030,0.000143918,-0.000286577,-0.058333598,-0.047482599,9.794172287
1784244721.039186,-0.007059108,0.004646022,0.818642914,-0.000151902,-0.000273659,-0.000882883,-0.074227601,-0.061339870,9.818277359
1784244721.041178,-0.007059108,0.004646022,0.818642914,0.000084622,-0.000729117,-0.001082596,-0.076575384,-0.071455248,9.795794487
1784244721.043174,-0.007059569,0.004647688,0.818642974,0.000586340,-0.000634255,-0.000936356,-0.060336541,-0.099660955,9.826563835
1784244721.045176,-0.007059569,0.004647688,0.818642974,0.000768334,-0.000797602,-0.000759201,-0.072708197,-0.085015766,9.805574417
1784244721.047174,-0.007059569,0.004647688,0.818642974,0.000322007,-0.000893796,-0.000396264,-0.040486507,-0.093394458,9.791653633
1784244721.049176,-0.007059811,0.004648592,0.818642974,-0.000342250,-0.000476450,0.000231344,-0.030967722,-0.086678118,9.775116920
1784244721.051177,-0.007059811,0.004648592,0.818642974,-0.000516615,-0.000082661,0.000184092,-0.022767711,-0.076081410,9.782366753
1784244721.053185,-0.007060303,0.004647453,0.818642974,-0.000481179,-0.000008220,-0.000717744,-0.016356926,-0.064607129,9.795447350
1784244721.055182,-0.007060303,0.004647453,0.818642974,-0.000298262,-0.000442548,-0.001232779,-0.046561539,-0.077091970,9.778302193
1784244721.057180,-0.007060303,0.004647453,0.818642974,-0.000276739,-0.000836052,-0.000579631,-0.045060985,-0.064137422,9.781077385
1784244721.059190,-0.007060279,0.004647838,0.818642974,-0.001020114,-0.000921300,0.000672325,-0.052409615,-0.076324806,9.806994438
1784244721.061187,-0.007060279,0.004647838,0.818642974,-0.001435140,-0.001124885,0.000951960,-0.051651638,-0.087973751,9.805575371
1784244721.063191,-0.007061239,0.004648280,0.818642974,-0.000977432,-0.001367070,0.000452336,-0.054658365,-0.076337397,9.812820435
1784244721.065193,-0.007061239,0.004648280,0.818642974,-0.000569319,-0.001310757,0.000161988,-0.038365953,-0.066530243,9.790482521
1784244721.067189,-0.007061239,0.004648280,0.818642974,-0.000865078,-0.000904241,0.000095981,-0.037766255,-0.053186189,9.803121567
1784244721.069184,-0.007059406,0.004646909,0.818642974,-0.001117301,-0.000644254,0.000137894,-0.061200619,-0.060175437,9.820091248
1784244721.071195,-0.007059406,0.004646909,0.818642974,-0.000564968,-0.000913548,0.000293404,-0.050917368,-0.103457220,9.776335716
1784244721.073191,-0.007060452,0.004646888,0.818642914,0.000016787,-0.001272767,0.000261654,-0.060483567,-0.077415757,9.785908699
1784244721.075191,-0.007060452,0.004646888,0.818642914,0.000430634,-0.000831050,0.000025806,-0.057566702,-0.059871662,9.770779610
1784244721.077200,-0.007060452,0.004646888,0.818642914,0.000573604,-0.000111794,-0.000107941,-0.025984405,-0.081502542,9.794433594
1784244721.079209,-0.007061018,0.004645750,0.818642914,0.000094670,-0.000048188,-0.000425487,-0.051687773,-0.089880079,9.821702957
1784244721.081200,-0.007061018,0.004645750,0.818642914,-0.000578140,0.000145523,-0.000638458,-0.058860280,-0.090950720,9.796133995
1784244721.083204,-0.007061824,0.004645413,0.818642914,-0.000812504,0.000693215,-0.000032757,-0.033178486,-0.082338281,9.798903465
1784244721.085201,-0.007061824,0.004645413,0.818642914,-0.000442568,0.000924491,0.000390362,-0.014504014,-0.097708687,9.784476280
1784244721.087242,-0.007061824,0.004645413,0.818642914,-0.000082650,0.000899541,-0.000204924,-0.068110809,-0.078528367,9.767064095
1784244721.089209,-0.007061967,0.004645808,0.818642914,-0.000132005,0.000523966,-0.000514708,-0.086381182,-0.065136805,9.807034492
1784244721.091205,-0.007061967,0.004645808,0.818642914,-0.000140752,-0.000350323,0.000303319,-0.061149128,-0.058958370,9.774818420
1784244721.093214,-0.007061455,0.004647020,0.818642914,-0.000021397,-0.000885684,0.001730393,-0.060186639,-0.050350863,9.822844505
1784244721.095205,-0.007061455,0.004647020,0.818642914,-0.000030594,-0.000315604,0.001944814,-0.053986177,-0.059584171,9.786926270
1784244721.097215,-0.007061455,0.004647020,0.818642914,0.000021932,0.000321798,0.001001188,-0.044497021,-0.052696504,9.809395790
1784244721.099210,-0.007061081,0.004647191,0.818642974,-0.000108323,0.000283092,0.000455111,-0.031436440,-0.050861530,9.779829979
1784244721.101207,-0.007061081,0.004647191,0.818642974,-0.000475051,0.000151159,-0.000160332,-0.062890187,-0.052432165,9.805344582
1784244721.103216,-0.007060140,0.004648060,0.818642974,-0.000507869,-0.000054257,-0.000807483,-0.050903540,-0.061705600,9.827713013
1784244721.105239,-0.007060140,0.004648060,0.818642974,-0.000249400,-0.000644570,-0.000360289,-0.050858036,-0.096099429,9.812697411
1784244721.107229,-0.007060140,0.004648060,0.818642974,-0.000170626,-0.001076082,0.000398548,-0.042455249,-0.069312528,9.811083794
1784244721.109223,-0.007060371,0.004648121,0.818642974,0.000237268,-0.000938810,0.000069887,-0.037231077,-0.082804456,9.808759689
1784244721.111250,-0.007060371,0.004648121,0.818642974,0.001025134,-0.000610000,-0.000185536,-0.042645033,-0.087021120,9.781380653
1784244721.113228,-0.007060381,0.004648566,0.818642974,0.001306263,-0.000621400,-0.000030488,-0.071735866,-0.078762189,9.806511879
1784244721.115226,-0.007060381,0.004648566,0.818642974,0.001162399,-0.001059143,0.000278086,-0.064006589,-0.069954745,9.814197540
1784244721.117226,-0.007060381,0.004648566,0.818642974,0.000754513,-0.000961338,0.000594978,-0.044987902,-0.057481606,9.790085793
1784244721.119224,-0.007060239,0.004648370,0.818642974,-0.000009155,-0.000683525,0.000248582,-0.052997280,-0.051173434,9.799533844
1784244721.121225,-0.007060239,0.004648370,0.818642974,-0.000368731,-0.000663697,0.000067739,-0.050339304,-0.054315038,9.795480728
1784244721.123229,-0.007059846,0.004648403,0.818642974,-0.000433106,-0.000689706,0.000315174,-0.038017534,-0.073001400,9.817790031
1784244721.125233,-0.007059846,0.004648403,0.818642974,-0.000588760,-0.000760703,0.000368601,-0.063816547,-0.056296516,9.783349991
1784244721.127236,-0.007059846,0.004648403,0.818642974,-0.000480846,-0.000436163,0.000301660,-0.024237419,-0.086360916,9.781402588
1784244721.129230,-0.007060042,0.004648024,0.818642974,-0.000472730,-0.000019319,0.000307943,-0.014353489,-0.086388826,9.767513275
1784244721.131233,-0.007060042,0.004648024,0.818642974,-0.000507766,-0.000059962,0.000761831,-0.043228947,-0.060624428,9.787825584
1784244721.133247,-0.007059737,0.004648238,0.818642974,-0.000120237,-0.000346124,0.001109763,-0.067088068,-0.064176865,9.826336861
1784244721.135241,-0.007059737,0.004648238,0.818642974,0.000238901,-0.000298892,0.000624650,-0.062293652,-0.039923627,9.809459686
1784244721.137241,-0.007059737,0.004648238,0.818642974,0.000228299,-0.000334208,0.000378741,-0.049686912,-0.074497506,9.797145844
1784244721.139237,-0.007058848,0.004648503,0.818642974,0.000360594,-0.000670753,0.000739643,-0.060583111,-0.085901596,9.782267570
1784244721.141245,-0.007058848,0.004648503,0.818642974,0.000912833,-0.000718419,0.000282309,-0.034045171,-0.080868438,9.782773018
1784244721.143246,-0.007059691,0.004647534,0.818642974,0.001499245,-0.000589151,-0.000699513,-0.056310628,-0.063031368,9.834872246
1784244721.145246,-0.007059691,0.004647534,0.818642974,0.001402113,-0.000331873,-0.000674560,-0.045267791,-0.080359414,9.794422150
