time_sec,roll_rad,pitch_rad,yaw_rad,gyro_x,gyro_y,gyro_z,acc_x,acc_y,acc_z
1784244765.461058,-0.006394098,0.006864076,0.833361924,-0.000736684,-0.000688741,0.000125813,-0.069319896,-0.064055905,9.813333511
1784244765.462965,-0.006393638,0.006864544,0.833357275,-0.000538290,-0.000595603,-0.000155509,-0.072676711,-0.045151033,9.807175636
1784244765.464968,-0.006392147,0.006868597,0.833354771,-0.000226585,-0.000168134,-0.000592853,-0.044962019,-0.056061402,9.779335022
1784244765.466954,-0.006391811,0.006877946,0.833355308,-0.000083131,0.000844040,-0.000564698,-0.055606131,-0.082397029,9.784535408
1784244765.468961,-0.006396402,0.006883394,0.833359718,-0.000394604,0.001673002,-0.000074991,-0.072708361,-0.085422404,9.799743652
1784244765.470975,-0.006401663,0.006876120,0.833364666,-0.000960541,0.001090719,0.000581489,-0.074712269,-0.065670647,9.798074722
1784244765.472950,-0.006404162,0.006875956,0.833361745,-0.001213764,0.000217937,0.000552031,-0.058943294,-0.058879379,9.822792053
1784244765.474927,-0.006403521,0.006877102,0.833355784,-0.000992471,0.000158261,-0.000205699,-0.031953026,-0.053823356,9.819262505
1784244765.476924,-0.006404285,0.006874441,0.833353698,-0.000776763,0.000149866,-0.000703260,-0.033965342,-0.069701575,9.850543022
1784244765.478944,-0.006399634,0.006874484,0.833353281,-0.000350124,0.000066522,-0.000686642,-0.087843232,-0.075355887,9.797551155
1784244765.480941,-0.006395818,0.006870029,0.833355725,0.000318754,-0.000252035,-0.000350471,-0.051571663,-0.082073949,9.794854164
1784244765.482946,-0.006394511,0.006866465,0.833354294,0.000640949,-0.000715867,-0.000179335,-0.047273938,-0.060220115,9.801274300
1784244765.484938,-0.006395125,0.006872398,0.833353519,0.000576484,-0.000347131,-0.000285875,-0.067476124,-0.026507640,9.759327888
1784244765.486928,-0.006394779,0.006876639,0.833355665,0.000299580,0.000444507,-0.000126267,-0.055286299,-0.054340828,9.808029175
1784244765.488912,-0.006398168,0.006871730,0.833356261,-0.000091187,0.000284614,0.000093912,-0.053366747,-0.046084315,9.777597427
1784244765.490909,-0.006403948,0.006868702,0.833353221,-0.000687840,-0.000330377,-0.000091947,-0.046514407,-0.073883116,9.768011093
1784244765.492985,-0.006407422,0.006865709,0.833347857,-0.001047035,-0.000578669,-0.000641302,-0.073276110,-0.059708599,9.776145935
1784244765.494920,-0.006400415,0.006861484,0.833348751,-0.000442328,-0.000842546,-0.000769810,-0.062249202,-0.076757208,9.759459496
1784244765.496911,-0.006401693,0.006860612,0.833350718,0.000124313,-0.000967240,-0.000357400,-0.081328884,-0.092953950,9.803272247
1784244765.498918,-0.006411762,0.006857630,0.833342373,-0.000617673,-0.000969756,-0.000690119,-0.065090425,-0.048819736,9.805364609
1784244765.500910,-0.006418008,0.006860705,0.833340049,-0.001552284,-0.000695470,-0.001238471,-0.048929438,-0.049776368,9.784751892
1784244765.502909,-0.006417914,0.006860655,0.833343565,-0.001580922,-0.000201684,-0.000822933,-0.031203039,-0.028756006,9.821218491
1784244765.504901,-0.006411426,0.006860411,0.833337724,-0.000735752,-0.000065855,-0.000754763,-0.050107241,-0.036272589,9.778113365
1784244765.506904,-0.006406158,0.006859725,0.833337307,0.000204855,-0.000076744,-0.000975975,-0.034023631,-0.039866481,9.813521385
1784244765.508915,-0.006404683,0.006859010,0.833343446,0.000544227,-0.000121926,-0.000325551,-0.030500019,-0.046917684,9.790616989
1784244765.510912,-0.006409071,0.006860476,0.833343387,0.000195964,-0.000040536,0.000166018,-0.055118587,-0.078854077,9.789489746
1784244765.512904,-0.006411914,0.006857886,0.833346009,-0.000310873,-0.000031074,0.000288768,-0.078166261,-0.054422446,9.797696114
1784244765.514918,-0.006410448,0.006861409,0.833339512,-0.000279752,0.000118152,-0.000053624,-0.033137400,-0.044423994,9.759695053
1784244765.516913,-0.006407671,0.006858134,0.833337486,0.000014654,0.000207814,-0.000609609,-0.053323198,-0.078467257,9.794875145
1784244765.518908,-0.006404952,0.006851037,0.833338916,0.000310421,-0.000451034,-0.000476989,-0.072486363,-0.067459442,9.793581963
1784244765.520913,-0.006401930,0.006848446,0.833338320,0.000615480,-0.000986516,-0.000290284,-0.027925648,-0.055987723,9.801320076
1784244765.522934,-0.006408361,0.006843584,0.833336949,0.000208727,-0.001062624,-0.000352092,-0.075364433,-0.045891628,9.790131569
1784244765.524925,-0.006412762,0.006841076,0.833343983,-0.000595069,-0.001115806,0.000125590,-0.061734326,-0.069351107,9.788200378
1784244765.526945,-0.006410530,0.006838821,0.833354056,-0.000531247,-0.001130311,0.001250972,-0.060486656,-0.076224498,9.807435989
1784244765.528984,-0.006409125,0.006834656,0.833352864,-0.000086832,-0.001249733,0.001511220,-0.079876669,-0.086054638,9.775523186
1784244765.530976,-0.006407679,0.006833672,0.833352923,0.000130829,-0.001259495,0.001033153,-0.045089412,-0.066793397,9.776576042
1784244765.532960,-0.006406656,0.006832347,0.833354414,0.000309767,-0.001015944,0.000866833,-0.053326644,-0.043336134,9.769097328
1784244765.534950,-0.006404656,0.006832947,0.833355010,0.000477363,-0.000731148,0.000782431,-0.028294031,-0.052105747,9.760098457
1784244765.536938,-0.006407351,0.006829146,0.833351612,0.000327920,-0.000626642,0.000376956,-0.078278750,-0.062199950,9.820509911
1784244765.538973,-0.006415226,0.006827732,0.833352864,-0.000451529,-0.000687496,0.000115847,-0.096047908,-0.085584126,9.801512718
1784244765.540958,-0.006414348,0.006825427,0.833348274,-0.000802419,-0.000751722,-0.000146342,-0.068634301,-0.080734171,9.826230049
1784244765.542939,-0.006415996,0.006825294,0.833348453,-0.000587413,-0.000767143,-0.000408628,-0.047084797,-0.079701230,9.831187248
1784244765.544944,-0.006417108,0.006832031,0.833353400,-0.000570353,-0.000168885,0.000053338,-0.031236943,-0.068639830,9.822306633
1784244765.546950,-0.006417783,0.006835349,0.833351791,-0.000499290,0.000645066,0.000265713,-0.062153615,-0.066276401,9.797634125
1784244765.548950,-0.006412628,0.006834853,0.833346367,-0.000017187,0.000751718,-0.000285621,-0.076535344,-0.067896992,9.799404144
1784244765.550969,-0.006408517,0.006834636,0.833344936,0.000619736,0.000502235,-0.000670579,-0.019531902,-0.067267373,9.797220230
1784244765.552971,-0.006406930,0.006834837,0.833346665,0.000902932,0.000427446,-0.000463309,-0.035457712,-0.011869576,9.785455704
1784244765.554991,-0.006405183,0.006838092,0.833343983,0.000949274,0.000609230,-0.000401512,-0.112314016,-0.021624807,9.783525467
1784244765.556961,-0.006401151,0.006840084,0.833344579,0.001018197,0.000633728,-0.000429246,-0.094166085,-0.041656666,9.795519829
1784244765.558955,-0.006403187,0.006836221,0.833347201,0.000809165,0.000166178,-0.000091530,-0.063444719,-0.063393332,9.772545815
1784244765.560956,-0.006401197,0.006836557,0.833346188,0.000585415,-0.000118995,0.000046377,-0.062870458,-0.052276369,9.783376694
1784244765.562951,-0.006396517,0.006832472,0.833349466,0.000892347,-0.000332139,0.000201713,-0.031345170,-0.042035855,9.798716545
1784244765.564961,-0.006390814,0.006830384,0.833351254,0.001366866,-0.000653218,0.000494866,-0.047815621,-0.067432620,9.808401108
1784244765.566958,-0.006386679,0.006829277,0.833353400,0.001660867,-0.000670020,0.000619294,-0.083388999,-0.076077551,9.828039169
1784244765.568966,-0.006389214,0.006828867,0.833355367,0.001315711,-0.000568344,0.000727736,-0.064957514,-0.074013054,9.819549561
1784244765.570960,-0.006385372,0.006829183,0.833352387,0.001047793,-0.000419997,0.000464138,-0.033832770,-0.060955022,9.817421913
1784244765.572958,-0.006384381,0.006827913,0.833345115,0.001089754,-0.000256615,-0.000359019,-0.083103597,-0.054371923,9.799483299
1784244765.574956,-0.006392498,0.006828360,0.833348274,0.000305753,-0.000131355,-0.000544748,-0.095803641,-0.066229582,9.788635254
1784244765.576957,-0.006399760,0.006827840,0.833349705,-0.000828834,-0.000181674,-0.000086024,-0.081022300,-0.065812737,9.829450607
1784244765.578961,-0.006407924,0.006825103,0.833349288,-0.001657144,-0.000432864,0.000012281,-0.044293273,-0.073683292,9.798949242
1784244765.580965,-0.006409401,0.006826536,0.833345294,-0.001859563,-0.000401862,-0.000293364,-0.052549802,-0.088778690,9.794361115
1784244765.582961,-0.006405875,0.006827336,0.833345234,-0.001135946,-0.000082794,-0.000494936,-0.050746303,-0.089138359,9.778668404
1784244765.584964,-0.006399665,0.006824180,0.833343744,-0.000088246,-0.000163063,-0.000462176,-0.053808838,-0.045621067,9.776255608
1784244765.586968,-0.006398396,0.006821612,0.833345711,0.000400532,-0.000489452,-0.000295825,-0.047712788,-0.022141460,9.802863121
1784244765.588967,-0.006398778,0.006822241,0.833350122,0.000306392,-0.000472815,0.000223202,-0.048896410,-0.046678800,9.790151596
1784244765.590984,-0.006399418,0.006825523,0.833349824,0.000151899,-0.000080789,0.000440822,-0.050092753,-0.108501218,9.791098595
1784244765.592983,-0.006399995,0.006823433,0.833343983,0.000129298,0.000010153,-0.000105607,-0.036243003,-0.114826895,9.773586273
1784244765.595009,-0.006402612,0.006817721,0.833340526,-0.000019872,-0.000532921,-0.000705850,-0.045288455,-0.084575109,9.757182121
1784244765.596978,-0.006406443,0.006812000,0.833345771,-0.000439663,-0.001109831,-0.000386449,-0.060034666,-0.039424915,9.798257828
1784244765.598970,-0.006407328,0.006812636,0.833357096,-0.000634710,-0.001105405,0.000841623,-0.069610372,-0.053479958,9.775742531
1784244765.600977,-0.006415727,0.006813083,0.833355725,-0.001097243,-0.000735974,0.001286497,-0.074654385,-0.060755800,9.799900055
1784244765.602981,-0.006423119,0.006814767,0.833354056,-0.001883854,-0.000438577,0.000725487,-0.054960337,-0.065447032,9.794059753
1784244765.604977,-0.006421947,0.006813520,0.833352864,-0.001807249,-0.000337036,0.000335239,-0.036450472,-0.054658607,9.818805695
1784244765.606977,-0.006412792,0.006812336,0.833351612,-0.000649665,-0.000365163,0.000088234,-0.044629078,-0.063060023,9.817847252
1784244765.608990,-0.006405976,0.006815007,0.833352566,0.000575865,-0.000120672,0.000054791,-0.059517100,-0.070803232,9.799402237
1784244765.610982,-0.006407441,0.006814586,0.833355725,0.000780942,0.000063081,0.000318196,-0.060489934,-0.075439863,9.823132515
1784244765.612985,-0.006414300,0.006812599,0.833361089,0.000004283,-0.000100828,0.000795782,-0.076107755,-0.106064677,9.810367584
1784244765.615031,-0.006418480,0.006810083,0.833357692,-0.000742815,-0.000359617,0.000709391,-0.084190316,-0.070039064,9.799382210
1784244765.617001,-0.006414162,0.006817521,0.833357871,-0.000502594,0.000021477,0.000307891,-0.079140022,-0.060282130,9.804381371
1784244765.618999,-0.006415068,0.006821071,0.833357096,-0.000106551,0.000709702,0.000180508,-0.058798701,-0.049227361,9.788331985
1784244765.621139,-0.006421291,0.006824415,0.833359718,-0.000562214,0.000984105,0.000247730,-0.052144296,-0.055588234,9.788745880
1784244765.623066,-0.006422650,0.006823118,0.833364427,-0.001006667,0.000894906,0.000673999,-0.082249753,-0.059590437,9.775691032
1784244765.625017,-0.006420376,0.006824777,0.833364308,-0.000752643,0.000716807,0.000804301,-0.086342961,-0.026434697,9.783071518
1784244765.627015,-0.006417194,0.006831593,0.833366394,-0.000273012,0.001034975,0.000721671,-0.057679236,-0.029249128,9.812224388
1784244765.629041,-0.006422572,0.006838639,0.833369911,-0.000444571,0.001630919,0.000897350,-0.039760612,-0.069327950,9.808396339
1784244765.631015,-0.006426651,0.006844875,0.833368659,-0.000966537,0.002088777,0.000790158,-0.035505373,-0.088641413,9.807379723
1784244765.633010,-0.006432921,0.006842903,0.833368957,-0.001298111,0.001865039,0.000510473,-0.058385503,-0.051539689,9.797733307
1784244765.635034,-0.006433905,0.006839029,0.833368778,-0.001330333,0.001015268,0.000393490,-0.068795763,-0.059413522,9.789602280
1784244765.637062,-0.006429840,0.006834960,0.833371699,-0.000777608,0.000209017,0.000470608,-0.061057743,-0.048915990,9.811645508
1784244765.639027,-0.006428946,0.006831332,0.833374202,-0.000248637,-0.000362797,0.000707593,-0.040720165,-0.073859647,9.817334175
1784244765.641016,-0.006426476,0.006825565,0.833376765,0.000044995,-0.000904253,0.000861341,-0.074061237,-0.045842472,9.843932152
1784244765.643012,-0.006420642,0.006824946,0.833376646,0.000514593,-0.001102357,0.000794327,-0.060642119,-0.051209241,9.818356514
1784244765.645013,-0.006416738,0.006830563,0.833374083,0.000956338,-0.000471568,0.000388948,-0.034978349,-0.044360027,9.817080498
1784244765.647090,-0.006413275,0.006830530,0.833372831,0.001135243,0.000133931,0.000022013,-0.051227216,-0.054633856,9.778889656
1784244765.649048,-0.006411820,0.006830342,0.833373308,0.001098050,0.000179526,-0.000031143,-0.047046207,-0.081422746,9.758099556
1784244765.651043,-0.006412756,0.006829386,0.833376884,0.000833388,0.000051317,0.000253789,-0.044727072,-0.073559903,9.782361031
1784244765.653040,-0.006408176,0.006825638,0.833383203,0.000927143,-0.000209599,0.000858020,-0.090294108,-0.019615840,9.776387215
1784244765.655059,-0.006403785,0.006826480,0.833382428,0.001359132,-0.000275720,0.000992584,-0.071765997,-0.042220760,9.834543228
1784244765.657066,-0.006406919,0.006828899,0.833383799,0.001045346,0.000008867,0.000766536,-0.098025627,-0.062788852,9.812866211
1784244765.659030,-0.006408631,0.006829808,0.833388031,0.000400106,0.000218575,0.000944197,-0.054318365,-0.086522244,9.795270920
1784244765.661028,-0.006407618,0.006837049,0.833390713,0.000240935,0.000709534,0.001148207,-0.042165313,-0.083945192,9.789022446
1784244765.663031,-0.006405952,0.006839330,0.833397806,0.000433410,0.001206644,0.001496663,-0.053773839,-0.041697521,9.791522980
1784244765.665039,-0.006410395,0.006836818,0.833395839,0.000205564,0.000908662,0.001439367,-0.037818335,-0.057649899,9.800851822
1784244765.667028,-0.006412394,0.006837535,0.833390176,-0.000266463,0.000628201,0.000530300,-0.063768148,-0.051051352,9.801765442
1784244765.669037,-0.006409321,0.006840245,0.833387971,-0.000100166,0.000778482,-0.000147211,-0.065329462,-0.033379808,9.776770592
1784244765.671047,-0.006410722,0.006844864,0.833392680,0.000039315,0.001063437,0.000064257,-0.063539810,-0.031417374,9.812651634
1784244765.673034,-0.006413504,0.006847377,0.833402097,-0.000385241,0.001271938,0.000993706,-0.041065577,-0.064122766,9.834879875
1784244765.675037,-0.006413910,0.006847210,0.833402932,-0.000625109,0.001100644,0.001416384,-0.083642103,-0.057912078,9.857296944
1784244765.677032,-0.006414884,0.006846070,0.833406329,-0.000549489,0.000633610,0.001325652,-0.082768187,-0.062161531,9.823196411
1784244765.679035,-0.006413933,0.006849599,0.833403885,-0.000400710,0.000545798,0.001026436,-0.058070879,-0.099514812,9.801907539
1784244765.681039,-0.006410026,0.006856279,0.833399832,0.000040945,0.001093306,0.000306946,-0.052703422,-0.064154156,9.797208786
1784244765.683045,-0.006404602,0.006860377,0.833403945,0.000705887,0.001557689,0.000235011,-0.055366751,-0.062270582,9.789149284
1784244765.685045,-0.006401031,0.006860429,0.833400369,0.001167251,0.001446034,0.000216167,-0.049285263,-0.040932219,9.801845551
1784244765.687047,-0.006398756,0.006856314,0.833396554,0.001209730,0.000849204,-0.000342453,-0.048943251,-0.051101174,9.782052040
1784244765.689044,-0.006399795,0.006850315,0.833388865,0.000929495,0.000005453,-0.001022953,-0.074577466,-0.057311647,9.756432533
1784244765.691046,-0.006397871,0.006849322,0.833376765,0.000746332,-0.000462012,-0.002077442,-0.069207989,-0.056688208,9.785135269
1784244765.693047,-0.006398521,0.006855192,0.833371222,0.000639447,0.000006347,-0.002714715,-0.054887380,-0.060007911,9.785127640
1784244765.695048,-0.006402657,0.006854269,0.833373725,0.000143370,0.000345964,-0.002186785,-0.037889920,-0.065509707,9.772108078
1784244765.697057,-0.006398053,0.006850410,0.833369911,0.000155301,0.000030596,-0.001678373,-0.028495766,-0.065856196,9.803946495
1784244765.699054,-0.006395264,0.006849414,0.833372653,0.000634012,-0.000204327,-0.001289231,-0.036890492,-0.089742661,9.838755608
1784244765.701054,-0.006397532,0.006849797,0.833372653,0.000495947,-0.000191773,-0.000752770,-0.060950216,-0.114736438,9.805395126
1784244765.703058,-0.006402667,0.006850485,0.833367407,-0.000017790,-0.000048859,-0.000903429,-0.060132958,-0.083464399,9.816805840
1784244765.705075,-0.006402257,0.006853489,0.833364129,-0.000208778,0.000234597,-0.001228513,-0.048957106,-0.048779063,9.833625793
1784244765.707068,-0.006400949,0.006851981,0.833362222,-0.000060527,0.000310670,-0.001248983,-0.061102517,-0.054132544,9.789196014
1784244765.709137,-0.006401658,0.006847575,0.833365500,-0.000031389,-0.000139806,-0.000815543,-0.042926572,-0.071511611,9.806137085
1784244765.711072,-0.006400500,0.006842884,0.833369672,0.000004190,-0.000722663,-0.000085991,-0.050053552,-0.031796154,9.778588295
1784244765.713070,-0.006395262,0.006840790,0.833369792,0.000340123,-0.000951291,0.000230443,-0.060645599,-0.056504916,9.743898392
1784244765.715076,-0.006392962,0.006844306,0.833371043,0.000663685,-0.000559502,0.000265627,-0.063686691,-0.083945490,9.764791489
1784244765.717077,-0.006391832,0.006844161,0.833371401,0.000773772,-0.000182848,0.000309619,-0.069044754,-0.080426358,9.783638954
1784244765.719082,-0.006390691,0.006839732,0.833371043,0.000776064,-0.000446931,0.000230233,-0.036169458,-0.071387999,9.776555061
1784244765.721078,-0.006393543,0.006836671,0.833368063,0.000450726,-0.000832340,-0.000063868,-0.035109486,-0.056337330,9.800414085
1784244765.723082,-0.006389238,0.006836381,0.833363712,0.000453497,-0.000736049,-0.000546413,-0.039047055,-0.047790226,9.802707672
1784244765.725086,-0.006380316,0.006837438,0.833362877,0.001253777,-0.000387407,-0.000750708,-0.049760312,-0.041539773,9.825153351
1784244765.727083,-0.006384152,0.006842811,0.833364427,0.001206746,0.000212917,-0.000501466,-0.043223642,-0.058556322,9.812048912
1784244765.729079,-0.006386394,0.006845579,0.833364785,0.000414105,0.000765866,-0.000230197,-0.070066892,-0.051104408,9.820588112
1784244765.731093,-0.006382282,0.006844568,0.833365500,0.000428159,0.000676659,-0.000088538,-0.043162886,-0.054429282,9.798624992
1784244765.733088,-0.006381823,0.006840895,0.833363771,0.000597560,0.000250857,-0.000131513,-0.057347585,-0.075874031,9.815511703
1784244765.735092,-0.006385150,0.006842880,0.833361685,0.000217368,0.000145304,-0.000361049,-0.059275717,-0.050660882,9.801773071
1784244765.737091,-0.006389006,0.006845902,0.833360136,-0.000344427,0.000485351,-0.000508342,-0.068507500,-0.073248833,9.781444550
1784244765.739095,-0.006389651,0.006847857,0.833361804,-0.000573504,0.000729580,-0.000362651,-0.104137130,-0.049205940,9.803980827
1784244765.741097,-0.006386592,0.006848977,0.833359540,-0.000253866,0.000740591,-0.000310829,-0.049805835,-0.047572754,9.791489601
1784244765.743095,-0.006385265,0.006845154,0.833361268,0.000101795,0.000405192,-0.000256743,-0.054228067,-0.040519588,9.815740585
1784244765.745099,-0.006382222,0.006846008,0.833357096,0.000361043,0.000143742,-0.000361852,-0.053571124,-0.059450373,9.830415726
1784244765.747101,-0.006381484,0.006849143,0.833352923,0.000555536,0.000387634,-0.000833134,-0.049803708,-0.046340164,9.807188988
1784244765.749094,-0.006382925,0.006851373,0.833354771,0.000389849,0.000656071,-0.000761249,-0.021703824,-0.059378821,9.825963020
1784244765.751101,-0.006379615,0.006850104,0.833355784,0.000409644,0.000542019,-0.000367398,-0.037027668,-0.067014530,9.793169975
1784244765.753120,-0.006376525,0.006848068,0.833357513,0.000711969,0.000329834,-0.000080744,-0.061718211,-0.103977047,9.805912018
1784244765.755110,-0.006377723,0.006850295,0.833354294,0.000628090,0.000414299,-0.000159900,-0.085736029,-0.085376501,9.816767693
1784244765.757146,-0.006378561,0.006850388,0.833359897,0.000439041,0.000403664,0.000034555,-0.062412776,-0.050995462,9.791456223
1784244765.759119,-0.006377585,0.006851004,0.833370388,0.000442528,0.000280644,0.001114491,-0.034596737,-0.015410713,9.777812958
1784244765.761116,-0.006376090,0.006855323,0.833368480,0.000486147,0.000535666,0.001397747,-0.053258754,-0.037531715,9.771823883
1784244765.763114,-0.006372665,0.006852175,0.833364666,0.000500045,0.000529625,0.000628201,-0.044192418,-0.066808067,9.777025223
1784244765.765115,-0.006370488,0.006844820,0.833364785,0.000555483,-0.000268115,0.000207661,-0.042282689,-0.056197654,9.793684006
1784244765.767107,-0.006366423,0.006846816,0.833371997,0.000797251,-0.000459988,0.000643916,-0.048064034,-0.088035658,9.807821274
1784244765.769147,-0.006366017,0.006847966,0.833372951,0.000852928,-0.000022825,0.001018901,-0.055037785,-0.070111066,9.820033073
1784244765.771131,-0.006366197,0.006846998,0.833366871,0.000639191,-0.000002177,0.000405472,-0.070856422,-0.081346981,9.790356636
1784244765.773125,-0.006369414,0.006847466,0.833368421,0.000338764,0.000014203,-0.000005524,-0.070105270,-0.055460006,9.803075790
1784244765.775123,-0.006369792,0.006851539,0.833365142,0.000105096,0.000367174,-0.000122535,-0.060334176,-0.064078674,9.800341606
1784244765.777133,-0.006373154,0.006855412,0.833360016,-0.000170179,0.000844199,-0.000658014,-0.082351886,-0.065665118,9.811068535
1784244765.779123,-0.006374074,0.006856312,0.833362639,-0.000410168,0.000973707,-0.000652242,-0.073870562,-0.070174471,9.799839973
1784244765.781126,-0.006373693,0.006852954,0.833368599,-0.000339364,0.000538777,0.000107580,-0.035828531,-0.080349796,9.776049614
1784244765.783127,-0.006375813,0.006848430,0.833376586,-0.000327151,0.000004155,0.001020863,-0.046468258,-0.068250403,9.794947624
1784244765.785126,-0.006375972,0.006847198,0.833375633,-0.000351723,-0.000238080,0.001217600,-0.039137792,-0.055396032,9.801312447
1784244765.787125,-0.006372681,0.006847295,0.833373666,-0.000057745,-0.000143825,0.000695008,-0.062342688,-0.044768523,9.797771454
1784244765.789129,-0.006366379,0.006852091,0.833373427,0.000594716,0.000333872,0.000353384,-0.080804564,-0.050314967,9.791891098
1784244765.791127,-0.006365940,0.006854037,0.833379090,0.000888168,0.000698619,0.000627821,-0.069078006,-0.083120480,9.784518242
1784244765.793132,-0.006367945,0.006855883,0.833389103,0.000645539,0.000712950,0.001529641,-0.056243554,-0.060070153,9.796335220
1784244765.795130,-0.006366683,0.006860736,0.833393395,0.000525429,0.000921435,0.002079490,-0.062793516,-0.043158531,9.824234009
1784244765.797135,-0.006368676,0.006863170,0.833392262,0.000296484,0.001205482,0.001722384,-0.073717900,-0.057622027,9.798575401
1784244765.799135,-0.006372265,0.006865954,0.833389342,-0.000196115,0.001274914,0.000973554,-0.069837466,-0.032677591,9.812190056
1784244765.801149,-0.006374558,0.006865804,0.833384991,-0.000538707,0.001110657,0.000210246,-0.036436439,-0.056574088,9.773062706
1784244765.803137,-0.006365453,0.006855824,0.833382428,0.000017989,0.000316110,-0.000312191,-0.054539673,-0.070942424,9.746950150
1784244765.805136,-0.006367537,0.006849574,0.833380342,0.000436741,-0.000677829,-0.000532606,-0.061664000,-0.063527621,9.788237572
1784244765.807137,-0.006372943,0.006849267,0.833385885,-0.000176482,-0.000927343,-0.000150438,-0.076925792,-0.027410017,9.777246475
1784244765.809137,-0.006369787,0.006855691,0.833392739,-0.000271778,-0.000252591,0.000729009,-0.056191131,-0.054793186,9.810268402
1784244765.811147,-0.006372321,0.006855811,0.833393693,-0.000159473,0.000256880,0.001063184,-0.085574687,-0.073160730,9.799810410
1784244765.813140,-0.006379860,0.006847500,0.833398402,-0.000757555,-0.000407713,0.001155362,-0.069693513,-0.060215276,9.777939796
1784244765.815146,-0.006378691,0.006844136,0.833402038,-0.000943110,-0.001129656,0.001402103,-0.066474184,-0.089931622,9.792547226
1784244765.817142,-0.006367316,0.006846473,0.833406568,0.000250127,-0.000877831,0.001570243,-0.035642665,-0.064293131,9.786016464
1784244765.819150,-0.006361581,0.006847565,0.833407462,0.001430484,-0.000390641,0.001514400,-0.041644316,-0.039711509,9.805446625
1784244765.821150,-0.006367393,0.006840825,0.833406806,0.001036695,-0.000668079,0.001125220,-0.043545242,-0.049441911,9.791036606
1784244765.823152,-0.006369354,0.006835055,0.833407521,0.000166846,-0.001277775,0.000820457,-0.051089872,-0.079792194,9.788144112
1784244765.825156,-0.006372166,0.006835442,0.833404779,-0.000262347,-0.001237273,0.000457051,-0.054290287,-0.084679529,9.788109779
1784244765.827156,-0.006377776,0.006833478,0.833417118,-0.000646270,-0.000941772,0.000969910,-0.057275098,-0.072464839,9.776977539
1784244765.829153,-0.006377630,0.006831451,0.833426476,-0.000730834,-0.000895690,0.002173274,-0.074716069,-0.066105895,9.796278000
1784244765.831161,-0.006369798,0.006829868,0.833426893,0.000004573,-0.000901843,0.002256677,-0.047898650,-0.038198110,9.792897224
1784244765.833153,-0.006363246,0.006829302,0.833425224,0.000942023,-0.000708018,0.001561002,-0.058606289,-0.069493107,9.802549362
1784244765.835166,-0.006364657,0.006830475,0.833436370,0.000992381,-0.000384433,0.001776294,-0.070792891,-0.076387599,9.785905838
1784244765.837157,-0.006365848,0.006836096,0.833444476,0.000524358,0.000140630,0.002601858,-0.058186702,-0.036191359,9.781243324
1784244765.839170,-0.006368633,0.006839666,0.833440363,0.000097242,0.000692364,0.002175127,-0.050119825,-0.034751013,9.816228867
1784244765.841165,-0.006366699,0.006836288,0.833436370,0.000016882,0.000520924,0.001031046,-0.065032706,-0.044311509,9.801359177
1784244765.843163,-0.006366306,0.006834261,0.833435595,0.000062550,0.000051485,0.000430514,-0.053441949,-0.051135886,9.795050621
1784244765.845166,-0.006368838,0.006835707,0.833433747,-0.000208369,0.000035883,0.000138783,-0.075104751,-0.059952687,9.813801765
1784244765.847164,-0.006369797,0.006832921,0.833430529,-0.000406855,-0.000118357,-0.000255056,-0.065484598,-0.082731239,9.786317825
1784244765.849170,-0.006369952,0.006832219,0.833428979,-0.000390383,-0.000376671,-0.000506417,-0.028386848,-0.093670510,9.808699608
1784244765.851200,-0.006373017,0.006832611,0.833429396,-0.000502622,-0.000295071,-0.000435500,-0.062056601,-0.059026353,9.786024094
1784244765.853192,-0.006377806,0.006833704,0.833426058,-0.000871750,-0.000087650,-0.000527884,-0.052197646,-0.096841380,9.793412209
1784244765.855186,-0.006378190,0.006838308,0.833420575,-0.000955788,0.000351883,-0.000990425,-0.044998549,-0.092724010,9.831555367
1784244765.857213,-0.006372434,0.006832828,0.833421826,-0.000244474,0.000283773,-0.001003384,-0.066016153,-0.087837473,9.812287331
1784244765.859188,-0.006363020,0.006827254,0.833428085,0.000933328,-0.000461797,-0.000221374,-0.060773034,-0.098343112,9.831054688
1784244765.861185,-0.006369749,0.006829544,0.833438635,0.000854377,-0.000566728,0.000981078,-0.052275997,-0.065138496,9.808859825
1784244765.863193,-0.006372387,0.006834575,0.833444834,0.000009213,0.000085403,0.001841808,-0.040868208,-0.048380539,9.826013565
1784244765.865191,-0.006365797,0.006842552,0.833441317,0.000304077,0.000952504,0.001515725,-0.033994287,-0.038824294,9.792905807
1784244765.867186,-0.006362821,0.006841987,0.833443880,0.000787322,0.001276735,0.001042217,-0.060649965,-0.054513123,9.778882027
1784244765.869190,-0.006364557,0.006840509,0.833448410,0.000570583,0.000867775,0.001234328,-0.072242394,-0.046891391,9.799094200
1784244765.871189,-0.006367909,0.006838516,0.833450139,0.000067364,0.000393916,0.001318595,-0.062946461,-0.057334304,9.801726341
1784244765.873188,-0.006371418,0.006834081,0.833447635,-0.000444681,-0.000126832,0.000909425,-0.068216793,-0.049475092,9.777113914
1784244765.875194,-0.006370797,0.006831515,0.833445907,-0.000546336,-0.000543677,0.000376899,-0.056530960,-0.047038555,9.791486740
1784244765.877187,-0.006367633,0.006832216,0.833445311,-0.000182891,-0.000492852,0.000117992,-0.058368590,-0.051406138,9.778903008
1784244765.879189,-0.006368567,0.006834703,0.833440363,-0.000022376,-0.000111390,-0.000285488,-0.017748987,-0.029389158,9.823019981
1784244765.881194,-0.006371902,0.006836687,0.833436370,-0.000302038,0.000226213,-0.000814389,-0.051227555,-0.052610271,9.809390068
1784244765.883201,-0.006366835,0.006838392,0.833429694,-0.000162152,0.000451225,-0.001325622,-0.044545706,-0.056728158,9.809370041
1784244765.885196,-0.006365681,0.006835289,0.833428741,0.000242876,0.000268561,-0.001482877,-0.039112069,-0.051545620,9.826892853
1784244765.887196,-0.006372745,0.006829670,0.833429694,-0.000281961,-0.000326856,-0.001077812,-0.041922241,-0.061763350,9.819652557
1784244765.889197,-0.006378504,0.006828763,0.833426654,-0.001132455,-0.000610684,-0.000927050,-0.028045852,-0.065852404,9.802600861
1784244765.891203,-0.006376258,0.006830950,0.833419323,-0.001058602,-0.000353517,-0.001373140,-0.040587775,-0.065519728,9.778382301
1784244765.893208,-0.006369204,0.006829437,0.833421588,-0.000137082,-0.000105748,-0.001335361,-0.049532413,-0.062335785,9.787809372
1784244765.895204,-0.006368318,0.006825544,0.833422422,0.000438053,-0.000341515,-0.000768757,-0.058989283,-0.064105473,9.801687241
1784244765.897203,-0.006371637,0.006824533,0.833418012,0.000134165,-0.000574705,-0.000808778,-0.067412145,-0.057108287,9.777962685
1784244765.899204,-0.006369879,0.006825140,0.833424866,-0.000030660,-0.000441750,-0.000420964,-0.076252744,-0.043376785,9.816149712
1784244765.901212,-0.006362850,0.006821445,0.833429277,0.000569057,-0.000536300,0.000457341,-0.040326010,-0.042784993,9.794219971
1784244765.903208,-0.006359155,0.006814952,0.833429515,0.001075406,-0.000963257,0.000662050,-0.067782469,-0.048378613,9.811194420
1784244765.905210,-0.006358278,0.006811322,0.833427548,0.001029494,-0.001267161,0.000377314,-0.092050768,-0.052423764,9.793661118
1784244765.907210,-0.006356513,0.006804041,0.833430529,0.000884213,-0.001758440,0.000348725,-0.088241696,-0.070495695,9.807893753
1784244765.909216,-0.006352901,0.006805422,0.833432913,0.000962180,-0.001778100,0.000618903,-0.045468483,-0.059753809,9.795451164
1784244765.911216,-0.006357020,0.006807148,0.833432496,0.000665558,-0.001085204,0.000584430,-0.051664535,-0.090912342,9.777759552
1784244765.913214,-0.006360075,0.006806989,0.833433986,0.000123784,-0.000612591,0.000504465,-0.069526419,-0.081491411,9.808290482
1784244765.915231,-0.006354663,0.006804107,0.833431840,0.000376953,-0.000580495,0.000319138,-0.075732708,-0.075546086,9.802494049
1784244765.917226,-0.006346319,0.006803566,0.833428800,0.001229302,-0.000724425,-0.000122622,-0.030713158,-0.064810693,9.786913872
1784244765.919224,-0.006341076,0.006808904,0.833428800,0.001837846,-0.000272054,-0.000296940,-0.040463772,-0.089972913,9.814539909
1784244765.921223,-0.006345181,0.006810633,0.833431721,0.001414740,0.000280391,-0.000026924,-0.015478058,-0.067601725,9.773909569
1784244765.923225,-0.006349958,0.006802746,0.833436191,0.000446926,-0.000049897,0.000471530,-0.043835551,-0.110802434,9.788400650
1784244765.925227,-0.006351441,0.006801793,0.833436608,-0.000078883,-0.000471436,0.000671459,-0.047990669,-0.082593344,9.798439980
1784244765.927226,-0.006347602,0.006803168,0.833432496,0.000159811,-0.000259709,0.000243326,-0.056589428,-0.087116346,9.819922447
1784244765.929231,-0.006345100,0.006802436,0.833429873,0.000605602,-0.000089073,-0.000284663,-0.049251672,-0.075014807,9.806108475
1784244765.931230,-0.006349795,0.006798074,0.833435237,0.000291144,-0.000411839,-0.000022939,-0.046537928,-0.036884196,9.794699669
1784244765.933233,-0.006349990,0.006799378,0.833437085,-0.000152507,-0.000358553,0.000475871,-0.064429216,-0.030532202,9.815795898
1784244765.935238,-0.006347156,0.006805009,0.833433628,0.000039404,0.000362444,0.000230107,-0.068968497,-0.072935022,9.801172256
1784244765.937235,-0.006353052,0.006808385,0.833433151,-0.000128963,0.000783897,-0.000094412,-0.093153261,-0.070241682,9.780991554
1784244765.939234,-0.006357965,0.006810652,0.833432555,-0.000778928,0.000861400,-0.000134368,-0.059757203,-0.016566182,9.796609879
1784244765.941242,-0.006357529,0.006812597,0.833438098,-0.000873711,0.000911342,0.000234230,-0.072311729,-0.052301895,9.803991318
1784244765.943242,-0.006358264,0.006815980,0.833436370,-0.000706969,0.000999622,0.000431207,-0.078713633,-0.060869392,9.823208809
1784244765.945237,-0.006359798,0.006811845,0.833432853,-0.000715061,0.000655112,-0.000041543,-0.045636561,-0.073643796,9.795809746
1784244765.947244,-0.006357827,0.006810404,0.833428323,-0.000468734,0.000276642,-0.000584816,-0.042577799,-0.042416397,9.809462547
1784244765.949239,-0.006349949,0.006814652,0.833424270,0.000349815,0.000570234,-0.001012501,-0.065215461,-0.058722574,9.812026024
1784244765.951274,-0.006345714,0.006824512,0.833426297,0.001078022,0.001373898,-0.000869274,-0.063009128,-0.063097388,9.793169975
1784244765.953253,-0.006353116,0.006828289,0.833431363,0.000629582,0.001858156,-0.000153293,-0.053937308,-0.052309047,9.834942818
1784244765.955249,-0.006362061,0.006827947,0.833428919,-0.000589852,0.001520472,0.000056146,-0.053182103,-0.067627169,9.782392502
1784244765.957329,-0.006361578,0.006831482,0.833429337,-0.000988538,0.001343071,-0.000097000,-0.027324071,-0.081434436,9.787259102
1784244765.959269,-0.006360120,0.006832617,0.833427131,-0.000572757,0.001314106,-0.000188833,-0.030601995,-0.093012556,9.783146858
1784244765.961259,-0.006354363,0.006835301,0.833429217,0.000072602,0.001216651,-0.000147303,-0.075260922,-0.074153900,9.794882774
1784244765.963252,-0.006357338,0.006835975,0.833434403,0.000323986,0.001090919,0.000387749,-0.069550812,-0.084115587,9.799306870
1784244765.965260,-0.006364408,0.006835613,0.833434820,-0.000362769,0.000793378,0.000666689,-0.033070311,-0.073379062,9.798962593
1784244765.967335,-0.006368286,0.006831271,0.833436549,-0.000955041,0.000381061,0.000633984,-0.073304124,-0.059524544,9.813358307
1784244765.969300,-0.006370068,0.006829792,0.833431423,-0.001024786,0.000007119,0.000231236,-0.051806696,-0.028202187,9.780403137
1784244765.971283,-0.006369181,0.006828811,0.833425581,-0.000802019,-0.000157150,-0.000566575,-0.041960347,-0.067332476,9.783748627
1784244765.973268,-0.006368782,0.006824073,0.833424449,-0.000478648,-0.000370213,-0.000877260,-0.060309023,-0.060638081,9.820538521
1784244765.975267,-0.006374239,0.006824491,0.833426058,-0.000677177,-0.000433738,-0.000616370,-0.036704872,-0.078956246,9.770678520
1784244765.977267,-0.006377468,0.006822212,0.833424628,-0.001018684,-0.000297791,-0.000443664,-0.040625647,-0.106245421,9.771842957
1784244765.979270,-0.006377353,0.006820448,0.833426893,-0.000889492,-0.000347157,-0.000263920,-0.050642781,-0.079810664,9.789937019
1784244765.981279,-0.006371125,0.006818088,0.833427608,-0.000218746,-0.000534216,0.000011510,-0.063298605,-0.049271610,9.802674294
1784244765.983272,-0.006364351,0.006813254,0.833424032,0.000720485,-0.000888901,-0.000185483,-0.069465116,-0.038554519,9.818877220
1784244765.985276,-0.006359973,0.006811443,0.833426297,0.001278279,-0.001110587,-0.000220675,-0.073313862,-0.061627630,9.794067383
1784244765.987275,-0.006355797,0.006815570,0.833432913,0.001563244,-0.000645009,0.000442957,-0.055455409,-0.067833722,9.815564156
1784244765.989272,-0.006348201,0.006814787,0.833437622,0.001988178,-0.000237183,0.001089600,-0.065563589,-0.053464923,9.766329765
1784244765.991275,-0.006348111,0.006812225,0.833436191,0.001968544,-0.000401194,0.001016026,-0.063806124,-0.055403776,9.783804893
1784244765.993283,-0.006355933,0.006812149,0.833437383,0.000888126,-0.000507741,0.000726133,-0.042422563,-0.067028210,9.804821968
1784244765.995283,-0.006358752,0.006809357,0.833441257,-0.000098884,-0.000603416,0.000875567,-0.048984565,-0.053858891,9.791898727
1784244765.997281,-0.006352616,0.006804386,0.833441377,0.000029848,-0.000879804,0.000912416,-0.079697758,-0.068431899,9.817330360
1784244765.999279,-0.006346122,0.006802551,0.833439946,0.000758054,-0.001013781,0.000579608,-0.085513741,-0.068627059,9.792217255
1784244766.001286,-0.006340681,0.006800994,0.833441496,0.001362204,-0.000968735,0.000428331,-0.043955572,-0.047917400,9.766386032
1784244766.003291,-0.006338029,0.006797193,0.833441079,0.001475550,-0.001040835,0.000389231,-0.055617455,-0.046922870,9.773554802
1784244766.005280,-0.006334975,0.006796723,0.833442271,0.001396231,-0.001019506,0.000342850,-0.080745131,-0.047414169,9.761871338
1784244766.007283,-0.006328919,0.006801750,0.833447933,0.001577939,-0.000505118,0.000727413,-0.087029554,-0.082512505,9.794368744
1784244766.009286,-0.006324774,0.006803388,0.833449483,0.001784145,0.000012695,0.001026529,-0.060242586,-0.094866559,9.782210350
1784244766.011294,-0.006320762,0.006797865,0.833438396,0.001857765,-0.000250256,0.000103480,-0.034356512,-0.068431064,9.798544884
1784244766.013286,-0.006318494,0.006790373,0.833434105,0.001779904,-0.000978047,-0.000951236,-0.027179174,-0.067322247,9.818733215
1784244766.015287,-0.006317571,0.006790456,0.833433867,0.001508588,-0.001132366,-0.000995761,-0.077376463,-0.062983364,9.803021431
1784244766.017291,-0.006316328,0.006793085,0.833438575,0.001206487,-0.000743333,-0.000429858,-0.074339107,-0.068704389,9.846025467
1784244766.019290,-0.006315964,0.006789727,0.833440840,0.000947283,-0.000694601,0.000161544,-0.070267417,-0.067682147,9.820931435
1784244766.021297,-0.006317397,0.006791427,0.833446145,0.000614124,-0.000621767,0.000628457,-0.062557079,-0.061861005,9.807525635
1784244766.023304,-0.006324195,0.006793955,0.833448708,-0.000094396,-0.000167814,0.000988143,-0.056819644,-0.033206426,9.800093651
1784244766.025339,-0.006325941,0.006790357,0.833456576,-0.000632958,-0.000197963,0.001428643,-0.027615793,-0.067221120,9.805284500
1784244766.027306,-0.006327581,0.006785416,0.833457589,-0.000685426,-0.000582911,0.001639749,-0.077420242,-0.064950086,9.827667236
1784244766.029307,-0.006333862,0.006787431,0.833449483,-0.001024298,-0.000475477,0.000712112,-0.095206358,-0.052904610,9.803965569
1784244766.031307,-0.006334832,0.006785147,0.833448648,-0.001234311,-0.000360837,-0.000089763,-0.076032832,-0.065046459,9.775660515
1784244766.033305,-0.006335127,0.006783443,0.833446622,-0.000957127,-0.000536495,-0.000259489,-0.077631995,-0.047673807,9.792806625
1784244766.035311,-0.006332813,0.006787754,0.833449304,-0.000533940,-0.000218305,-0.000145622,-0.073035188,-0.038759358,9.791076660
1784244766.037318,-0.006330995,0.006792990,0.833451331,-0.000184882,0.000497371,0.000210866,-0.068526998,-0.073808089,9.797132492
1784244766.039348,-0.006335400,0.006794190,0.833448410,-0.000384007,0.000809957,0.000089593,-0.038775083,-0.102586165,9.757970810
1784244766.041323,-0.006341165,0.006791958,0.833447278,-0.000968103,0.000521757,-0.000218947,-0.054812349,-0.055362955,9.761845589
1784244766.043323,-0.006342604,0.006789868,0.833445787,-0.001215223,0.000111228,-0.000336238,-0.034126464,-0.050404515,9.783416748
1784244766.045311,-0.006345171,0.006787864,0.833444118,-0.001178013,-0.000171960,-0.000457354,-0.071513236,-0.061199486,9.793622971
1784244766.047318,-0.006346695,0.006787929,0.833443224,-0.001113470,-0.000252890,-0.000508724,-0.080994278,-0.065996788,9.792238235
1784244766.049320,-0.006336665,0.006791097,0.833446920,-0.000213692,0.000036729,-0.000181813,-0.084528536,-0.059434872,9.820970535
1784244766.051343,-0.006331986,0.006790875,0.833453655,0.000838078,0.000222231,0.000580328,-0.080176897,-0.033508051,9.821589470
1784244766.053319,-0.006334979,0.006789480,0.833460987,0.000677924,0.000023822,0.001384935,-0.030843642,-0.036761459,9.812201500
1784244766.055325,-0.006333285,0.006787168,0.833460271,0.000362037,-0.000259464,0.001464543,-0.047267724,-0.059765793,9.800380707
1784244766.057321,-0.006325455,0.006784170,0.833456218,0.000892726,-0.000505277,0.000747297,-0.046124678,-0.040006593,9.791991234
1784244766.059385,-0.006324817,0.006785580,0.833448708,0.001210868,-0.000428745,-0.000243240,-0.041987553,-0.067142062,9.820064545
1784244766.061334,-0.006326876,0.006781186,0.833447695,0.000789695,-0.000511274,-0.000750022,-0.073639244,-0.050111614,9.813418388
1784244766.063339,-0.006332266,0.006781058,0.833452880,0.000063602,-0.000698181,-0.000254094,-0.065488718,-0.008799792,9.785895348
1784244766.065369,-0.006337683,0.006783861,0.833457768,-0.000696029,-0.000348200,0.000488615,-0.066128165,-0.024078773,9.793417931
1784244766.067342,-0.006337285,0.006785948,0.833454728,-0.000938183,0.000140822,0.000471863,-0.056604903,-0.052890670,9.795484543
1784244766.069333,-0.006335810,0.006789472,0.833450139,-0.000642422,0.000549850,-0.000171109,-0.041658655,-0.042256188,9.785255432
1784244766.071350,-0.006333811,0.006789809,0.833451688,-0.000230778,0.000663833,-0.000333341,-0.064530395,-0.041867591,9.771785736
1784244766.073334,-0.006333808,0.006785105,0.833446503,-0.000153807,0.000191518,-0.000491077,-0.057733405,-0.073345475,9.775626183
1784244766.075335,-0.006338008,0.006779939,0.833445013,-0.000517174,-0.000524801,-0.000807296,-0.050010532,-0.102988951,9.771856308
1784244766.077333,-0.006338650,0.006780559,0.833439410,-0.000596326,-0.000616431,-0.001071070,-0.065167718,-0.093503945,9.788490295
1784244766.079345,-0.006339604,0.006780396,0.833436608,-0.000433115,-0.000343027,-0.001351240,-0.078258157,-0.062847853,9.785536766
1784244766.081343,-0.006343510,0.006778410,0.833433867,-0.000642852,-0.000393517,-0.001358684,-0.076939158,-0.064294845,9.797634125
1784244766.083351,-0.006348074,0.006778404,0.833431840,-0.000995232,-0.000482475,-0.001310559,-0.059204068,-0.043611143,9.818406105
1784244766.085349,-0.006347381,0.006780346,0.833435595,-0.000942706,-0.000283283,-0.000840295,-0.051916309,-0.071520634,9.823615074
1784244766.087346,-0.006342696,0.006779528,0.833440483,-0.000253935,-0.000076070,-0.000026986,-0.055066381,-0.073173657,9.809701920
1784244766.089359,-0.006339368,0.006779056,0.833443046,0.000427039,-0.000088599,0.000492668,-0.034338217,-0.067881353,9.784200668
1784244766.091374,-0.006345059,0.006782657,0.833444536,0.000148809,0.000146050,0.000636684,-0.050140496,-0.073719844,9.814634323
1784244766.093358,-0.006345060,0.006778288,0.833440721,-0.000253464,0.000159804,0.000307163,-0.100389801,-0.037064768,9.791059494
1784244766.095363,-0.006346260,0.006777863,0.833443582,-0.000242308,-0.000103997,0.000156326,-0.083988398,-0.053045165,9.803525925
1784244766.097356,-0.006345400,0.006774844,0.833447158,-0.000199823,-0.000353641,0.000551629,-0.103539623,-0.036284406,9.813032150
1784244766.099357,-0.006345024,0.006773076,0.833447754,-0.000061024,-0.000625777,0.000694857,-0.067985415,-0.064975433,9.814226151
1784244766.101360,-0.006350206,0.006775876,0.833445668,-0.000370102,-0.000385186,0.000403850,-0.050006025,-0.063337237,9.803494453
1784244766.103365,-0.006361168,0.006778852,0.833443642,-0.001350845,0.000105322,0.000011892,-0.045045841,-0.026833257,9.764727592
1784244766.105367,-0.006370929,0.006777987,0.833439052,-0.002374993,0.000214998,-0.000437983,-0.032171857,-0.036197681,9.798304558
1784244766.107361,-0.006371179,0.006772473,0.833435476,-0.002438868,-0.000179775,-0.000875584,-0.055616409,-0.044483114,9.808540344
1784244766.109367,-0.006371833,0.006773898,0.833436191,-0.001869816,-0.000314222,-0.000831504,-0.050640885,-0.081011467,9.769755363
1784244766.111369,-0.006377560,0.006774584,0.833436966,-0.001795962,-0.000086277,-0.000509289,-0.057764985,-0.074000113,9.804762840
1784244766.113363,-0.006390023,0.006768358,0.833434761,-0.002470508,-0.000433128,-0.000477144,-0.054141417,-0.069725484,9.827211380
1784244766.115371,-0.006393964,0.006762925,0.833432198,-0.002839316,-0.001099780,-0.000672459,-0.069305442,-0.063131362,9.809303284
1784244766.117373,-0.006392787,0.006764055,0.833432138,-0.002234875,-0.001073752,-0.000666092,-0.043848600,-0.073720835,9.803432465
1784244766.119376,-0.006393163,0.006766803,0.833432615,-0.001553950,-0.000500628,-0.000459414,-0.055486433,-0.070915386,9.807923317
1784244766.121377,-0.006393163,0.006766803,0.833432615,-0.001260242,-0.000334802,-0.000003694,-0.062587507,-0.061696026,9.847428322
1784244766.123374,-0.006399202,0.006767442,0.833406627,-0.001315131,-0.000540328,0.000211264,-0.058900025,-0.082516916,9.786325455
1784244766.125371,-0.006399202,0.006767442,0.833406627,-0.001264673,-0.000724866,0.000024370,-0.061344642,-0.072254479,9.817771912
1784244766.127380,-0.006399843,0.006766579,0.833406627,-0.000996974,-0.000728505,-0.000321289,-0.080271266,-0.043979313,9.782070160
1784244766.129381,-0.006399843,0.006766579,0.833406627,-0.001069315,-0.000350954,-0.000463094,-0.070999682,-0.055019628,9.805768967
1784244766.131385,-0.006399843,0.006766579,0.833406627,-0.001325050,-0.000329365,0.000027578,-0.052119263,-0.053364322,9.791001320
1784244766.133381,-0.006399706,0.006765923,0.833406627,-0.001552402,-0.000815734,0.000147491,-0.076579645,-0.071083605,9.806557655
1784244766.135387,-0.006399706,0.006765923,0.833406627,-0.001134611,-0.000831366,-0.000249739,-0.040846691,-0.047805388,9.808086395
1784244766.137385,-0.006398455,0.006764316,0.833406627,-0.000281462,-0.000307257,-0.000769935,-0.044531785,-0.057023488,9.787847519
1784244766.139382,-0.006398455,0.006764316,0.833406627,-0.000402807,-0.000061544,-0.001132779,-0.033938650,-0.071111865,9.796733856
1784244766.141387,-0.006398455,0.006764316,0.833406627,-0.000873969,-0.000148848,-0.001326991,-0.076190718,-0.074803397,9.824914932
1784244766.143389,-0.006399563,0.006764403,0.833406627,-0.000765136,-0.000217101,-0.001503884,-0.068176001,-0.082690373,9.785418510
1784244766.145395,-0.006399563,0.006764403,0.833406627,-0.000795977,-0.000339846,-0.001272295,-0.056994703,-0.085957125,9.783616066
1784244766.147393,-0.006400905,0.006763928,0.833406627,-0.000873376,-0.000465445,-0.000977510,-0.056085836,-0.082636125,9.819054604
1784244766.149395,-0.006400905,0.006763928,0.833406627,-0.000076457,-0.000329498,-0.001193383,-0.052347191,-0.072995119,9.779666901
1784244766.151401,-0.006400905,0.006763928,0.833406627,0.000670377,0.000144400,-0.001131670,-0.052601285,-0.055242628,9.803991318
1784244766.153393,-0.006401107,0.006763572,0.833406627,0.000595576,0.000345668,-0.000005389,-0.053740650,-0.075783283,9.796236038
1784244766.155396,-0.006401107,0.006763572,0.833406627,0.000371655,-0.000118078,0.000847528,-0.052956875,-0.046801925,9.814805031
1784244766.157395,-0.006400142,0.006762685,0.833406627,-0.000058386,-0.000249619,0.000585056,-0.047155172,-0.049961526,9.807617188
1784244766.159400,-0.006400142,0.006762685,0.833406627,-0.000220056,0.000265777,0.000253080,-0.051401682,-0.069384776,9.774312019
1784244766.161404,-0.006400142,0.006762685,0.833406627,0.000293579,0.000578440,0.000336824,-0.063776501,-0.052738268,9.786959648
1784244766.163404,-0.006399371,0.006762537,0.833406627,0.000391845,0.000377095,0.000413054,-0.075711466,-0.039004296,9.767310143
1784244766.165406,-0.006399371,0.006762537,0.833406627,0.000479365,0.000067257,0.000630169,-0.056095779,-0.046745781,9.812561035
1784244766.167407,-0.006398988,0.006762068,0.833406627,0.001160398,0.000033985,0.000609870,-0.075054474,-0.058745161,9.769874573
1784244766.169408,-0.006398988,0.006762068,0.833406627,0.001422342,-0.000073076,-0.000163927,-0.108671397,-0.053574003,9.796327591
1784244766.171410,-0.006398988,0.006762068,0.833406627,0.000815248,-0.000358676,-0.000693951,-0.080071956,-0.065001078,9.776555061
1784244766.173407,-0.006398857,0.006763576,0.833406627,0.000427590,-0.000408870,-0.000501444,-0.038787954,-0.065097935,9.778834343
1784244766.175412,-0.006398857,0.006763576,0.833406627,0.000475076,-0.000052568,-0.000430698,-0.047819700,-0.066654339,9.824995041
1784244766.177417,-0.006398965,0.006762738,0.833406627,-0.000083484,0.000537265,-0.000360212,-0.061249010,-0.065420598,9.801676750
1784244766.179421,-0.006398965,0.006762738,0.833406627,-0.000562208,0.001021502,-0.000272569,-0.051832095,-0.103582442,9.795611382
1784244766.181414,-0.006398965,0.006762738,0.833406627,-0.000099917,0.001061524,-0.000534109,-0.044279344,-0.071141787,9.819588661
1784244766.183419,-0.006400394,0.006761673,0.833406627,0.000287694,0.000783923,-0.000690163,-0.061334126,-0.072981887,9.794006348
1784244766.185424,-0.006400394,0.006761673,0.833406627,-0.000080449,0.000764605,-0.000135944,-0.084865034,-0.050438106,9.816544533
1784244766.187420,-0.006399468,0.006762707,0.833406627,-0.000835849,0.000915676,0.000610929,-0.075489685,-0.017801052,9.809587479
1784244766.189420,-0.006399468,0.006762707,0.833406627,-0.001239801,0.001081027,0.000686211,-0.048432853,-0.008166853,9.792191505
1784244766.191425,-0.006399468,0.006762707,0.833406627,-0.000829671,0.000982103,0.000054982,-0.041862868,-0.058052476,9.801741600
1784244766.193428,-0.006398541,0.006762141,0.833406627,-0.000660850,0.000535227,-0.000695985,-0.023640031,-0.074656084,9.772510529
1784244766.195426,-0.006398541,0.006762141,0.833406627,-0.001155297,0.000174365,-0.000269437,-0.050093673,-0.072134309,9.780571938
1784244766.197423,-0.006398994,0.006761813,0.833406627,-0.001443375,-0.000072294,0.000203970,-0.017105993,-0.053698294,9.774892807
1784244766.199425,-0.006398994,0.006761813,0.833406627,-0.001255770,-0.000414498,-0.000065194,-0.087233648,-0.062338967,9.793152809
1784244766.201435,-0.006398994,0.006761813,0.833406627,-0.000922138,-0.000775790,0.000045293,-0.062721476,-0.073695593,9.833902359
1784244766.203435,-0.006399670,0.006761498,0.833406627,-0.000530232,-0.000627276,0.000236623,-0.065265179,-0.062357139,9.819176674
1784244766.205435,-0.006399670,0.006761498,0.833406627,-0.000041938,-0.000248738,-0.000037358,-0.051338032,-0.060371868,9.829962730
1784244766.207443,-0.006400171,0.006760550,0.833406627,0.000274721,-0.000364996,-0.000816855,-0.042104784,-0.079414703,9.781878471
1784244766.209502,-0.006400171,0.006760550,0.833406627,0.000105990,-0.000572152,-0.001259664,-0.060000390,-0.074717849,9.783683777
1784244766.211443,-0.006400171,0.006760550,0.833406627,-0.000487690,-0.000579750,-0.000643502,-0.052041017,-0.083447054,9.799776077
1784244766.213442,-0.006400504,0.006760022,0.833406627,-0.000827573,-0.000370624,-0.000139135,-0.064027317,-0.073360376,9.789069176
1784244766.215440,-0.006400504,0.006760022,0.833406627,-0.000709881,-0.000020242,-0.000419891,-0.038176019,-0.088841841,9.777338028
1784244766.217444,-0.006402717,0.006757839,0.833406627,-0.000517163,0.000072525,-0.000733465,-0.046270445,-0.090905026,9.767004967
1784244766.219450,-0.006402717,0.006757839,0.833406627,-0.000070682,0.000203598,-0.000112625,-0.066963218,-0.057517484,9.771682739
1784244766.221446,-0.006402717,0.006757839,0.833406627,-0.000107710,0.000406226,0.001115900,-0.060762443,-0.062290616,9.801695824
1784244766.223450,-0.006402777,0.006757595,0.833406627,-0.000966418,0.000457578,0.001557714,-0.065960608,-0.046161808,9.811210632
1784244766.225454,-0.006402777,0.006757595,0.833406627,-0.001306563,0.000097034,0.001697289,-0.062965736,-0.058296993,9.811135292
1784244766.227461,-0.006402389,0.006757507,0.833406627,-0.001176854,-0.000385236,0.001726137,-0.059039216,-0.032583456,9.779472351
1784244766.229460,-0.006402389,0.006757507,0.833406627,-0.001479368,-0.000800408,0.001114353,-0.048903767,-0.045115884,9.822441101
1784244766.231456,-0.006402389,0.006757507,0.833406627,-0.001807292,-0.000976809,0.000849724,-0.043186538,-0.056237031,9.800856590
1784244766.233453,-0.006402382,0.006756314,0.833406568,-0.001517029,-0.000643595,0.000750617,-0.051987033,-0.042594180,9.788381577
1784244766.235456,-0.006402382,0.006756314,0.833406568,-0.001034167,-0.000438228,0.000425916,-0.065111883,-0.050204951,9.811183929
1784244766.237457,-0.006402122,0.006756226,0.833406568,-0.001175229,-0.000680285,0.000348876,-0.058945727,-0.061735295,9.783320427
1784244766.239456,-0.006402122,0.006756226,0.833406568,-0.001422300,-0.000836734,0.000238479,-0.038192920,-0.051385414,9.802684784
1784244766.241464,-0.006402122,0.006756226,0.833406568,-0.001074997,-0.000738740,-0.000110702,-0.063370012,-0.019134825,9.786279678
1784244766.243470,-0.006399597,0.006756067,0.833406568,-0.000371391,-0.000850764,-0.000600057,-0.059001938,-0.064610660,9.809753418
1784244766.245465,-0.006399597,0.006756067,0.833406568,0.000031770,-0.000986076,-0.000812605,-0.050178308,-0.077665642,9.802504539
1784244766.247469,-0.006400686,0.006754195,0.833406568,0.000003698,-0.000634300,-0.000459995,-0.040205076,-0.107283816,9.791115761
1784244766.249493,-0.006400686,0.006754195,0.833406568,-0.000123950,-0.000251106,-0.000166482,-0.053447135,-0.086740419,9.824411392
1784244766.251480,-0.006400686,0.006754195,0.833406568,-0.000146701,-0.000258042,-0.000387387,-0.046677366,-0.086111613,9.786762238
1784244766.253474,-0.006401588,0.006752910,0.833406568,0.000341408,-0.000394975,-0.000476040,-0.042040959,-0.072832018,9.801198006
1784244766.255476,-0.006401588,0.006752910,0.833406568,0.000893045,-0.000679048,-0.000180301,-0.076275475,-0.081551433,9.828906059
1784244766.257498,-0.006403080,0.006753830,0.833406568,0.001366746,-0.000887984,0.000233814,-0.066039629,-0.054485463,9.784705162
1784244766.259476,-0.006403080,0.006753830,0.833406568,0.001211394,-0.000512487,0.000483482,-0.079962507,-0.016415574,9.811836243
1784244766.261484,-0.006403080,0.006753830,0.833406568,-0.000132015,-0.000385344,0.000283504,-0.073164023,-0.049097434,9.795940399
1784244766.263479,-0.006401351,0.006754395,0.833406568,-0.001189617,-0.000938846,-0.000028369,-0.047251385,-0.060042057,9.776168823
1784244766.265501,-0.006401351,0.006754395,0.833406568,-0.001198766,-0.001222730,-0.000506416,-0.048534945,-0.052641582,9.808943748
1784244766.267494,-0.006400646,0.006753403,0.833406568,-0.000491257,-0.000731507,-0.001463406,-0.030278897,-0.065740980,9.790943146
1784244766.269490,-0.006400646,0.006753403,0.833406568,0.000082879,-0.000030312,-0.002483490,-0.047431551,-0.074027412,9.789977074
1784244766.271491,-0.006400646,0.006753403,0.833406568,0.000114747,0.000012482,-0.002543863,-0.056208227,-0.058170203,9.781104088
1784244766.273490,-0.006400051,0.006752542,0.833406568,0.000296100,-0.000127236,-0.001415177,-0.051933061,-0.074084394,9.806113243
1784244766.275492,-0.006400051,0.006752542,0.833406568,0.000588675,-0.000446518,-0.000630002,-0.043670267,-0.021754779,9.804214478
1784244766.277491,-0.006396514,0.006750551,0.833406568,0.000441382,-0.000794800,-0.001106232,-0.052104529,-0.050816461,9.810745239
1784244766.279493,-0.006396514,0.006750551,0.833406568,0.000100934,-0.000848681,-0.001344107,-0.082326978,-0.064657904,9.795384407
1784244766.281499,-0.006396514,0.006750551,0.833406568,-0.000056360,-0.000730570,-0.000920666,-0.051001381,-0.074635692,9.755896568
1784244766.283497,-0.006397121,0.006750001,0.833406568,-0.000042010,-0.000429817,-0.000628844,-0.050410207,-0.098138303,9.783543587
1784244766.285497,-0.006397121,0.006750001,0.833406568,0.000238573,-0.000338854,-0.000542902,-0.065465316,-0.081768543,9.776907921
1784244766.287495,-0.006397629,0.006750511,0.833406568,0.000424895,-0.000237391,-0.000317661,-0.046382517,-0.026336255,9.760246277
1784244766.289502,-0.006397629,0.006750511,0.833406568,0.000273370,0.000142287,0.000389226,-0.030144008,-0.052518368,9.821516037
1784244766.291514,-0.006397629,0.006750511,0.833406568,0.000203219,0.000708867,0.000508726,-0.049816094,-0.085648842,9.790349007
1784244766.293526,-0.006398276,0.006749095,0.833406568,0.000425301,0.001123759,-0.000234157,-0.076524965,-0.066194184,9.811967850
1784244766.295549,-0.006398276,0.006749095,0.833406568,0.000455722,0.000995108,-0.000723793,-0.091142647,-0.012329225,9.824405670
1784244766.297539,-0.006395767,0.006750415,0.833406568,0.000290417,0.000361329,-0.000740810,-0.077656403,-0.050297976,9.783823967
1784244766.299528,-0.006395767,0.006750415,0.833406568,0.000222977,-0.000209159,-0.000717626,-0.024239298,-0.047570150,9.808103561
1784244766.301525,-0.006395767,0.006750415,0.833406568,-0.000167971,-0.000441741,-0.000591948,-0.038128126,-0.047226578,9.784777641
1784244766.303542,-0.006395218,0.006749126,0.833406568,-0.000502828,-0.000267432,-0.000697128,-0.036433153,-0.054521881,9.799528122
1784244766.305518,-0.006395218,0.006749126,0.833406568,0.000017828,0.000302281,-0.000932535,-0.038569931,-0.082729980,9.800690651
1784244766.307518,-0.006396448,0.006747455,0.833406568,0.000503579,0.000623511,-0.000671137,-0.056532476,-0.086261392,9.762541771
1784244766.309517,-0.006396448,0.006747455,0.833406568,0.000001173,0.000255004,-0.000521532,-0.060557377,-0.082051173,9.807846069
1784244766.311520,-0.006396448,0.006747455,0.833406568,-0.000561811,0.000080994,-0.000791421,-0.074443169,-0.116841920,9.810747147
1784244766.313529,-0.006399097,0.006747290,0.833406568,-0.000532707,0.000418138,-0.001093061,-0.067179099,-0.073405989,9.801171303
1784244766.315524,-0.006399097,0.006747290,0.833406568,-0.000532337,0.000464427,-0.001061221,-0.083228163,-0.062244818,9.835748672
1784244766.317518,-0.006399143,0.006747447,0.833406568,-0.000860054,0.000390148,-0.000461490,-0.054291882,-0.047102280,9.796421051
1784244766.319518,-0.006399143,0.006747447,0.833406568,-0.000735475,0.000546559,0.000229883,-0.047309496,-0.026963493,9.787140846
1784244766.321529,-0.006399143,0.006747447,0.833406568,-0.000373790,0.000621916,0.000679601,-0.053989343,-0.060419675,9.778401375
1784244766.323534,-0.006399055,0.006746700,0.833406568,-0.000873321,0.000395613,0.001239110,-0.040594269,-0.064760521,9.797665596
1784244766.325531,-0.006399055,0.006746700,0.833406568,-0.001166791,0.000032667,0.001537404,-0.039405480,-0.076961763,9.810140610
1784244766.327532,-0.006400008,0.006745272,0.833406568,-0.000512099,-0.000291888,0.001232250,-0.059004430,-0.104246467,9.775874138
1784244766.329535,-0.006400008,0.006745272,0.833406568,-0.000559117,-0.000521788,0.000864738,-0.070725732,-0.068562776,9.819580078
1784244766.331535,-0.006400008,0.006745272,0.833406568,-0.000701002,-0.000493437,0.001139484,-0.079272360,-0.034679014,9.795578957
1784244766.333531,-0.006398822,0.006746457,0.833406568,0.000047746,-0.000195865,0.001649411,-0.081284031,-0.016204366,9.784487724
1784244766.335537,-0.006398822,0.006746457,0.833406568,-0.000164525,0.000033179,0.001351835,-0.055797100,-0.059688352,9.804856300
1784244766.337538,-0.006398863,0.006744925,0.833406568,-0.001078489,0.000068213,0.000483248,-0.035715330,-0.068108939,9.818718910
1784244766.339541,-0.006398863,0.006744925,0.833406568,-0.001636216,0.000021568,-0.000312205,-0.039561644,-0.088326126,9.833381653
1784244766.341539,-0.006398863,0.006744925,0.833406568,-0.001607616,0.000125452,-0.000655552,-0.031739734,-0.073113687,9.822278023
1784244766.343540,-0.006399280,0.006743130,0.833406508,-0.000502977,0.000222011,-0.000344232,-0.063575625,-0.072937243,9.791761398
1784244766.345540,-0.006399280,0.006743130,0.833406508,0.001189490,0.000462552,-0.000078976,-0.035406578,-0.080972016,9.799808502
1784244766.347546,-0.006400263,0.006742109,0.833406508,0.001933212,0.000465279,-0.000248515,-0.055171058,-0.083320968,9.787669182
1784244766.349546,-0.006400263,0.006742109,0.833406508,0.001272756,-0.000277840,-0.000035099,-0.083670489,-0.064214960,9.798523903
1784244766.351559,-0.006400263,0.006742109,0.833406508,0.000684270,-0.000675151,0.000301522,-0.041714143,-0.084741935,9.774223328
1784244766.353561,-0.006401644,0.006741372,0.833406508,0.000786039,-0.000447002,0.000333852,-0.045675740,-0.040415790,9.785711288
1784244766.355557,-0.006401644,0.006741372,0.833406508,0.000989655,-0.000012207,0.000359106,-0.057248157,-0.068604894,9.801211357
1784244766.357556,-0.006401760,0.006741007,0.833406508,0.001031765,0.000521451,0.000414647,-0.045594219,-0.071283154,9.778788567
1784244766.359552,-0.006401760,0.006741007,0.833406508,0.000973020,0.000931171,0.000130150,-0.065236181,-0.096881337,9.822542191
1784244766.361562,-0.006401760,0.006741007,0.833406508,0.000458237,0.000967295,-0.000494507,-0.057319399,-0.075651444,9.784129143
1784244766.363566,-0.006402909,0.006741167,0.833406508,-0.000660501,0.000855312,-0.000572426,-0.028740535,-0.048840638,9.805849075
1784244766.365562,-0.006402909,0.006741167,0.833406508,-0.001293053,0.001020988,-0.000176227,-0.059437808,-0.063693084,9.807517052
1784244766.367561,-0.006403339,0.006740499,0.833406508,-0.000869574,0.000883035,-0.000356984,-0.028674083,-0.080232285,9.809680939
1784244766.369559,-0.006403339,0.006740499,0.833406508,-0.000421335,0.000348497,-0.000400600,-0.047472917,-0.075975060,9.811932564
1784244766.371570,-0.006403339,0.006740499,0.833406508,-0.000002434,0.000295653,0.000291720,-0.061483774,-0.047515482,9.804480553
1784244766.373563,-0.006402839,0.006739626,0.833406568,0.000608454,0.000162203,0.001066802,-0.063230366,-0.042653944,9.817065239
1784244766.375567,-0.006402839,0.006739626,0.833406568,0.001087841,-0.000132490,0.001485981,-0.064350218,-0.025045393,9.800138474
1784244766.377573,-0.006400824,0.006739750,0.833406508,0.000698508,-0.000262340,0.000996368,-0.058961134,-0.025482852,9.788932800
1784244766.379570,-0.006400824,0.006739750,0.833406508,0.000029547,-0.001032322,-0.000086757,-0.066282272,-0.073827282,9.795788765
1784244766.381571,-0.006400824,0.006739750,0.833406508,0.000243493,-0.001785558,-0.000099532,-0.082157649,-0.089158431,9.775052071
1784244766.383576,-0.006402761,0.006740176,0.833406508,0.000133959,-0.001616545,0.000725122,-0.069097467,-0.084489807,9.788096428
1784244766.385571,-0.006402761,0.006740176,0.833406508,-0.000389845,-0.000838226,0.000931679,-0.059118234,-0.075660244,9.788610458
1784244766.387577,-0.006404046,0.006741135,0.833406508,-0.000191568,-0.000256605,0.000613809,-0.077747144,-0.095493741,9.775912285
1784244766.389576,-0.006404046,0.006741135,0.833406508,0.000234020,-0.000609232,0.000270055,-0.057475436,-0.051045991,9.789667130
1784244766.391580,-0.006404046,0.006741135,0.833406508,0.000594137,-0.001262308,-0.000036650,-0.050419044,-0.060618289,9.799922943
1784244766.393580,-0.006403602,0.006739302,0.833406568,0.000499962,-0.001336250,-0.000583341,-0.049232211,-0.036055516,9.809047699
1784244766.395578,-0.006403602,0.006739302,0.833406568,-0.000178209,-0.000827891,-0.000600348,-0.087080620,-0.011383293,9.810067177
1784244766.397584,-0.006400692,0.006740292,0.833406508,-0.000310060,-0.000214897,0.000273728,-0.079791158,-0.040900201,9.789261818
1784244766.399578,-0.006400692,0.006740292,0.833406508,-0.000170929,0.000282017,0.001091657,-0.074673608,-0.062528566,9.797198296
1784244766.401588,-0.006400692,0.006740292,0.833406508,-0.000267489,0.000543577,0.000802096,-0.045402948,-0.054778550,9.788758278
1784244766.403587,-0.006400423,0.006740586,0.833406508,0.000040650,0.000394475,-0.000457142,-0.014422466,-0.053396121,9.790589333
1784244766.405583,-0.006400423,0.006740586,0.833406508,0.000788256,0.000172219,-0.001374286,-0.041021790,-0.062156040,9.810234070
1784244766.407588,-0.006400735,0.006739023,0.833406508,0.001111764,-0.000207947,-0.001285806,-0.043535110,-0.047335647,9.809879303
1784244766.409587,-0.006400735,0.006739023,0.833406508,0.000640456,-0.000569592,-0.000843857,-0.075173333,-0.029793644,9.794269562
1784244766.411595,-0.006400735,0.006739023,0.833406508,0.000430624,-0.000309189,-0.001060326,-0.078381658,-0.074764751,9.760353088
1784244766.413588,-0.006401397,0.006739756,0.833406508,0.000692634,-0.000196400,-0.001145583,-0.079506449,-0.055574201,9.773028374
1784244766.415598,-0.006401397,0.006739756,0.833406508,0.000608499,-0.000261019,-0.000270252,-0.066857614,-0.046147130,9.810761452
1784244766.417595,-0.006399869,0.006740764,0.833406508,0.000297326,-0.000069638,0.000079520,-0.072893992,-0.064292528,9.790015221
1784244766.419601,-0.006399869,0.006740764,0.833406508,0.000193797,-0.000307758,0.000043588,-0.082151838,-0.088707298,9.774606705
1784244766.421603,-0.006399869,0.006740764,0.833406508,0.000316836,-0.000466918,0.000270532,-0.025688132,-0.059711073,9.753774643
1784244766.423601,-0.006400762,0.006738445,0.833406568,0.000217171,0.000248689,0.000187466,-0.035141941,-0.059025101,9.800396919
1784244766.425603,-0.006400762,0.006738445,0.833406568,0.000075129,0.001075630,0.000309063,-0.070500121,-0.088161170,9.802865982
1784244766.427607,-0.006401817,0.006738500,0.833406568,0.000667843,0.000860244,0.000448351,-0.099513739,-0.074834757,9.808303833
1784244766.429607,-0.006401817,0.006738500,0.833406568,0.001349688,0.000325315,0.000114869,-0.064778797,-0.097223744,9.806848526
1784244766.431606,-0.006401817,0.006738500,0.833406568,0.001148395,0.000538785,-0.000396596,-0.037189852,-0.040836632,9.829654694
1784244766.433610,-0.006401255,0.006736686,0.833406568,0.000860091,0.000895916,-0.001111278,-0.041749269,-0.045808457,9.843963623
1784244766.435611,-0.006401255,0.006736686,0.833406568,0.000376989,0.000996702,-0.001579084,-0.056686785,-0.095179647,9.819870949
1784244766.437609,-0.006402662,0.006736347,0.833406568,-0.000373430,0.001107540,-0.001450952,-0.049655158,-0.108189367,9.809482574
1784244766.439608,-0.006402662,0.006736347,0.833406568,-0.000250324,0.001305729,-0.001139270,-0.040667124,-0.071819805,9.782376289
1784244766.441613,-0.006402662,0.006736347,0.833406568,0.000576946,0.001170285,-0.000605719,-0.056188323,-0.092360899,9.800611496
1784244766.443613,-0.006403878,0.006735798,0.833406568,0.001212103,0.000694388,-0.000399600,-0.062886626,-0.051593482,9.813420296
1784244766.445612,-0.006403878,0.006735798,0.833406568,0.001312724,0.000297830,-0.000286402,-0.050700825,-0.047542181,9.788799286
1784244766.447632,-0.006403665,0.006735574,0.833406568,0.001022183,-0.000097897,0.000246183,-0.059636317,-0.042664971,9.812134743
1784244766.449626,-0.006403665,0.006735574,0.833406568,0.000472307,0.000015995,0.000220678,-0.033013519,-0.070093900,9.777912140
1784244766.451754,-0.006403665,0.006735574,0.833406568,0.000234898,0.000115867,0.000094140,-0.035597790,-0.098286696,9.777727127
1784244766.453717,-0.006405511,0.006734158,0.833406568,0.000289047,-0.000429120,0.000540432,-0.038456868,-0.074542671,9.783257484
1784244766.455669,-0.006405511,0.006734158,0.833406568,0.000566667,-0.000558164,0.000777164,-0.056555364,-0.049662732,9.782505035
1784244766.457703,-0.006404721,0.006733856,0.833406568,0.001034237,0.000461251,0.000902090,-0.051639669,-0.051505096,9.780703545
1784244766.459728,-0.006404721,0.006733856,0.833406568,0.000942210,0.001316765,0.000956935,-0.069346480,-0.067102596,9.800761223
1784244766.461723,-0.006404721,0.006733856,0.833406568,0.000684459,0.000901642,0.000413143,-0.072934672,-0.067450516,9.793132782
1784244766.463680,-0.006405071,0.006733682,0.833406568,0.000710502,0.000256379,-0.000219248,-0.088762902,-0.039145999,9.810785294
1784244766.465654,-0.006405071,0.006733682,0.833406568,0.001059276,0.000248963,-0.000388008,-0.076784939,-0.088509575,9.800167084
1784244766.467649,-0.006406228,0.006733865,0.833406568,0.001367224,0.000224538,-0.000438760,-0.050607618,-0.075480506,9.811037064
1784244766.469645,-0.006406228,0.006733865,0.833406568,0.000537347,-0.000233750,-0.000172982,-0.071912862,-0.094748877,9.786683083
1784244766.471648,-0.006406228,0.006733865,0.833406568,-0.000281932,-0.000332078,0.000147969,-0.054285854,-0.084644549,9.783178329
1784244766.473644,-0.006407129,0.006733007,0.833406568,0.000081821,-0.000267970,0.000041077,-0.057370137,-0.078888915,9.798455238
1784244766.475649,-0.006407129,0.006733007,0.833406568,0.000431877,-0.000655826,0.000231698,-0.063565023,-0.071637876,9.798047066
1784244766.477649,-0.006407392,0.006733318,0.833406568,0.000252009,-0.000918676,0.000857381,-0.079701029,-0.067647263,9.833026886
1784244766.479649,-0.006407392,0.006733318,0.833406568,-0.000145104,-0.000569195,0.001622656,-0.039047636,-0.085790001,9.790806770
1784244766.481646,-0.006407392,0.006733318,0.833406568,-0.000631186,-0.000237163,0.001638716,-0.082707100,-0.060058083,9.779273033
1784244766.483653,-0.006407754,0.006735094,0.833406568,-0.000879931,-0.000459414,0.000835666,-0.065563478,-0.052248232,9.784272194
1784244766.485654,-0.006407754,0.006735094,0.833406568,-0.000720885,-0.000773301,0.000954366,-0.049781162,-0.046162099,9.782084465
1784244766.487656,-0.006407116,0.006734747,0.833406568,-0.000474181,-0.000467384,0.001693889,-0.074022226,-0.044723973,9.812556267
1784244766.489651,-0.006407116,0.006734747,0.833406568,-0.000324095,0.000244981,0.001711802,-0.095124267,-0.083362177,9.802425385
1784244766.491655,-0.006407116,0.006734747,0.833406568,-0.000306823,0.000568151,0.001525045,-0.066814817,-0.082183361,9.774662971
1784244766.493658,-0.006408631,0.006735279,0.833406568,-0.000549255,0.000521438,0.000881566,-0.037393227,-0.060273465,9.790971756
1784244766.495654,-0.006408631,0.006735279,0.833406568,-0.000906243,0.000402900,-0.000165617,-0.059724990,-0.051064935,9.796389580
1784244766.497658,-0.006407557,0.006734923,0.833406568,-0.001006757,0.000201738,-0.000098482,-0.030738354,-0.064604387,9.820988655
1784244766.499658,-0.006407557,0.006734923,0.833406568,-0.001222583,0.000376954,0.000565753,-0.060831215,-0.067291319,9.811976433
1784244766.501662,-0.006407557,0.006734923,0.833406568,-0.001068473,0.000756438,0.000528037,-0.052326299,-0.069182858,9.810626984
1784244766.503663,-0.006408527,0.006733500,0.833406568,-0.000614429,0.000779760,0.000084502,-0.067175023,-0.039431136,9.748934746
1784244766.505671,-0.006408527,0.006733500,0.833406568,-0.000607184,0.000980119,-0.000220049,-0.024862405,-0.025535421,9.797931671
1784244766.507673,-0.006407396,0.006731873,0.833406568,-0.000674809,0.001107868,-0.000279663,-0.054674059,-0.038871437,9.836823463
1784244766.509670,-0.006407396,0.006731873,0.833406568,-0.000925351,0.001004447,-0.000216194,-0.078479633,-0.079590946,9.809190750
1784244766.511671,-0.006407396,0.006731873,0.833406568,-0.001054257,0.000874419,-0.000152125,-0.060119774,-0.046986207,9.790586472
1784244766.513674,-0.006406733,0.006732058,0.833406568,-0.000861257,0.000613059,0.000146801,-0.052726839,-0.066365346,9.793159485
1784244766.515670,-0.006406733,0.006732058,0.833406568,-0.000431413,0.000471991,0.000618025,-0.050021976,-0.103484616,9.778577805
1784244766.517670,-0.006408401,0.006731027,0.833406508,0.000062736,0.000297821,0.000546005,-0.051791281,-0.061617795,9.816951752
1784244766.519672,-0.006408401,0.006731027,0.833406508,0.000077803,0.000013551,0.000347700,-0.068965502,-0.034916174,9.810382843
1784244766.521678,-0.006408401,0.006731027,0.833406508,-0.000253689,-0.000047178,0.000420130,-0.090611562,-0.044006053,9.804474831
1784244766.523679,-0.006407728,0.006732161,0.833406568,-0.000306258,0.000539837,-0.000064843,-0.072696492,-0.047333594,9.799091339
1784244766.525676,-0.006407728,0.006732161,0.833406568,0.000220976,0.001324346,-0.000902653,-0.053562686,-0.062220447,9.778839111
1784244766.527677,-0.006407424,0.006731776,0.833406568,-0.000104066,0.001683192,-0.000811279,-0.064433098,-0.070584193,9.777430534
1784244766.529690,-0.006407424,0.006731776,0.833406568,-0.000994899,0.001821016,0.000011734,-0.052080717,-0.086192064,9.807827950
1784244766.531696,-0.006407424,0.006731776,0.833406568,-0.000771613,0.002255881,0.000307659,-0.039801419,-0.073702633,9.793573380
1784244766.533695,-0.006408732,0.006731100,0.833406508,-0.000486209,0.002211588,0.000485317,-0.038158450,-0.048681751,9.800460815
1784244766.535691,-0.006408732,0.006731100,0.833406508,-0.000200873,0.001007765,0.000734697,-0.028108923,-0.071618661,9.794494629
1784244766.537691,-0.006409068,0.006729705,0.833406508,0.000475951,-0.000069600,0.000482753,-0.079398423,-0.044184763,9.809416771
1784244766.539693,-0.006409068,0.006729705,0.833406508,0.000613229,-0.000310748,0.000319730,-0.077454358,-0.032087371,9.805909157
1784244766.541705,-0.006409068,0.006729705,0.833406508,0.000122854,0.000130921,0.000365937,-0.072832353,-0.058132358,9.805746078
1784244766.543701,-0.006407910,0.006730769,0.833406508,-0.000515979,0.001105340,0.000132011,-0.040658079,-0.068506375,9.820505142
1784244766.545694,-0.006407910,0.006730769,0.833406508,-0.000479060,0.001432238,-0.000111945,-0.050896581,-0.063271694,9.795871735
1784244766.547704,-0.006407655,0.006730220,0.833406508,0.000044568,0.000800730,-0.000239565,-0.068364158,-0.097549409,9.796083450
1784244766.549701,-0.006407655,0.006730220,0.833406508,0.000319544,0.000486931,-0.000512407,-0.053002276,-0.051618215,9.799083710
1784244766.551705,-0.006407655,0.006730220,0.833406508,0.000266922,0.000331506,-0.000458439,-0.050764982,-0.052101277,9.799978256
1784244766.553734,-0.006406439,0.006730152,0.833406508,0.000058011,-0.000482512,-0.000314988,-0.063587226,-0.036249556,9.799171448
1784244766.555715,-0.006406439,0.006730152,0.833406508,-0.000345965,-0.001051925,-0.000680101,-0.053058092,-0.092080370,9.818550110
1784244766.557744,-0.006408879,0.006729570,0.833406508,-0.000648482,-0.000548909,-0.000904878,-0.033655033,-0.081741869,9.841946602
1784244766.559711,-0.006408879,0.006729570,0.833406508,-0.000559504,0.000116862,-0.000524912,-0.068337858,-0.058536071,9.791401863
1784244766.561715,-0.006408879,0.006729570,0.833406508,0.000115615,0.000216531,-0.000122926,-0.073935010,-0.073520057,9.829407692
1784244766.563716,-0.006409511,0.006730572,0.833406508,0.000769714,0.000181276,-0.000137306,-0.057145320,-0.058066867,9.831316948
1784244766.565712,-0.006409511,0.006730572,0.833406508,0.000430007,-0.000087373,-0.000186537,-0.019835373,-0.055173025,9.798194885
1784244766.567717,-0.006409148,0.006727939,0.833406508,-0.000093055,-0.000623866,0.000064092,-0.031320427,-0.038598429,9.819360733
1784244766.569713,-0.006409148,0.006727939,0.833406508,-0.000199703,-0.000764450,0.000049932,-0.046545696,-0.038161300,9.785278320
1784244766.571722,-0.006409148,0.006727939,0.833406508,0.000109508,-0.000327517,-0.000534421,-0.057105787,-0.055728488,9.817433357
1784244766.573716,-0.006409165,0.006727888,0.833406508,0.000517550,0.000238920,-0.000651563,-0.073838636,-0.068706587,9.782363892
1784244766.575715,-0.006409165,0.006727888,0.833406508,0.000972857,0.000375444,-0.000016114,-0.065523140,-0.084656619,9.805135727
1784244766.577748,-0.006409866,0.006727589,0.833406508,0.001303829,0.000350574,0.000175333,-0.058067523,-0.060682710,9.822780609
1784244766.579738,-0.006409866,0.006727589,0.833406508,0.001039176,0.000251566,-0.000282164,-0.073052108,-0.041729741,9.767743111
1784244766.581730,-0.006409866,0.006727589,0.833406508,0.000589260,-0.000125546,-0.000328725,-0.038278028,-0.058946699,9.795015335
1784244766.583725,-0.006409114,0.006726380,0.833406508,0.000459140,-0.000528062,-0.000417197,-0.072343916,-0.093793146,9.779067039
1784244766.585725,-0.006409114,0.006726380,0.833406508,0.000278569,-0.000546061,-0.001184272,-0.100381002,-0.108527839,9.822433472
1784244766.587725,-0.006410714,0.006727820,0.833406508,-0.000246777,-0.000229834,-0.001922386,-0.084321335,-0.080799669,9.800658226
1784244766.589728,-0.006410714,0.006727820,0.833406508,-0.000357803,0.000191391,-0.001772631,-0.052666489,-0.062241491,9.780184746
1784244766.591729,-0.006410714,0.006727820,0.833406508,0.000066753,0.000595813,-0.000849858,-0.052292753,-0.067702264,9.791358948
1784244766.593730,-0.006410583,0.006727456,0.833406508,0.000482822,0.000814958,0.000201210,-0.029534904,-0.079121359,9.780994415
1784244766.595733,-0.006410583,0.006727456,0.833406508,0.000949961,0.001028712,0.000660583,-0.043037679,-0.081709780,9.791276932
1784244766.597733,-0.006411868,0.006726795,0.833406508,0.001274290,0.001277477,0.000526377,-0.065710388,-0.101129435,9.790681839
1784244766.599740,-0.006411868,0.006726795,0.833406508,0.000872886,0.001138047,0.001003468,-0.047886271,-0.036479395,9.803219795
1784244766.601739,-0.006411868,0.006726795,0.833406508,0.000017731,0.000914222,0.001728537,-0.059875049,-0.025601717,9.807312965
1784244766.603741,-0.006410246,0.006725982,0.833406508,-0.000640136,0.000684749,0.001407881,-0.092085339,-0.053507280,9.820104599
1784244766.605741,-0.006410246,0.006725982,0.833406508,-0.000470367,0.000173357,0.000397172,-0.058178421,-0.071284346,9.801640511
1784244766.607747,-0.006410263,0.006725647,0.833406508,0.000126318,0.000013253,-0.000589909,-0.040701061,-0.073303573,9.802093506
1784244766.609740,-0.006410263,0.006725647,0.833406508,0.000309595,0.000131217,-0.000965095,-0.031736627,-0.074304953,9.800750732
1784244766.611746,-0.006410263,0.006725647,0.833406508,0.000206691,0.000181156,-0.000823799,-0.036189873,-0.035580333,9.781716347
1784244766.613742,-0.006408312,0.006724027,0.833406508,0.000291518,-0.000054175,-0.000722126,-0.037065182,-0.034583878,9.769168854
1784244766.615751,-0.006408312,0.006724027,0.833406508,0.000587866,-0.000194356,-0.000286475,-0.070194587,-0.063459717,9.794057846
1784244766.617748,-0.006407692,0.006724773,0.833406508,0.000718295,0.000137090,-0.000075139,-0.084049158,-0.057172194,9.816950798
1784244766.619754,-0.006407692,0.006724773,0.833406508,0.000867142,0.000184402,-0.000644252,-0.058152869,-0.070677407,9.779229164
1784244766.621779,-0.006407692,0.006724773,0.833406508,0.000701955,0.000110612,-0.000536380,-0.042239077,-0.089390680,9.798850060
1784244766.623760,-0.006410567,0.006722481,0.833406508,0.000113479,0.000364348,0.000120831,-0.049787149,-0.084609836,9.770180702
1784244766.625759,-0.006410567,0.006722481,0.833406508,-0.000168937,0.000656828,0.000401865,-0.062205512,-0.070333488,9.801196098
1784244766.627764,-0.006412174,0.006721646,0.833406508,-0.000142914,0.000526519,0.000424532,-0.063993372,-0.106629714,9.804995537
1784244766.629761,-0.006412174,0.006721646,0.833406508,-0.000070627,0.000288681,0.000169556,-0.051696330,-0.053573567,9.819694519
1784244766.631760,-0.006412174,0.006721646,0.833406508,0.000203015,0.000473352,-0.000068002,-0.061437849,-0.041479323,9.837697029
1784244766.633756,-0.006410549,0.006721258,0.833406508,0.000382049,0.000479894,0.000119231,-0.060713366,-0.058255788,9.801274300
1784244766.635763,-0.006410549,0.006721258,0.833406508,-0.000124592,0.000095547,0.000252448,-0.067106709,-0.030786693,9.793374062
1784244766.637769,-0.006408635,0.006721535,0.833406508,-0.000657944,-0.000466678,-0.000302204,-0.061117064,-0.053436935,9.817443848
1784244766.639765,-0.006408635,0.006721535,0.833406508,-0.000790193,-0.000468355,-0.000162027,-0.046869427,-0.065032609,9.784207344
1784244766.641768,-0.006408635,0.006721535,0.833406508,-0.000611687,-0.000060661,0.000285789,-0.045391787,-0.090659335,9.793908119
1784244766.643766,-0.006410450,0.006720885,0.833406508,-0.000192743,0.000039770,-0.000128742,-0.056653652,-0.058949087,9.765407562
1784244766.645763,-0.006410450,0.006720885,0.833406508,0.000040051,0.000078491,-0.000557393,-0.070929646,-0.047982618,9.824194908
1784244766.647806,-0.006410296,0.006721452,0.833406508,0.000119112,0.000072340,-0.000978307,-0.069672845,-0.055999577,9.815178871
1784244766.650046,-0.006410296,0.006721452,0.833406508,0.000138860,-0.000111060,-0.001394306,-0.050150346,-0.042286493,9.741758347
1784244766.651814,-0.006410296,0.006721452,0.833406508,0.000187842,-0.000249023,-0.001047461,-0.038356517,-0.066050477,9.786001205
1784244766.653796,-0.006409782,0.006720352,0.833406508,0.000245591,-0.000024563,-0.000991512,-0.031262666,-0.072490238,9.796728134
1784244766.655823,-0.006409782,0.006720352,0.833406508,0.000706239,0.000263977,-0.001527051,-0.049754515,-0.043925472,9.782546997
1784244766.657796,-0.006409003,0.006720094,0.833406508,0.001308237,0.000179109,-0.001232437,-0.072343439,-0.057010073,9.773026466
1784244766.659794,-0.006409003,0.006720094,0.833406508,0.001236752,-0.000166975,-0.000731379,-0.032189716,-0.075144254,9.793570518
1784244766.661842,-0.006409003,0.006720094,0.833406508,0.000354567,-0.000353711,-0.000764458,-0.043966793,-0.083569631,9.802473068
1784244766.663815,-0.006409457,0.006719115,0.833406508,-0.000432732,-0.000453184,-0.000626115,-0.076262183,-0.046693381,9.778468132
1784244766.665807,-0.006409457,0.006719115,0.833406508,-0.000300007,-0.000425270,-0.000523653,-0.057467721,-0.048958808,9.811200142
1784244766.667829,-0.006408935,0.006718849,0.833406508,0.000088577,-0.000348882,-0.001296669,-0.046387356,-0.061127532,9.801269531
1784244766.669814,-0.006408935,0.006718849,0.833406508,0.000351993,-0.000349566,-0.001444957,-0.059912745,-0.065920778,9.806605339
1784244766.671811,-0.006408935,0.006718849,0.833406508,0.000651407,-0.000248652,-0.000667708,-0.049479637,-0.056245573,9.813402176
1784244766.673803,-0.006408585,0.006718410,0.833406448,0.000978613,-0.000244769,-0.000679363,-0.041061390,-0.066521183,9.794066429
1784244766.675800,-0.006408585,0.006718410,0.833406448,0.000928297,-0.000254834,-0.001013317,-0.065640762,-0.094095603,9.809556961
1784244766.677811,-0.006409686,0.006718547,0.833406448,0.001071867,-0.000160541,-0.000533674,-0.064023353,-0.075355351,9.754534721
1784244766.679813,-0.006409686,0.006718547,0.833406448,0.001480163,-0.000314436,0.000356538,-0.091863893,-0.074354164,9.789933205
1784244766.681811,-0.006409686,0.006718547,0.833406448,0.001158642,-0.000973309,0.000260894,-0.096824758,-0.074894689,9.811891556
1784244766.683812,-0.006410107,0.006719475,0.833406508,0.000583578,-0.001320301,-0.000350136,-0.089170866,-0.074382298,9.789037704
1784244766.685812,-0.006410107,0.006719475,0.833406508,0.000228025,-0.000640352,-0.000374777,-0.070321344,-0.074591972,9.784571648
1784244766.687808,-0.006411142,0.006719348,0.833406508,0.000226105,0.000212417,-0.000426431,-0.031502433,-0.055029910,9.799080849
1784244766.689809,-0.006411142,0.006719348,0.833406508,0.000473963,0.000366082,-0.000971720,-0.055379700,-0.064399101,9.773443222
1784244766.691818,-0.006411142,0.006719348,0.833406508,0.000656322,0.000710114,-0.001060780,-0.060183126,-0.051538948,9.800869942
1784244766.693821,-0.006410650,0.006718608,0.833406448,0.000610234,0.001282447,-0.000438183,-0.079396896,-0.046198815,9.777572632
1784244766.695817,-0.006410650,0.006718608,0.833406448,0.000405954,0.000928256,-0.000151662,-0.073025405,-0.075056307,9.791739464
1784244766.697815,-0.006411562,0.006718685,0.833406448,0.000235357,0.000223476,-0.000432856,-0.044282801,-0.073600627,9.787293434
1784244766.699823,-0.006411562,0.006718685,0.833406448,-0.000320009,-0.000033091,-0.000673061,-0.056945723,-0.080302149,9.807412148
1784244766.701823,-0.006411562,0.006718685,0.833406448,-0.000596649,0.000027180,-0.000286861,-0.066033810,-0.054034323,9.784258842
1784244766.703831,-0.006411994,0.006718711,0.833406448,0.000033383,0.000096902,0.000194516,-0.066971436,-0.020397741,9.781336784
1784244766.705824,-0.006411994,0.006718711,0.833406448,0.000256025,-0.000028090,0.000273063,-0.060499713,-0.039142910,9.822468758
1784244766.707829,-0.006411600,0.006718849,0.833406508,-0.000436103,-0.000541692,0.000290468,-0.052179229,-0.095074967,9.797012329
1784244766.709916,-0.006411600,0.006718849,0.833406508,-0.001250865,-0.001200707,0.000337170,-0.052179229,-0.095074967,9.797012329
1784244766.711831,-0.006411600,0.006718849,0.833406508,-0.001568062,-0.001320578,-0.000149864,-0.056858197,-0.037968658,9.776749611
1784244766.713826,-0.006411600,0.006718849,0.833406508,-0.001522788,-0.001047689,-0.001025720,-0.056858197,-0.037968658,9.776749611
1784244766.715837,-0.006410466,0.006718426,0.833406448,-0.000947581,-0.000767620,-0.001193110,-0.080744483,-0.044977590,9.797305107
1784244766.717836,-0.006410466,0.006718426,0.833406448,0.000013677,-0.000482322,-0.000844391,-0.080744483,-0.044977590,9.797305107
1784244766.719833,-0.006409955,0.006719307,0.833406508,0.000697444,-0.000077754,-0.000354609,-0.062560022,-0.063099958,9.792722702
1784244766.721838,-0.006410746,0.006719175,0.833406508,0.000306556,-0.000131436,-0.000326094,-0.044616137,-0.063768335,9.791391373
1784244766.723840,-0.006410746,0.006719175,0.833406508,-0.000537749,-0.000162186,-0.000685252,-0.039192289,-0.059878819,9.801732063
1784244766.725838,-0.006409817,0.006717882,0.833406448,-0.000476365,0.000509867,-0.000905848,-0.045048837,-0.062015269,9.797677994
1784244766.727885,-0.006409817,0.006717882,0.833406448,-0.000091909,0.000671136,-0.000959527,-0.082571797,-0.046832286,9.809395790
1784244766.729848,-0.006409817,0.006717882,0.833406448,-0.000286646,0.000449098,-0.000568035,-0.058741737,-0.080288686,9.808756828
1784244766.731872,-0.006410820,0.006717631,0.833406448,-0.000881059,0.000325788,0.000113798,-0.072749972,-0.089803450,9.785816193
1784244766.733859,-0.006410820,0.006717631,0.833406448,-0.000700989,0.000120246,0.000791353,-0.048441846,-0.081796594,9.813240051
1784244766.735852,-0.006411774,0.006717274,0.833406448,-0.000264669,-0.000318443,0.000904733,-0.045631036,-0.071979128,9.813754082
1784244766.737865,-0.006411774,0.006717274,0.833406448,-0.000271853,-0.000598520,0.000987032,-0.055943992,-0.070979595,9.817784309
1784244766.739893,-0.006411774,0.006717274,0.833406448,-0.000234907,-0.000192585,0.001303177,-0.069123738,-0.048323207,9.805812836
1784244766.741863,-0.006411456,0.006717396,0.833406448,-0.000334288,0.000140163,0.001587646,-0.053365249,-0.082041420,9.793506622
1784244766.743906,-0.006411456,0.006717396,0.833406448,-0.000322204,-0.000140986,0.001900407,-0.024288103,-0.052818496,9.790135384
1784244766.745889,-0.006410831,0.006716022,0.833406448,-0.000041602,-0.000347181,0.001875949,-0.064815946,-0.026389878,9.801026344
1784244766.747863,-0.006410831,0.006716022,0.833406448,-0.000372199,0.000087228,0.001391191,-0.097067274,-0.020676715,9.811791420
1784244766.749902,-0.006410831,0.006716022,0.833406448,-0.001241109,0.000754993,0.000623818,-0.098635495,-0.039839126,9.800010681
1784244766.751892,-0.006410256,0.006717176,0.833406448,-0.001463344,0.000734044,-0.000099846,-0.053186186,-0.066848889,9.798985481
1784244766.753863,-0.006410256,0.006717176,0.833406448,-0.000783850,-0.000064145,-0.000648104,-0.028265497,-0.085823044,9.776021957
1784244766.755900,-0.006411986,0.006715046,0.833406448,-0.000616376,-0.000839967,-0.001067160,-0.057961661,-0.090952672,9.794790268
1784244766.757875,-0.006411986,0.006715046,0.833406448,-0.001377726,-0.001161631,-0.001372484,-0.085257567,-0.046746921,9.802221298
1784244766.759868,-0.006411986,0.006715046,0.833406448,-0.001620120,-0.000826785,-0.001031636,-0.037719991,-0.049173616,9.805837631
1784244766.761885,-0.006410441,0.006713240,0.833406448,-0.001089314,-0.000304597,-0.000437674,-0.054347180,-0.051591434,9.797736168
1784244766.763882,-0.006410441,0.006713240,0.833406448,-0.000740558,-0.000243337,-0.000728889,-0.058185201,-0.034558490,9.803670883
1784244766.765883,-0.006409454,0.006712409,0.833406448,-0.000176153,0.000015593,-0.001210126,-0.038726039,-0.060151290,9.776176453
1784244766.767875,-0.006409454,0.006712409,0.833406448,0.000617575,0.000627539,-0.000817612,-0.041569758,-0.071849637,9.788203239
1784244766.769879,-0.006409454,0.006712409,0.833406448,0.000736987,0.000588319,0.000114764,-0.057417043,-0.082501225,9.802466393
1784244766.771887,-0.006411290,0.006711779,0.833406448,0.000602001,0.000024268,0.000447670,-0.063066438,-0.067602433,9.796728134
1784244766.773874,-0.006411290,0.006711779,0.833406448,0.000522416,-0.000332620,0.000654416,-0.084522843,-0.060200427,9.802583694
1784244766.775880,-0.006410582,0.006713714,0.833406448,0.000140850,-0.000286897,0.001419979,-0.079016775,-0.050798643,9.793682098
1784244766.777882,-0.006410582,0.006713714,0.833406448,-0.000172474,-0.000198655,0.001887674,-0.048547875,-0.017180130,9.799756050
1784244766.779881,-0.006410582,0.006713714,0.833406448,-0.000186044,-0.000475018,0.001631118,-0.059423190,-0.027608795,9.773674965
1784244766.781888,-0.006407300,0.006713435,0.833406448,0.000004312,-0.000727523,0.000631922,-0.050847098,-0.059233684,9.795000076
1784244766.783897,-0.006407300,0.006713435,0.833406448,-0.000070131,-0.000636859,-0.000473879,-0.065410882,-0.076475672,9.788599968
1784244766.785896,-0.006407920,0.006713410,0.833406448,-0.000251872,-0.000606874,-0.001045173,-0.064161167,-0.049390115,9.757839203
1784244766.787896,-0.006407920,0.006713410,0.833406448,0.000029625,-0.000611920,-0.000738775,-0.061625037,-0.058762208,9.811134338
1784244766.789890,-0.006407920,0.006713410,0.833406448,0.000105882,-0.000724969,-0.000065085,-0.045310065,-0.045940150,9.805850983
1784244766.791922,-0.006406251,0.006710908,0.833406448,-0.000145261,-0.000837361,-0.000008208,-0.069946751,-0.078019619,9.824899673
1784244766.793897,-0.006406251,0.006710908,0.833406448,-0.000268823,-0.000451677,-0.000000178,-0.075875446,-0.085588828,9.828880310
1784244766.795899,-0.006407299,0.006711518,0.833406448,0.000165743,-0.000053139,0.000458456,-0.060693923,-0.056886476,9.797696114
1784244766.797901,-0.006407299,0.006711518,0.833406448,0.001004842,0.000087010,0.000882819,-0.059619971,-0.040104385,9.830085754
1784244766.799906,-0.006407299,0.006711518,0.833406448,0.001452887,0.000049531,0.000757682,-0.046111435,-0.039091591,9.789305687
1784244766.801899,-0.006406748,0.006711456,0.833406448,0.001253990,-0.000219670,-0.000057734,-0.045954991,-0.063693866,9.783320427
1784244766.803901,-0.006406748,0.006711456,0.833406448,0.000551236,-0.000193110,-0.000759712,-0.075155854,-0.066840269,9.774305344
1784244766.805898,-0.006407059,0.006711632,0.833406448,-0.000120851,0.000132070,-0.000962766,-0.049195334,-0.070922740,9.797616959
1784244766.807910,-0.006407059,0.006711632,0.833406448,-0.000253875,-0.000120199,-0.001221158,-0.047333419,-0.062310845,9.843403816
1784244766.809905,-0.006407059,0.006711632,0.833406448,-0.000027174,-0.000487123,-0.001464055,-0.107458681,-0.065181002,9.788183212
1784244766.811907,-0.006407425,0.006713221,0.833406448,-0.000125027,0.000004379,-0.001637194,-0.060547769,-0.046411667,9.773554802
1784244766.813901,-0.006407425,0.006713221,0.833406448,-0.000770412,0.000852499,-0.001418521,-0.044339247,-0.076072544,9.820005417
1784244766.815907,-0.006407909,0.006712554,0.833406448,-0.000956024,0.001175195,-0.000592495,-0.053328764,-0.041731887,9.795558929
1784244766.817900,-0.006407909,0.006712554,0.833406448,-0.000985840,0.001086260,-0.000172900,-0.061674878,-0.063613459,9.800341606
1784244766.819908,-0.006407909,0.006712554,0.833406448,-0.001857936,0.000853970,-0.000411068,-0.074596502,-0.055840943,9.801724434
1784244766.821918,-0.006408183,0.006712975,0.833406448,-0.002299187,0.000320348,-0.000207205,-0.050739661,-0.048254054,9.826006889
1784244766.823925,-0.006408183,0.006712975,0.833406448,-0.001642293,0.000153833,0.000142670,-0.050604433,-0.037055023,9.826078415
1784244766.825911,-0.006407291,0.006712153,0.833406448,-0.001176654,0.000483423,0.000273679,-0.069651626,-0.019457784,9.779994965
1784244766.827916,-0.006407291,0.006712153,0.833406448,-0.000891071,0.000725653,0.000116319,-0.071472846,-0.056827985,9.808894157
1784244766.829909,-0.006407291,0.006712153,0.833406448,-0.000484130,0.000812520,-0.000413691,-0.057660896,-0.067099459,9.779252052
1784244766.831916,-0.006407446,0.006712033,0.833406448,-0.000550609,0.000806279,-0.000566088,-0.031790432,-0.042408112,9.788850784
1784244766.833916,-0.006407446,0.006712033,0.833406448,-0.000960365,0.000841295,-0.000623306,-0.060970519,-0.042958956,9.792853355
1784244766.835913,-0.006406835,0.006711931,0.833406448,-0.001205366,0.000794341,-0.000683359,-0.090870209,-0.065095201,9.809270859
1784244766.837919,-0.006406835,0.006711931,0.833406448,-0.001117120,0.000395836,-0.000494040,-0.063083477,-0.068952680,9.797616005
1784244766.839921,-0.006406835,0.006711931,0.833406448,-0.000853897,0.000156054,-0.000138903,-0.044441085,-0.048607618,9.801351547
1784244766.841922,-0.006406311,0.006710875,0.833406448,-0.000564140,0.000577280,-0.000364113,-0.059479002,-0.068070948,9.793141365
1784244766.843921,-0.006406311,0.006710875,0.833406448,-0.000766103,0.001000682,-0.001196100,-0.043556638,-0.050747629,9.785647392
1784244766.845921,-0.006405765,0.006709864,0.833406448,-0.001640108,0.001009982,-0.001642549,-0.049607199,-0.029794212,9.811330795
1784244766.847925,-0.006405765,0.006709864,0.833406448,-0.002026780,0.000831190,-0.001499072,-0.052790869,-0.069707751,9.822279930
1784244766.849937,-0.006405765,0.006709864,0.833406448,-0.001913106,0.000585585,-0.000889114,-0.065460868,-0.078896716,9.814139366
1784244766.851957,-0.006406048,0.006709794,0.833406448,-0.001831316,0.000386573,-0.000101896,-0.078494996,-0.081738539,9.796174049
1784244766.853951,-0.006406048,0.006709794,0.833406448,-0.001100609,0.000397458,0.000293001,-0.043215882,-0.060116053,9.779311180
1784244766.855943,-0.006406039,0.006708367,0.833406448,-0.000115555,0.000419943,0.000346807,-0.037209269,-0.045852862,9.778959274
1784244766.858006,-0.006406039,0.006708367,0.833406448,0.000110159,0.000064529,0.000238736,-0.056714326,-0.023459394,9.815400124
1784244766.859971,-0.006406039,0.006708367,0.833406448,-0.000432407,-0.000471652,-0.000348112,-0.045499720,-0.024842078,9.800605774
1784244766.861960,-0.006403771,0.006706897,0.833406448,-0.000806872,-0.000628046,-0.000846493,-0.043122314,-0.049651161,9.819726944
1784244766.863988,-0.006403771,0.006706897,0.833406448,-0.000466251,-0.000699354,-0.000432119,-0.062160052,-0.066327281,9.804806709
1784244766.865967,-0.006404164,0.006707114,0.833406448,-0.000314600,-0.001168337,0.000535189,-0.051508009,-0.075897887,9.808342934
1784244766.867963,-0.006404164,0.006707114,0.833406448,-0.000634430,-0.001251144,0.000879584,-0.052106492,-0.051642433,9.800875664
1784244766.869968,-0.006404164,0.006707114,0.833406448,-0.000697233,-0.000716674,0.000700814,-0.070876770,-0.043512546,9.825570107
1784244766.871958,-0.006402846,0.006707657,0.833406448,-0.000778017,-0.000184052,0.000751842,-0.052917402,-0.043653477,9.813032150
1784244766.873963,-0.006402846,0.006707657,0.833406448,-0.001146296,0.000061971,0.001004354,-0.055947971,-0.071821466,9.810159683
1784244766.875966,-0.006403326,0.006707275,0.833406448,-0.000996979,0.000206230,0.000286185,-0.064607605,-0.081688195,9.827123642
1784244766.877968,-0.006403326,0.006707275,0.833406448,-0.000703528,0.000511747,-0.000957656,-0.022682028,-0.068110332,9.795419693
1784244766.879963,-0.006403326,0.006707275,0.833406448,-0.001146594,0.000481106,-0.000512349,-0.045461461,-0.059293132,9.793661118
1784244766.881968,-0.006403069,0.006705378,0.833406389,-0.001529082,0.000007897,0.000062170,-0.064018503,-0.072480351,9.791316032
1784244766.883970,-0.006403069,0.006705378,0.833406389,-0.001390224,-0.000354572,-0.000294962,-0.059426069,-0.064410955,9.782406807
1784244766.885987,-0.006403005,0.006705191,0.833406389,-0.001196831,-0.000387403,-0.000264865,-0.057816483,-0.078054018,9.807873726
1784244766.888020,-0.006403005,0.006705191,0.833406389,-0.000713219,-0.000452010,-0.000080156,-0.081615537,-0.079105914,9.809638023
1784244766.889979,-0.006403005,0.006705191,0.833406389,0.000090789,-0.000592171,-0.000234227,-0.066830695,-0.082713991,9.786315918
1784244766.891985,-0.006404169,0.006705273,0.833406389,0.000967373,-0.000588311,-0.000525932,-0.056740932,-0.064096056,9.796308517
1784244766.893981,-0.006404169,0.006705273,0.833406389,0.001608425,-0.000334201,-0.000628721,-0.064344697,-0.026217569,9.775920868
1784244766.895974,-0.006401796,0.006705618,0.833406389,0.001696559,-0.000020444,-0.000468813,-0.054477453,-0.026782475,9.774581909
1784244766.897988,-0.006401796,0.006705618,0.833406389,0.001165382,0.000305205,-0.000461038,-0.061046977,-0.047209997,9.823760986
1784244766.899988,-0.006401796,0.006705618,0.833406389,0.000398259,0.000562764,-0.000167036,-0.052327458,-0.107592441,9.793343544
1784244766.901990,-0.006403449,0.006704322,0.833406389,-0.000293269,0.000228628,0.000242594,-0.077246711,-0.089012183,9.808681488
1784244766.903983,-0.006403449,0.006704322,0.833406389,-0.000632482,0.000040647,0.000018072,-0.085010268,-0.062526695,9.815569878
1784244766.905982,-0.006403126,0.006705277,0.833406389,-0.000134012,0.000361764,0.000165129,-0.069423303,-0.072166897,9.820007324
1784244766.907993,-0.006403126,0.006705277,0.833406389,0.000282163,0.000574577,0.000687416,-0.071406499,-0.051846355,9.801304817
1784244766.909989,-0.006403126,0.006705277,0.833406389,0.000474702,0.000445250,0.000668996,-0.060694259,-0.054862883,9.828195572
1784244766.911986,-0.006403143,0.006705098,0.833406389,0.000923549,0.000403367,0.000385583,-0.053997040,-0.059670012,9.799029350
1784244766.913989,-0.006403143,0.006705098,0.833406389,0.001107456,0.000448388,-0.000145620,-0.034500193,-0.079696856,9.807888031
1784244766.916001,-0.006404071,0.006703798,0.833406389,0.001023809,0.000359308,-0.000822450,-0.038978931,-0.079979226,9.792637825
1784244766.917997,-0.006404071,0.006703798,0.833406389,0.001340106,0.000284147,-0.000304069,-0.067357123,-0.051405624,9.795035362
1784244766.919994,-0.006404071,0.006703798,0.833406389,0.001439462,-0.000060722,0.000649399,-0.082899965,-0.076575406,9.771097183
1784244766.922001,-0.006404123,0.006704394,0.833406389,0.000842759,-0.000497641,0.000511509,-0.079516336,-0.055247068,9.790066719
1784244766.924005,-0.006404123,0.006704394,0.833406389,0.000301477,-0.000687459,0.000194983,-0.055821437,-0.063122600,9.783762932
1784244766.926006,-0.006404351,0.006704553,0.833406389,0.000142967,-0.000651279,0.000453142,-0.054484241,-0.062399726,9.805736542
1784244766.928003,-0.006404351,0.006704553,0.833406389,0.000118953,-0.000535691,0.000605748,-0.021299779,-0.063384421,9.821455002
1784244766.930001,-0.006404351,0.006704553,0.833406389,-0.000134072,-0.000502724,0.000680156,-0.060149129,-0.085618362,9.804685593
1784244766.932009,-0.006406333,0.006703718,0.833406448,-0.000209057,-0.000372666,0.000861488,-0.071628548,-0.068999246,9.819576263
1784244766.934006,-0.006406333,0.006703718,0.833406448,-0.000225813,-0.000116446,0.001012599,-0.051727876,-0.057875119,9.794561386
1784244766.936007,-0.006405132,0.006703502,0.833406448,-0.000833533,0.000201958,0.001230780,-0.063683502,-0.045520015,9.779832840
1784244766.938009,-0.006405132,0.006703502,0.833406448,-0.001329403,0.000472255,0.001101023,-0.040140618,-0.063511416,9.810226440
1784244766.940013,-0.006405132,0.006703502,0.833406448,-0.000841107,0.000677006,0.001170356,-0.068319038,-0.056766476,9.794550896
1784244766.942020,-0.006405011,0.006703430,0.833406448,-0.000195101,0.000913142,0.001203758,-0.058085885,-0.063259199,9.807073593
1784244766.944014,-0.006405011,0.006703430,0.833406448,-0.000001332,0.000426163,0.000574115,-0.036203228,-0.072465159,9.802102089
1784244766.946016,-0.006405366,0.006702933,0.833406448,-0.000572937,-0.000535539,0.000544156,-0.046341367,-0.055901445,9.822374344
1784244766.948022,-0.006405366,0.006702933,0.833406448,-0.001433490,-0.000406255,0.000995596,-0.044563480,-0.058894828,9.799044609
1784244766.950023,-0.006405366,0.006702933,0.833406448,-0.001977286,0.000519642,0.000571055,-0.040222324,-0.070640646,9.804800987
1784244766.952023,-0.006405996,0.006701725,0.833406448,-0.002683944,0.000769389,-0.000372892,-0.045412324,-0.090821505,9.816771507
1784244766.954015,-0.006405996,0.006701725,0.833406448,-0.002606496,0.000618742,-0.000700423,-0.078860603,-0.039434273,9.770442009
1784244766.956029,-0.006404571,0.006702052,0.833406448,-0.001790118,0.000659919,-0.000467630,-0.100588329,-0.053626616,9.789159775
1784244766.958028,-0.006404571,0.006702052,0.833406448,-0.001085207,0.000815607,-0.000441582,-0.076775953,-0.049632955,9.814763069
1784244766.960029,-0.006404571,0.006702052,0.833406448,-0.000355428,0.000854917,-0.000458780,-0.043899059,-0.078171842,9.799368858
1784244766.962033,-0.006404750,0.006701665,0.833406448,0.000283601,0.000809624,-0.000345186,-0.016117506,-0.082880713,9.781432152
1784244766.964034,-0.006404750,0.006701665,0.833406448,0.000786066,0.000813225,-0.000424639,-0.032350123,-0.051383846,9.791929245
1784244766.966028,-0.006403758,0.006699657,0.833406448,0.001132662,0.000725065,-0.000320589,-0.074225254,-0.063347563,9.785537720
1784244766.968029,-0.006403758,0.006699657,0.833406448,0.001529292,0.000570508,-0.000443634,-0.034494773,-0.041658930,9.814407349
1784244766.970033,-0.006403758,0.006699657,0.833406448,0.001385890,0.000536565,-0.000858453,-0.063789606,-0.052436568,9.807584763
1784244766.972035,-0.006403743,0.006698453,0.833406448,0.001027659,0.000582918,-0.000564941,-0.077339619,-0.021860579,9.816734314
1784244766.974033,-0.006403743,0.006698453,0.833406448,0.001249589,0.000248063,0.000207199,-0.032608658,-0.036503170,9.779024124
1784244766.976034,-0.006402912,0.006695982,0.833406448,0.000689196,0.000032234,0.000389616,-0.038425438,-0.033867847,9.796968460
1784244766.978035,-0.006402912,0.006695982,0.833406448,-0.000454014,0.000424011,0.000343878,-0.051758591,-0.059333470,9.810689926
1784244766.980041,-0.006402912,0.006695982,0.833406448,-0.000671807,0.000686114,0.000094783,-0.062173750,-0.066435382,9.820049286
1784244766.982040,-0.006403094,0.006696167,0.833406448,-0.000386083,0.000030284,-0.000740556,-0.037558820,-0.072117597,9.818692207
1784244766.984043,-0.006403094,0.006696167,0.833406448,-0.000384693,-0.001165441,-0.001317317,-0.045518775,-0.063798182,9.797218323
1784244766.986042,-0.006402554,0.006695883,0.833406448,-0.000234674,-0.001466906,-0.000957843,-0.087202400,-0.059660736,9.794514656
1784244766.988045,-0.006402554,0.006695883,0.833406448,0.000712582,-0.000944349,0.000085724,-0.088203266,-0.069787003,9.771135330
1784244766.990053,-0.006402554,0.006695883,0.833406448,0.001133671,-0.000450119,0.000412914,-0.094272241,-0.050599992,9.793221474
1784244766.992053,-0.006401971,0.006698604,0.833406448,0.000794236,0.000156305,-0.000232925,-0.069312297,-0.063185416,9.816926003
1784244766.994048,-0.006401971,0.006698604,0.833406448,0.000980541,0.000505067,-0.000974018,-0.072991297,-0.073165901,9.777853966
1784244766.996054,-0.006402202,0.006698806,0.833406448,0.001326044,0.000126018,-0.001372676,-0.062501103,-0.058582190,9.787371635
1784244766.998054,-0.006402202,0.006698806,0.833406448,0.000922095,-0.000522801,-0.001377383,-0.069437914,-0.076334909,9.776042938
1784244767.000052,-0.006402202,0.006698806,0.833406448,-0.000057029,-0.000667519,-0.000820468,-0.054693125,-0.080664389,9.791273117
1784244767.002053,-0.006404040,0.006697821,0.833406448,-0.000621910,-0.000379892,-0.000195713,-0.059567269,-0.073630907,9.819110870
1784244767.004059,-0.006404040,0.006697821,0.833406448,-0.000619608,-0.000407482,0.000042129,-0.058093891,-0.064132862,9.803929329
1784244767.006057,-0.006403787,0.006697682,0.833406448,-0.000185871,-0.000524449,0.000576577,-0.063987188,-0.030185387,9.829247475
1784244767.008054,-0.006403787,0.006697682,0.833406448,0.000154918,0.000019825,0.001005567,-0.032288950,-0.044416778,9.820219040
1784244767.010054,-0.006403787,0.006697682,0.833406448,-0.000368272,0.000842385,0.000705469,-0.053342577,-0.077809818,9.828504562
1784244767.012067,-0.006404205,0.006696183,0.833406448,-0.001336679,0.000673092,0.000626050,-0.072215915,-0.079814509,9.829369545
1784244767.014063,-0.006404205,0.006696183,0.833406448,-0.001562503,-0.000212150,0.000691073,-0.036718111,-0.079871245,9.773362160
1784244767.016064,-0.006404371,0.006694459,0.833406448,-0.001378912,-0.000534040,0.000289500,-0.025387747,-0.030187346,9.823008537
1784244767.018067,-0.006404371,0.006694459,0.833406448,-0.001366070,-0.000245254,-0.000000319,-0.052791283,-0.034957804,9.787084579
1784244767.020070,-0.006404371,0.006694459,0.833406448,-0.000958777,0.000083839,0.000277244,-0.072464384,-0.064854346,9.805255890
1784244767.022085,-0.006404466,0.006694559,0.833406448,-0.000754198,0.000180137,0.000550707,-0.059656631,-0.046067413,9.786557198
1784244767.024125,-0.006404466,0.006694559,0.833406448,-0.001383050,0.000117450,0.000296651,-0.044620685,-0.065020025,9.778381348
1784244767.026117,-0.006404411,0.006693867,0.833406448,-0.001368519,0.000195780,-0.000392435,-0.071749792,-0.081303678,9.785872459
1784244767.028087,-0.006404411,0.006693867,0.833406448,-0.000291361,0.000223564,-0.000928999,-0.074655823,-0.025608759,9.771879196
1784244767.030112,-0.006404411,0.006693867,0.833406448,0.000506455,-0.000136534,-0.000960943,-0.067279093,-0.043494951,9.816605568
1784244767.032091,-0.006403484,0.006694248,0.833406448,0.000542479,-0.000557632,-0.000552720,-0.052286524,-0.029657975,9.796981812
1784244767.034084,-0.006403484,0.006694248,0.833406448,0.000046004,-0.000732213,-0.000345688,-0.034047693,-0.044514246,9.774040222
1784244767.036111,-0.006403222,0.006693002,0.833406448,-0.000366076,-0.000551536,-0.000409854,-0.065329865,-0.068136118,9.812862396
1784244767.038090,-0.006403222,0.006693002,0.833406448,-0.000213381,-0.000282466,-0.000184335,-0.054363117,-0.051311988,9.821500778
1784244767.040087,-0.006403222,0.006693002,0.833406448,0.000913442,0.000068133,-0.000595230,-0.056657616,-0.091707237,9.835586548
1784244767.042089,-0.006404247,0.006692789,0.833406448,0.002025258,0.000447173,-0.001019774,-0.020544106,-0.076672591,9.798504829
1784244767.044092,-0.006404247,0.006692789,0.833406448,0.001868701,0.000099986,-0.000720298,-0.043440219,-0.038481355,9.824731827
1784244767.046092,-0.006403667,0.006692397,0.833406448,0.001462675,-0.000419223,-0.000594338,-0.055527098,-0.071236528,9.853200912
1784244767.048094,-0.006403667,0.006692397,0.833406448,0.001424810,-0.000437934,-0.000879253,-0.050035495,-0.068432972,9.764007568
1784244767.050136,-0.006403667,0.006692397,0.833406448,0.001283595,-0.000918540,-0.001053490,-0.042222958,-0.051673524,9.787434578
1784244767.052100,-0.006402889,0.006691579,0.833406448,0.000850744,-0.001626743,-0.000912161,-0.068294808,-0.054548930,9.797703743
1784244767.054096,-0.006402889,0.006691579,0.833406448,0.000270791,-0.001580505,-0.001023115,-0.063575909,-0.074560568,9.767990112
1784244767.056105,-0.006403395,0.006691437,0.833406448,-0.000148018,-0.001187431,-0.001011677,-0.069308445,-0.063560255,9.806612015
1784244767.058095,-0.006403395,0.006691437,0.833406448,-0.000166362,-0.001015598,-0.000443920,-0.071416631,-0.053952612,9.782462120
1784244767.060133,-0.006403395,0.006691437,0.833406448,0.000016309,-0.001127298,0.000095039,-0.079792827,-0.077692822,9.796648026
1784244767.062121,-0.006403734,0.006691974,0.833406448,-0.000371276,-0.000983745,-0.000053463,-0.086682864,-0.052623112,9.812045097
1784244767.064109,-0.006403734,0.006691974,0.833406448,-0.000828290,-0.000354090,-0.000357568,-0.039690059,-0.026317930,9.808672905
1784244767.066110,-0.006402597,0.006691431,0.833406448,-0.001003664,-0.000225284,0.000105277,-0.063558631,-0.033186957,9.809502602
1784244767.068112,-0.006402597,0.006691431,0.833406448,-0.000881043,-0.000281132,0.000929417,-0.061764516,-0.034836460,9.786180496
1784244767.070112,-0.006402597,0.006691431,0.833406448,-0.000334791,0.000035896,0.001099269,-0.056845833,-0.073839918,9.780553818
1784244767.072111,-0.006402171,0.006690483,0.833406448,0.000065558,0.000255463,0.000139837,-0.066623040,-0.102048844,9.795607567
1784244767.074108,-0.006402171,0.006690483,0.833406448,0.000353460,0.000108363,-0.000380298,-0.065989465,-0.124000885,9.794122696
1784244767.076121,-0.006404857,0.006690090,0.833406448,0.000484981,-0.000433035,-0.000256303,-0.064379580,-0.101267517,9.807719231
1784244767.078111,-0.006404857,0.006690090,0.833406448,0.000692538,-0.000522767,-0.000146048,-0.084215067,-0.073476486,9.778737068
1784244767.080114,-0.006404857,0.006690090,0.833406448,0.000865978,-0.000122720,0.000315988,-0.074524611,-0.049194656,9.812079430
1784244767.082114,-0.006404595,0.006690495,0.833406448,0.000343529,0.000338473,0.000526129,-0.062313460,-0.042106193,9.801375389
1784244767.084125,-0.006404595,0.006690495,0.833406448,-0.000635766,0.000465576,0.000568789,-0.026556754,-0.018640390,9.776453972
1784244767.086115,-0.006402352,0.006688690,0.833406329,-0.000811036,0.000156495,0.000580431,-0.045032382,-0.061074834,9.791408539
1784244767.088120,-0.006402352,0.006688690,0.833406329,0.000251831,-0.000333384,0.000571277,-0.046262953,-0.088414386,9.794817924
1784244767.090122,-0.006402352,0.006688690,0.833406329,0.001080678,-0.000497501,0.001323946,-0.055885594,-0.067681700,9.794941902
1784244767.092134,-0.006403178,0.006688431,0.833406448,0.001108804,-0.000358530,0.001818627,-0.044602972,-0.064880110,9.758655548
1784244767.094125,-0.006403178,0.006688431,0.833406448,0.001002356,-0.000536937,0.001039973,-0.047100108,-0.047905769,9.770419121
1784244767.096133,-0.006401907,0.006688084,0.833406329,0.000631857,-0.000988175,0.000542684,-0.055512723,-0.037585642,9.783478737
1784244767.098132,-0.006401907,0.006688084,0.833406329,-0.000070244,-0.000975343,0.001012013,-0.057722401,-0.034452960,9.787980080
1784244767.100134,-0.006401907,0.006688084,0.833406329,-0.000470941,-0.000856317,0.000885355,-0.052461155,-0.007225550,9.793090820
1784244767.102132,-0.006398296,0.006688017,0.833406329,-0.000330929,-0.001059374,0.000322811,-0.056479469,-0.042984650,9.788373947
1784244767.104134,-0.006398296,0.006688017,0.833406329,-0.000550052,-0.000720293,0.000312346,-0.038161043,-0.049107455,9.797319412
1784244767.106133,-0.006397901,0.006685865,0.833406329,-0.000907751,-0.000416590,0.000214464,-0.042453408,-0.069703251,9.803010941
1784244767.108134,-0.006397901,0.006685865,0.833406329,-0.000860374,-0.000232120,-0.000271748,-0.046322733,-0.092128448,9.813175201
1784244767.110141,-0.006397901,0.006685865,0.833406329,-0.000786777,0.000136828,-0.000787047,-0.059674870,-0.082180329,9.824436188
1784244767.112140,-0.006399353,0.006685115,0.833406329,-0.000252693,-0.000144202,-0.000406560,-0.078773327,-0.069040425,9.775185585
1784244767.114143,-0.006399353,0.006685115,0.833406329,0.000187323,-0.000497900,0.000591944,-0.032327686,-0.049585640,9.791045189
1784244767.116142,-0.006399192,0.006682785,0.833406329,-0.000043639,-0.000079222,0.000600163,-0.047946285,-0.039790004,9.827856064
1784244767.118140,-0.006399192,0.006682785,0.833406329,-0.000337319,0.000230010,0.000136628,-0.057859115,-0.044448007,9.807641029
1784244767.120151,-0.006399192,0.006682785,0.833406329,-0.000158109,0.000089288,0.000086362,-0.056622740,-0.054247271,9.797267914
1784244767.122145,-0.006397504,0.006682601,0.833406329,0.000280809,0.000143560,0.000357988,-0.036179349,-0.036307726,9.757949829
1784244767.124161,-0.006397504,0.006682601,0.833406329,0.000638681,0.000520242,0.001279876,-0.066410989,-0.048195541,9.782951355
1784244767.126191,-0.006397705,0.006682828,0.833406329,0.001025769,0.000827849,0.002186521,-0.064308815,-0.061497778,9.759554863
1784244767.128164,-0.006397705,0.006682828,0.833406329,0.000922941,0.000412874,0.002066603,-0.063320614,-0.054713547,9.748840332
1784244767.130156,-0.006397705,0.006682828,0.833406329,0.000969738,-0.000463175,0.001398583,-0.089963548,-0.065033577,9.798961639
1784244767.132165,-0.006397562,0.006683684,0.833406329,0.001320148,-0.000346819,0.000591711,-0.053408597,-0.087651871,9.763431549
1784244767.134164,-0.006397562,0.006683684,0.833406329,0.001201536,0.000229283,-0.000210565,-0.064509325,-0.075238682,9.802058220
1784244767.136161,-0.006397688,0.006683936,0.833406329,0.000745785,0.000038099,-0.000329658,-0.067809634,-0.086588241,9.828883171
1784244767.138160,-0.006397688,0.006683936,0.833406329,0.000319456,-0.000372693,-0.000002887,-0.064869530,-0.067239583,9.811972618
1784244767.140161,-0.006397688,0.006683936,0.833406329,0.000029406,-0.000438404,0.000272600,-0.063212231,-0.039674025,9.839051247
1784244767.142166,-0.006396959,0.006683122,0.833406329,-0.000274366,-0.000735605,0.000200976,-0.071131632,-0.067003295,9.789999962
1784244767.144167,-0.006396959,0.006683122,0.833406329,-0.000461362,-0.001237261,-0.000376238,-0.062570147,-0.062369365,9.816040993
1784244767.146164,-0.006397281,0.006682721,0.833406329,-0.000267136,-0.001068402,-0.000450246,-0.055883579,-0.067665800,9.792700768
1784244767.148176,-0.006397281,0.006682721,0.833406329,0.000530166,-0.000257244,0.000601876,-0.038010634,-0.073757425,9.798058510
1784244767.150175,-0.006397281,0.006682721,0.833406329,0.000619795,0.000068652,0.001420235,-0.048392829,-0.079788543,9.782766342
1784244767.152178,-0.006398038,0.006682144,0.833406329,-0.000458472,-0.000375827,0.000747157,-0.074323997,-0.071827024,9.780999184
1784244767.154176,-0.006398038,0.006682144,0.833406329,-0.001044994,-0.000824002,-0.000357311,-0.077246651,-0.052232295,9.803091049
1784244767.156174,-0.006397671,0.006682633,0.833406329,-0.000788249,-0.001235510,-0.000240649,-0.071648113,-0.036832135,9.769569397
1784244767.158204,-0.006397671,0.006682633,0.833406329,-0.000490855,-0.001234144,0.000441901,-0.044107419,-0.060463488,9.766755104
1784244767.160177,-0.006397671,0.006682633,0.833406329,-0.000449820,-0.000920511,0.000164367,-0.077309668,-0.096398599,9.776354790
1784244767.162186,-0.006398118,0.006682852,0.833406329,-0.000167009,-0.000747760,-0.000200189,-0.089473478,-0.100681648,9.770487785
1784244767.164184,-0.006398118,0.006682852,0.833406329,0.000507948,-0.000594845,0.000166945,-0.064976208,-0.077402793,9.792181015
1784244767.166189,-0.006398595,0.006683073,0.833406329,0.000728544,-0.000480303,0.000397882,-0.061371341,-0.038927905,9.793775558
1784244767.168188,-0.006398595,0.006683073,0.833406329,0.000256925,-0.000406382,0.000294281,-0.057652082,-0.028629469,9.788016319
1784244767.170182,-0.006398595,0.006683073,0.833406329,-0.000411703,-0.000330584,0.000146208,-0.063905485,-0.060646132,9.828155518
1784244767.172187,-0.006398032,0.006683124,0.833406329,-0.000735210,-0.000239914,-0.000159774,-0.060302936,-0.061400454,9.801702499
1784244767.174193,-0.006398032,0.006683124,0.833406329,-0.000482803,-0.000231793,-0.000598847,-0.065692246,-0.060559545,9.819188118
1784244767.176192,-0.006398192,0.006683260,0.833406329,-0.000535151,-0.000313880,-0.000829315,-0.038595464,-0.045746949,9.829620361
1784244767.178191,-0.006398192,0.006683260,0.833406329,-0.001369643,-0.000402309,-0.000800063,-0.027819013,-0.045014445,9.833221436
1784244767.180186,-0.006398192,0.006683260,0.833406329,-0.001864905,-0.000124741,-0.000975238,-0.036187280,-0.069907762,9.820500374
1784244767.182195,-0.006398876,0.006681487,0.833406329,-0.001267840,-0.000003755,-0.001282300,-0.036612000,-0.070117861,9.787771225
1784244767.184197,-0.006398876,0.006681487,0.833406329,-0.000115323,-0.000340214,-0.001037871,-0.060063053,-0.115234055,9.810772896
1784244767.186199,-0.006401195,0.006681852,0.833406329,0.000853039,-0.000476058,-0.001292236,-0.067753196,-0.084116325,9.796170235
1784244767.188197,-0.006401195,0.006681852,0.833406329,0.001090130,-0.000478091,-0.001784623,-0.069592990,-0.051316459,9.786515236
1784244767.190198,-0.006401195,0.006681852,0.833406329,0.000504770,-0.000223172,-0.001529337,-0.065768719,-0.032894306,9.772290230
1784244767.192203,-0.006399998,0.006681664,0.833406329,-0.000027105,0.000356443,-0.000817834,-0.059778862,-0.058784835,9.747920036
1784244767.194199,-0.006399998,0.006681664,0.833406329,0.000091067,0.000719236,-0.000299039,-0.049165875,-0.068663858,9.794942856
1784244767.196202,-0.006400176,0.006681005,0.833406329,0.000479393,0.000407172,-0.000393181,-0.065120123,-0.053512011,9.772159576
1784244767.198203,-0.006400176,0.006681005,0.833406329,0.000509368,0.000200562,-0.000462048,-0.084729992,-0.077235661,9.804266930
1784244767.200207,-0.006400176,0.006681005,0.833406329,0.000244207,0.000391476,0.000084939,-0.054145098,-0.071780868,9.801194191
1784244767.202207,-0.006400198,0.006680396,0.833406329,-0.000170094,0.000189737,0.000679732,-0.061625738,-0.060388707,9.787809372
1784244767.204213,-0.006400198,0.006680396,0.833406329,-0.000470649,0.000080970,0.000752212,-0.041094743,-0.064758331,9.861327171
1784244767.206209,-0.006400158,0.006680117,0.833406329,-0.000065782,0.000735853,0.000340747,-0.069794029,-0.066277236,9.811526299
1784244767.208211,-0.006400158,0.006680117,0.833406329,0.000498987,0.000979018,-0.000447275,-0.046891067,-0.066824451,9.784196854
1784244767.210274,-0.006400158,0.006680117,0.833406329,0.000538216,0.000187995,-0.000991222,-0.027659001,-0.068778031,9.835312843
1784244767.212221,-0.006400247,0.006678581,0.833406329,0.000348387,-0.000407111,-0.000864431,-0.046435904,-0.063942492,9.819184303
1784244767.214220,-0.006400247,0.006678581,0.833406329,0.000357571,-0.000572463,-0.000734233,-0.078000881,-0.039338030,9.818415642
1784244767.216227,-0.006399653,0.006678975,0.833406329,0.000399837,-0.000817306,-0.000964955,-0.081266902,-0.051227398,9.795022964
1784244767.218226,-0.006399653,0.006678975,0.833406329,0.000468973,-0.000762980,-0.000987261,-0.080641955,-0.073652849,9.797121048
1784244767.220221,-0.006399653,0.006678975,0.833406329,0.000735252,-0.000868398,-0.001220597,-0.055728629,-0.056310974,9.770806313
1784244767.222230,-0.006398626,0.006679021,0.833406329,0.000922864,-0.001451428,-0.001014323,-0.032869224,-0.096818328,9.755323410
1784244767.224248,-0.006398626,0.006679021,0.833406329,0.001133866,-0.001574294,-0.000320700,-0.068587646,-0.079555266,9.786335945
1784244767.226231,-0.006399631,0.006679224,0.833406329,0.001851483,-0.001433567,-0.000192312,-0.070526086,-0.091608137,9.783566475
1784244767.228235,-0.006399631,0.006679224,0.833406329,0.002697088,-0.001586186,-0.000153847,-0.093956523,-0.062192317,9.784628868
1784244767.230234,-0.006399631,0.006679224,0.833406329,0.002789582,-0.001584724,0.000036436,-0.065408103,-0.038053378,9.804089546
1784244767.232236,-0.006398887,0.006679266,0.833406329,0.002317379,-0.001413191,-0.000258095,-0.059489131,-0.032587245,9.780817986
1784244767.234239,-0.006398887,0.006679266,0.833406329,0.001829878,-0.001248804,-0.000779547,-0.072098412,-0.034002263,9.813524246
1784244767.236238,-0.006398136,0.006679823,0.833406329,0.001549434,-0.000738743,-0.000362847,-0.019918855,-0.059884753,9.830892563
1784244767.238235,-0.006398136,0.006679823,0.833406329,0.001434099,-0.000406782,0.000373879,-0.033509344,-0.070460156,9.830364227
1784244767.240235,-0.006398136,0.006679823,0.833406329,0.000892010,-0.000788104,0.000599496,-0.068617843,-0.079793744,9.819958687
1784244767.242244,-0.006398346,0.006679540,0.833406329,0.000171006,-0.001186600,0.000473835,-0.070613302,-0.059975203,9.808875084
1784244767.244239,-0.006398346,0.006679540,0.833406329,-0.000131392,-0.001009221,0.000042269,-0.047829192,-0.066324025,9.841584206
1784244767.246248,-0.006398371,0.006678660,0.833406329,0.000231572,-0.000349194,0.000201108,-0.039782703,-0.032722928,9.827461243
1784244767.248244,-0.006398371,0.006678660,0.833406329,0.000929586,0.000161181,0.000606503,-0.075341083,-0.080460332,9.799772263
1784244767.250247,-0.006398371,0.006678660,0.833406329,0.000856535,0.000164039,0.000447555,-0.085253060,-0.120675176,9.802194595
1784244767.252253,-0.006400383,0.006678925,0.833406329,-0.000046475,0.000122614,0.000113548,-0.092981048,-0.092693180,9.787571907
1784244767.254247,-0.006400383,0.006678925,0.833406329,-0.000919851,0.000150861,-0.000472774,-0.059531033,-0.073344737,9.778761864
1784244767.256254,-0.006400621,0.006678862,0.833406329,-0.001227572,0.000508332,-0.000644779,-0.056974672,-0.084177993,9.785419464
1784244767.258257,-0.006400621,0.006678862,0.833406329,-0.001305123,0.001192283,0.000351722,-0.066794910,-0.044030957,9.765044212
1784244767.260254,-0.006400621,0.006678862,0.833406329,-0.001418714,0.001403827,0.000967664,-0.063999124,-0.035547830,9.764204025
1784244767.262260,-0.006399859,0.006679142,0.833406329,-0.001213792,0.001200715,0.000458092,-0.061508644,-0.052169602,9.765893936
1784244767.264266,-0.006399859,0.006679142,0.833406329,-0.001067238,0.000835793,0.000248127,-0.054082435,-0.066017777,9.809749603
1784244767.266265,-0.006400415,0.006679168,0.833406329,-0.000910744,0.000207881,0.000345957,-0.037958220,-0.071317300,9.769828796
1784244767.268260,-0.006400415,0.006679168,0.833406329,-0.000486275,0.000105098,0.000744627,-0.064548403,-0.078383945,9.803382874
1784244767.270283,-0.006400415,0.006679168,0.833406329,-0.000168670,0.000804097,0.001039379,-0.070623435,-0.062081464,9.790032387
1784244767.272267,-0.006400429,0.006678986,0.833406329,0.000078616,0.001062588,0.001018057,-0.040550191,-0.061170481,9.796791077
1784244767.274268,-0.006400429,0.006678986,0.833406329,-0.000041535,0.000298406,0.001285570,-0.047514632,-0.078735963,9.822226524
1784244767.276267,-0.006401049,0.006678203,0.833406329,-0.000507059,-0.000197452,0.001028893,-0.069090769,-0.044415563,9.823323250
1784244767.278270,-0.006401049,0.006678203,0.833406329,-0.000875373,0.000089495,0.000863523,-0.095097080,-0.042315710,9.826897621
1784244767.280268,-0.006401049,0.006678203,0.833406329,-0.001091705,0.000257215,0.001519134,-0.064265467,-0.055887319,9.789629936
1784244767.282269,-0.006400946,0.006677644,0.833406329,-0.001392894,0.000418603,0.001725952,-0.051320378,-0.062258728,9.780185699
