time_sec,roll_rad,pitch_rad,yaw_rad,gyro_x,gyro_y,gyro_z,acc_x,acc_y,acc_z
1784244744.369295,-0.006092413,0.003625507,0.858202159,0.001017417,0.002286884,0.001291455,-0.074639656,-0.061044771,9.777481079
1784244744.371266,-0.006090097,0.003631117,0.858203769,0.001578597,0.002366979,0.001120330,-0.069367088,-0.069291525,9.793573380
1784244744.373247,-0.006091819,0.003639875,0.858205974,0.001211775,0.002613240,0.001067689,-0.062483776,-0.055608619,9.810256958
1784244744.375232,-0.006095658,0.003642901,0.858207285,0.000526818,0.002617262,0.001009648,-0.033319458,-0.057208560,9.793684959
1784244744.377279,-0.006092851,0.003644794,0.858208001,0.000313227,0.002239685,0.000875440,-0.029697439,-0.053756710,9.805815697
1784244744.379250,-0.006090218,0.003647210,0.858208179,0.000537079,0.001924977,0.000705846,-0.019662580,-0.077214710,9.810159683
1784244744.381249,-0.006094303,0.003652095,0.858210623,0.000231974,0.001898091,0.000690993,-0.024438798,-0.064544968,9.801268578
1784244744.383234,-0.006095764,0.003656422,0.858220220,-0.000153357,0.001984384,0.001312316,-0.047875118,-0.072360195,9.808369637
1784244744.385272,-0.006091841,0.003662015,0.858229220,0.000107813,0.002092635,0.002217354,-0.045306977,-0.084721379,9.777807236
1784244744.387255,-0.006087640,0.003669462,0.858230829,0.000627336,0.002405255,0.002336935,-0.046532754,-0.073622748,9.794464111
1784244744.389288,-0.006083633,0.003670869,0.858231902,0.001130347,0.002328987,0.001880998,-0.044877887,-0.048913103,9.782070160
1784244744.391300,-0.006084866,0.003668032,0.858237147,0.001126988,0.001573895,0.001797093,-0.043645810,-0.019940676,9.801088333
1784244744.393280,-0.006087926,0.003668494,0.858236551,0.000328727,0.000979067,0.001626145,-0.056521636,-0.044938661,9.811225891
1784244744.395273,-0.006089428,0.003666722,0.858230889,-0.000268316,0.000622442,0.000761890,-0.060020477,-0.075686902,9.793989182
1784244744.397264,-0.006086884,0.003669148,0.858230650,-0.000123201,0.000500274,0.000152029,-0.041052233,-0.064827904,9.807975769
1784244744.399254,-0.006089472,0.003674261,0.858236670,-0.000105309,0.000821334,0.000504176,-0.054624654,-0.074450165,9.799382210
1784244744.401268,-0.006096760,0.003677589,0.858245254,-0.000762058,0.001112791,0.001355678,-0.049550705,-0.062885508,9.802151680
1784244744.403267,-0.006092412,0.003680474,0.858246565,-0.000752739,0.001213851,0.001651211,-0.040659003,-0.069729432,9.803461075
1784244744.405291,-0.006089312,0.003684486,0.858249962,-0.000039447,0.001335956,0.001524912,-0.060334984,-0.064085037,9.801238060
1784244744.407281,-0.006088061,0.003690374,0.858250320,0.000265739,0.001643653,0.001361575,-0.043336947,-0.069177032,9.793599129
1784244744.409276,-0.006089379,0.003693061,0.858249485,0.000197931,0.001728713,0.000952521,-0.067948595,-0.064279452,9.779260635
1784244744.411282,-0.006087367,0.003695494,0.858249009,0.000200367,0.001556462,0.000599151,-0.051405817,-0.067796424,9.803014755
1784244744.413270,-0.006089962,0.003700880,0.858250022,0.000185122,0.001556383,0.000468760,-0.048726667,-0.068339296,9.811532974
1784244744.415278,-0.006089268,0.003705183,0.858244181,0.000085853,0.001685485,0.000013314,-0.046679821,-0.047730643,9.808080673
1784244744.417285,-0.006096834,0.003708779,0.858243167,-0.000402136,0.001766902,-0.000463619,-0.027308462,-0.042100314,9.800512314
1784244744.419285,-0.006105630,0.003716562,0.858250439,-0.001407495,0.002115784,0.000074060,-0.011305184,-0.017654140,9.799341202
1784244744.421318,-0.006105484,0.003718484,0.858253241,-0.001617409,0.002254652,0.000736719,-0.016786003,-0.062825426,9.797698975
1784244744.423290,-0.006105912,0.003717451,0.858251750,-0.001124084,0.001794524,0.000621648,-0.042172957,-0.084005602,9.797540665
1784244744.425275,-0.006104711,0.003719361,0.858246267,-0.000691040,0.001461963,-0.000021654,-0.059206847,-0.047280319,9.767273903
1784244744.427292,-0.006099289,0.003716453,0.858248591,-0.000053133,0.000998568,-0.000220235,-0.047167942,-0.051683411,9.797742844
1784244744.429289,-0.006093028,0.003712229,0.858251512,0.000658467,0.000204916,0.000192558,-0.048555311,-0.055233959,9.795476913
1784244744.431283,-0.006087840,0.003712506,0.858252168,0.001161380,-0.000156429,0.000386146,-0.042795774,-0.060347550,9.811141014
1784244744.433281,-0.006085425,0.003710833,0.858250022,0.001368198,-0.000199851,0.000185159,-0.035992730,-0.054187782,9.814773560
1784244744.435310,-0.006090102,0.003710420,0.858249724,0.000849516,-0.000277822,-0.000034786,-0.045621533,-0.034719478,9.803681374
1784244744.437297,-0.006092334,0.003714224,0.858251572,0.000149482,0.000027175,0.000077267,-0.030389585,-0.035509169,9.824313164
1784244744.439306,-0.006089739,0.003722086,0.858247697,0.000008338,0.000858907,-0.000089847,-0.011121923,-0.039613158,9.799648285
1784244744.441295,-0.006086623,0.003728219,0.858244836,0.000269638,0.001624874,-0.000535050,-0.038339831,-0.065513499,9.773451805
1784244744.443303,-0.006083320,0.003728576,0.858245194,0.000669968,0.001602753,-0.000555393,-0.062233996,-0.037426267,9.773161888
1784244744.445318,-0.006078379,0.003731507,0.858240128,0.001086168,0.001370190,-0.000715635,-0.066502884,-0.056620955,9.770792961
1784244744.447328,-0.006075555,0.003735786,0.858233452,0.001321339,0.001492480,-0.001318252,-0.042107303,-0.077813648,9.808788300
1784244744.449303,-0.006072887,0.003737026,0.858230174,0.001363849,0.001402189,-0.001632093,-0.035751075,-0.072848916,9.792237282
1784244744.451295,-0.006073575,0.003736571,0.858225048,0.001156017,0.001014339,-0.001754586,-0.056435436,-0.038584527,9.799612045
1784244744.453303,-0.006071736,0.003740922,0.858220279,0.000862774,0.000967977,-0.001951042,-0.024454802,-0.066292293,9.794981003
1784244744.455299,-0.006068684,0.003740957,0.858219326,0.000901956,0.000965705,-0.001804751,-0.051671136,-0.053779878,9.785619736
1784244744.457307,-0.006063737,0.003744152,0.858216465,0.001200995,0.000924360,-0.001571609,-0.070632413,-0.063368127,9.781953812
1784244744.459358,-0.006058890,0.003748886,0.858222663,0.001528529,0.001106172,-0.000931065,-0.034221064,-0.057635482,9.792336464
1784244744.461295,-0.006059070,0.003745508,0.858224094,0.001418015,0.000790523,-0.000160606,-0.025347145,-0.066646092,9.783321381
1784244744.463281,-0.006065087,0.003744543,0.858224273,0.000685266,0.000354052,0.000001339,-0.043953959,-0.082657799,9.800235748
1784244744.465280,-0.006063600,0.003747511,0.858225405,0.000264707,0.000467069,0.000085791,-0.075962856,-0.057199378,9.806199074
1784244744.467305,-0.006060256,0.003750194,0.858222127,0.000521308,0.000724761,-0.000085488,-0.050045308,-0.028489102,9.817615509
1784244744.469287,-0.006058239,0.003757488,0.858220279,0.000656819,0.001130251,-0.000407702,-0.039766535,-0.033405822,9.797418594
1784244744.471279,-0.006056471,0.003761248,0.858225286,0.000646495,0.001495386,-0.000082609,-0.050506912,-0.031421937,9.789799690
1784244744.473295,-0.006056474,0.003763558,0.858225584,0.000491068,0.001492106,0.000296896,-0.045170877,-0.036736097,9.771389008
1784244744.475288,-0.006059322,0.003760740,0.858219922,0.000067357,0.001047511,-0.000151667,-0.028305296,-0.049357947,9.814812660
1784244744.477282,-0.006060284,0.003759227,0.858217776,-0.000207492,0.000472271,-0.000642254,-0.041494366,-0.063554585,9.818743706
1784244744.479287,-0.006059510,0.003757068,0.858216643,-0.000154955,0.000084606,-0.000692184,-0.031777538,-0.077059492,9.810148239
1784244744.481293,-0.006058592,0.003756595,0.858217716,0.000010132,-0.000128502,-0.000511349,-0.071443036,-0.091345817,9.811363220
1784244744.483286,-0.006056080,0.003758902,0.858219147,0.000312899,-0.000088833,-0.000197718,-0.061022773,-0.085419267,9.778235435
1784244744.485293,-0.006053308,0.003758409,0.858213067,0.000661189,-0.000058322,-0.000456428,-0.055379577,-0.063182399,9.791383743
1784244744.487297,-0.006055835,0.003760095,0.858209848,0.000500652,0.000042362,-0.000970049,-0.053170174,-0.027511599,9.811791420
1784244744.489303,-0.006058686,0.003764449,0.858212531,-0.000121026,0.000387486,-0.000747795,-0.035303969,-0.035277411,9.800548553
1784244744.491293,-0.006059393,0.003761342,0.858215034,-0.000451821,0.000311169,-0.000190377,-0.064770095,-0.022380490,9.804190636
1784244744.493288,-0.006056665,0.003759422,0.858217776,-0.000282436,-0.000252829,0.000213515,-0.036889859,-0.055389803,9.796383858
1784244744.495306,-0.006053859,0.003759989,0.858227253,0.000077592,-0.000417135,0.000978844,-0.045400407,-0.053542774,9.804009438
1784244744.497303,-0.006052362,0.003763487,0.858231544,0.000345067,-0.000033573,0.001647500,-0.020617699,-0.046958324,9.778519630
1784244744.499298,-0.006055930,0.003763912,0.858230114,0.000071832,0.000273432,0.001393895,-0.031801429,-0.081300631,9.776495934
1784244744.501300,-0.006053443,0.003760505,0.858233035,-0.000059751,0.000028928,0.001116386,-0.066171274,-0.064845800,9.792708397
1784244744.503306,-0.006045904,0.003761153,0.858237684,0.000619635,-0.000268089,0.001329985,-0.057866134,-0.044908695,9.809432030
1784244744.505322,-0.006040457,0.003760632,0.858240306,0.001315622,-0.000288529,0.001468949,-0.062469508,-0.055090714,9.800395966
1784244744.507330,-0.006039275,0.003760156,0.858239532,0.001407922,-0.000278623,0.001190574,-0.052644152,-0.058823142,9.803520203
1784244744.509320,-0.006037871,0.003761451,0.858235002,0.001241693,-0.000229902,0.000500242,-0.040173978,-0.029832277,9.799682617
1784244744.511318,-0.006040907,0.003765529,0.858230829,0.000835163,0.000115983,-0.000218004,-0.039864011,-0.039848976,9.821586609
1784244744.513339,-0.006046255,0.003766059,0.858227074,-0.000003111,0.000409468,-0.000687713,-0.043063514,-0.046350084,9.796436310
1784244744.515394,-0.006046688,0.003763479,0.858230770,-0.000439123,0.000168196,-0.000508646,-0.026792146,-0.035088133,9.821630478
1784244744.517334,-0.006046023,0.003763804,0.858236074,-0.000306441,-0.000034185,0.000236131,-0.067753762,-0.046936158,9.797304153
1784244744.519334,-0.006041657,0.003765321,0.858229876,0.000028804,-0.000000103,0.000112166,-0.027213598,-0.073672831,9.766685486
1784244744.521330,-0.006034094,0.003763451,0.858231664,0.000742095,-0.000122886,-0.000212891,-0.046648242,-0.047076009,9.778943062
1784244744.523322,-0.006030860,0.003759273,0.858235598,0.001238091,-0.000576268,0.000234211,-0.057165027,-0.064706422,9.756850243
1784244744.525332,-0.006036593,0.003759402,0.858238816,0.000696600,-0.000771375,0.000649499,-0.021619884,-0.055473983,9.780706406
1784244744.527337,-0.006038018,0.003763728,0.858242273,0.000019965,-0.000262274,0.000919107,-0.033012651,-0.068060763,9.807066917
1784244744.529330,-0.006035596,0.003764435,0.858244598,0.000142846,0.000192288,0.001062804,-0.051472846,-0.036814589,9.793799400
1784244744.531333,-0.006039518,0.003759241,0.858251214,0.000062110,-0.000124031,0.001380229,-0.021289309,-0.063301750,9.809798241
1784244744.533333,-0.006041577,0.003756455,0.858250737,-0.000324429,-0.000601815,0.001429053,-0.005379832,-0.048917022,9.774486542
1784244744.535339,-0.006037746,0.003754360,0.858252883,-0.000078640,-0.000737690,0.001159760,-0.038622536,-0.088413559,9.780926704
1784244744.537346,-0.006036317,0.003752025,0.858252466,0.000299286,-0.000838818,0.000963887,-0.054078754,-0.066799238,9.793603897
1784244744.539334,-0.006036527,0.003749970,0.858251929,0.000411346,-0.000999617,0.000639933,-0.053258337,-0.072281659,9.807020187
1784244744.541342,-0.006033264,0.003744434,0.858255386,0.000616589,-0.001335629,0.000655638,-0.041059367,-0.063668452,9.833987236
1784244744.543342,-0.006032029,0.003742025,0.858259261,0.000765953,-0.001528294,0.000974250,-0.056360591,-0.069099329,9.806139946
1784244744.545345,-0.006035698,0.003736563,0.858257055,0.000405612,-0.001661264,0.000826563,-0.031998556,-0.059856344,9.785600662
1784244744.547342,-0.006035904,0.003731330,0.858253777,0.000033855,-0.001933958,0.000230422,-0.042388607,-0.027954457,9.791622162
1784244744.549340,-0.006036373,0.003726513,0.858255506,-0.000074513,-0.002100025,0.000067357,-0.049592651,-0.030489819,9.783081055
1784244744.551339,-0.006035498,0.003721797,0.858258843,-0.000081837,-0.002188545,0.000400156,-0.048147231,-0.056370925,9.828646660
1784244744.553370,-0.006040125,0.003716788,0.858253956,-0.000321507,-0.002283735,0.000190757,-0.027620463,-0.069689482,9.774333000
1784244744.555351,-0.006041096,0.003715009,0.858247697,-0.000618953,-0.002149779,-0.000610715,-0.083200559,-0.062432043,9.798983574
1784244744.557352,-0.006041563,0.003710043,0.858245850,-0.000546457,-0.002020530,-0.000995373,-0.055726372,-0.053861681,9.804446220
1784244744.559365,-0.006045511,0.003709476,0.858246744,-0.000730238,-0.001962809,-0.000788773,-0.013315262,-0.036756746,9.779937744
1784244744.561371,-0.006044885,0.003706620,0.858248651,-0.000790851,-0.001779105,-0.000384635,-0.026725704,-0.069316618,9.783302307
1784244744.563356,-0.006045575,0.003703005,0.858250082,-0.000564684,-0.001720412,-0.000054111,-0.042878985,-0.069109648,9.783288002
1784244744.565403,-0.006043345,0.003700662,0.858250797,-0.000290885,-0.001642390,0.000114835,-0.014160700,-0.030661387,9.806427002
1784244744.567367,-0.006046132,0.003703411,0.858244419,-0.000248352,-0.001166558,-0.000301559,-0.010193959,-0.035736095,9.819849968
1784244744.569366,-0.006045621,0.003694239,0.858240008,-0.000419508,-0.001193620,-0.000950285,-0.037810095,-0.057179682,9.797717094
1784244744.571362,-0.006046392,0.003685829,0.858237505,-0.000408397,-0.001972425,-0.001156112,-0.092000186,-0.046756066,9.815664291
1784244744.573372,-0.006049102,0.003682378,0.858232677,-0.000579645,-0.002411627,-0.001341729,-0.060133189,-0.048307829,9.787440300
1784244744.575368,-0.006047466,0.003675003,0.858229697,-0.000540816,-0.002661124,-0.001512400,-0.020229755,-0.051091112,9.791943550
1784244744.577363,-0.006044176,0.003672118,0.858232021,-0.000059379,-0.002634765,-0.001147454,-0.026814599,-0.039723180,9.780353546
1784244744.579365,-0.006045149,0.003666383,0.858234644,0.000075233,-0.002453565,-0.000501947,-0.037086118,-0.034749221,9.792481422
1784244744.581375,-0.006052042,0.003659365,0.858224034,-0.000514753,-0.002596818,-0.000900816,-0.035065513,-0.013537174,9.830277443
1784244744.583367,-0.006054605,0.003660607,0.858212888,-0.001136681,-0.002279367,-0.002128037,-0.034028299,-0.042334855,9.782572746
1784244744.585368,-0.006057167,0.003658314,0.858216226,-0.001299229,-0.001733010,-0.002081143,-0.032628734,-0.072225340,9.824972153
1784244744.587368,-0.006056831,0.003652810,0.858221412,-0.001099780,-0.001795264,-0.000929829,-0.041064207,-0.066543438,9.797204971
1784244744.589375,-0.006056387,0.003653501,0.858217597,-0.000716137,-0.001642206,-0.000577024,-0.056554161,-0.049653187,9.781158447
1784244744.591391,-0.006050169,0.003651381,0.858212590,-0.000034684,-0.001296733,-0.001022087,-0.034057587,-0.044187110,9.791078568
1784244744.593375,-0.006047511,0.003650802,0.858213544,0.000514425,-0.001119617,-0.001021710,-0.012008912,-0.038708922,9.800101280
1784244744.595384,-0.006042116,0.003646303,0.858209014,0.000858366,-0.001152199,-0.000986321,-0.009469935,-0.051705673,9.795985222
1784244744.597420,-0.006038359,0.003637844,0.858206928,0.001248187,-0.001716195,-0.001161899,-0.030019158,-0.045858994,9.766861916
1784244744.599392,-0.006038896,0.003636132,0.858203948,0.001082264,-0.001906883,-0.001180983,-0.041292053,-0.046557501,9.822439194
1784244744.601387,-0.006035060,0.003635098,0.858201027,0.000967023,-0.001541437,-0.001264274,-0.064608403,-0.044104584,9.834538460
1784244744.603386,-0.006036674,0.003634423,0.858198583,0.000810082,-0.001328646,-0.001289261,-0.047796402,-0.065659851,9.811102867
1784244744.605387,-0.006030747,0.003629918,0.858191133,0.000838548,-0.001407387,-0.001597368,-0.031142294,-0.062218931,9.801277161
1784244744.607397,-0.006026688,0.003624904,0.858189285,0.001290957,-0.001667616,-0.001786161,-0.010860641,-0.056498349,9.779365540
1784244744.609383,-0.006025362,0.003622016,0.858187854,0.001277630,-0.001711935,-0.001526291,0.004092225,-0.080159508,9.803437233
1784244744.611384,-0.006025509,0.003622085,0.858184814,0.000982530,-0.001398716,-0.001407714,-0.007763628,-0.059722014,9.786071777
1784244744.613385,-0.006033184,0.003618832,0.858183205,0.000189058,-0.001164191,-0.001340267,-0.045346677,-0.087466374,9.785858154
1784244744.615393,-0.006031784,0.003613846,0.858183384,-0.000284728,-0.001337780,-0.001076265,-0.043014139,-0.043528773,9.777624130
1784244744.617393,-0.006028756,0.003611494,0.858183563,0.000092994,-0.001472807,-0.000756478,-0.046393383,-0.026422104,9.772351265
1784244744.619401,-0.006033683,0.003608868,0.858190477,-0.000101233,-0.001406885,-0.000072053,-0.054410197,-0.058167763,9.777519226
1784244744.621408,-0.006035177,0.003607095,0.858191192,-0.000549771,-0.001319774,0.000462378,-0.068524875,-0.110165462,9.806313515
1784244744.623406,-0.006039603,0.003609065,0.858186066,-0.000673556,-0.001055531,0.000040815,-0.049858492,-0.087199405,9.819479942
1784244744.625408,-0.006047015,0.003602052,0.858186245,-0.001165290,-0.001218465,-0.000305012,-0.018295014,-0.075846754,9.804340363
1784244744.627407,-0.006045090,0.003596265,0.858187675,-0.001221733,-0.001757163,-0.000107508,-0.005828306,-0.049314715,9.768207550
1784244744.629409,-0.006042911,0.003585130,0.858190238,-0.000614336,-0.002337581,0.000198821,-0.003985962,-0.043288838,9.799631119
1784244744.631410,-0.006047084,0.003582326,0.858188272,-0.000584970,-0.002556525,0.000187785,-0.030786555,-0.031852968,9.814922333
1784244744.633410,-0.006040305,0.003579948,0.858181775,-0.000339689,-0.002210696,-0.000430846,-0.039909292,-0.043448556,9.823805809
1784244744.635415,-0.006031201,0.003573288,0.858178735,0.000740406,-0.002220029,-0.000953742,-0.038335390,-0.062641673,9.810682297
1784244744.637446,-0.006027955,0.003566956,0.858176053,0.001379078,-0.002496768,-0.001083681,-0.065756097,-0.028742202,9.818495750
1784244744.639428,-0.006030159,0.003557691,0.858178735,0.001009011,-0.002943785,-0.000783895,-0.051321462,-0.061051577,9.799472809
1784244744.641460,-0.006035700,0.003551455,0.858177960,0.000142499,-0.003263771,-0.000440058,-0.005252904,-0.074968114,9.783287048
1784244744.643483,-0.006039527,0.003552285,0.858182669,-0.000497967,-0.002651591,-0.000058519,-0.010137881,-0.071667396,9.768957138
1784244744.645446,-0.006031690,0.003551472,0.858181536,-0.000056436,-0.001837323,0.000204872,-0.017370498,-0.036838550,9.798763275
1784244744.647451,-0.006021802,0.003543477,0.858178675,0.001162989,-0.001934688,-0.000111123,-0.005129584,-0.028704721,9.766994476
1784244744.649446,-0.006018981,0.003537223,0.858181834,0.001631885,-0.002272855,-0.000054648,-0.037005618,-0.027629538,9.799252510
1784244744.651434,-0.006019968,0.003532793,0.858185768,0.001233667,-0.002280006,0.000437946,-0.047520701,-0.005630489,9.811936378
1784244744.653438,-0.006017425,0.003535219,0.858190715,0.000857743,-0.001835085,0.000925530,-0.035853952,-0.079740040,9.816403389
1784244744.655443,-0.006013284,0.003537098,0.858193636,0.000932247,-0.001082297,0.001211464,-0.015161007,-0.112720944,9.817557335
1784244744.657432,-0.006012063,0.003539538,0.858198881,0.001041105,-0.000498600,0.001438099,-0.027567465,-0.098755829,9.829291344
1784244744.659446,-0.006015882,0.003539045,0.858201265,0.000739463,-0.000195049,0.001565814,-0.040698756,-0.071664363,9.823623657
1784244744.661442,-0.006018702,0.003538083,0.858199358,0.000247168,-0.000201977,0.001169750,-0.008078022,-0.046903457,9.811261177
1784244744.663433,-0.006023707,0.003538445,0.858199120,-0.000381244,-0.000113013,0.000700799,-0.017342417,-0.034995828,9.791601181
1784244744.665459,-0.006021477,0.003535305,0.858208477,-0.000498956,-0.000200624,0.001135092,-0.034183014,-0.016503161,9.804705620
1784244744.667443,-0.006021104,0.003533778,0.858210623,-0.000189497,-0.000467696,0.001613431,-0.016737619,-0.060417101,9.773954391
1784244744.669448,-0.006023367,0.003532077,0.858206809,-0.000267872,-0.000527452,0.001059574,-0.022329886,-0.076173015,9.794470787
1784244744.671444,-0.006021672,0.003529741,0.858205974,-0.000234679,-0.000624736,0.000457370,-0.048865523,-0.082403786,9.773333549
1784244744.673448,-0.006026854,0.003529897,0.858202457,-0.000372475,-0.000621975,0.000036874,-0.007184188,-0.047753643,9.803185463
1784244744.675449,-0.006027504,0.003532093,0.858204901,-0.000632780,-0.000313580,-0.000051377,-0.026509855,-0.049781203,9.808086395
1784244744.677458,-0.006029819,0.003527676,0.858211994,-0.000664550,-0.000383034,0.000605017,-0.032193266,-0.038392972,9.792013168
1784244744.679455,-0.006032017,0.003520115,0.858210206,-0.000856775,-0.001078119,0.000808557,-0.036787424,-0.044854946,9.826937675
1784244744.681456,-0.006030828,0.003520700,0.858205378,-0.000756120,-0.001240111,0.000146803,-0.043004818,-0.041428871,9.797363281
1784244744.683454,-0.006034513,0.003523766,0.858202636,-0.000801572,-0.000654428,-0.000403753,-0.022097416,-0.058127381,9.776653290
1784244744.685462,-0.006036552,0.003520673,0.858205497,-0.001055623,-0.000480580,-0.000283085,0.001139067,-0.065263405,9.793217659
1784244744.687472,-0.006032184,0.003518572,0.858211577,-0.000613056,-0.000706339,0.000399565,-0.052813262,-0.037562896,9.775410652
1784244744.689466,-0.006028082,0.003517928,0.858212411,0.000073037,-0.000711845,0.000753916,-0.046347640,-0.058382541,9.793217659
1784244744.691472,-0.006029301,0.003516947,0.858213365,0.000194788,-0.000637680,0.000668908,-0.002350100,-0.095935352,9.765221596
1784244744.693550,-0.006030443,0.003510570,0.858222306,0.000080339,-0.000854880,0.001164753,-0.030900855,-0.080476619,9.785020828
1784244744.695471,-0.006030094,0.003506656,0.858225405,0.000102948,-0.001213129,0.001669440,-0.037520219,-0.071002275,9.787764549
1784244744.697471,-0.006028900,0.003507507,0.858224034,0.000179444,-0.001092457,0.001335299,-0.030853145,-0.039267983,9.786629677
1784244744.699470,-0.006024061,0.003510036,0.858227372,0.000493111,-0.000557461,0.001112834,-0.038837150,-0.067512624,9.803478241
1784244744.701473,-0.006019157,0.003508459,0.858230650,0.000972232,-0.000334298,0.001257122,-0.023792276,-0.049615387,9.779845238
1784244744.703467,-0.006022572,0.003511645,0.858226836,0.000780645,-0.000108911,0.000874326,-0.023536284,-0.065731831,9.777500153
1784244744.705478,-0.006026927,0.003517329,0.858217239,0.000015646,0.000553315,-0.000269243,-0.004750914,-0.070500612,9.784213066
1784244744.707475,-0.006024931,0.003518171,0.858217776,-0.000146547,0.000849717,-0.000813901,-0.034066807,-0.082660280,9.782761574
1784244744.709479,-0.006026540,0.003520699,0.858227789,0.000074031,0.000909805,0.000124826,-0.069656566,-0.055465762,9.803075790
1784244744.711478,-0.006025583,0.003523938,0.858228266,0.000164157,0.001116333,0.000809473,-0.044204313,-0.066496842,9.796306610
1784244744.713479,-0.006027913,0.003520981,0.858220816,0.000083364,0.000843689,0.000114222,-0.014265661,-0.039595176,9.802782059
1784244744.715486,-0.006030784,0.003515776,0.858213544,-0.000233582,0.000075089,-0.000919349,-0.036751643,-0.043761883,9.799148560
1784244744.717487,-0.006031160,0.003518765,0.858215749,-0.000389431,-0.000093639,-0.001020131,-0.037146721,-0.076059595,9.805217743
1784244744.719483,-0.006029624,0.003521537,0.858219326,-0.000173860,0.000279336,-0.000350140,-0.022590775,-0.096874610,9.807788849
1784244744.721492,-0.006025298,0.003516255,0.858218491,0.000303044,-0.000009162,-0.000063241,-0.018474367,-0.055072628,9.781609535
1784244744.723496,-0.006025298,0.003516255,0.858218491,0.000808457,-0.000723130,-0.000163675,-0.018474367,-0.055072628,9.781609535
1784244744.725503,-0.006031862,0.003513860,0.858222663,0.000566994,-0.000716248,0.000017853,-0.024739165,-0.053641893,9.780714035
1784244744.727512,-0.006044073,0.003519133,0.858212709,-0.000090422,-0.000129072,-0.000009894,-0.015506925,-0.066613965,9.824128151
1784244744.729505,-0.006041549,0.003518641,0.858219802,-0.000084041,0.000093684,0.000258351,-0.023493120,-0.060527999,9.801742554
1784244744.731508,-0.006041063,0.003517841,0.858220935,0.000152215,-0.000000297,0.000741534,-0.038691800,-0.057044182,9.780231476
1784244744.733505,-0.006043041,0.003520847,0.858220041,0.000020813,0.000171821,0.000552831,-0.015270207,-0.048939984,9.795550346
1784244744.735505,-0.006053021,0.003523409,0.858213425,-0.000794680,0.000506168,-0.000108119,0.002337358,-0.040204987,9.795622826
1784244744.737518,-0.006056729,0.003521342,0.858210981,-0.001607399,0.000572765,-0.000699258,-0.030492479,-0.045237131,9.806318283
1784244744.739522,-0.006059337,0.003514543,0.858217001,-0.001702142,-0.000019366,-0.000266189,-0.039697602,-0.062751614,9.828614235
1784244744.741517,-0.006056946,0.003510335,0.858223021,-0.001252149,-0.000819850,0.000625723,-0.028021974,-0.064448111,9.794093132
1784244744.743514,-0.006052221,0.003517246,0.858222306,-0.000424927,-0.000469542,0.000812119,-0.025707169,-0.058240373,9.799065590
1784244744.745516,-0.006056816,0.003524258,0.858223319,-0.000300848,0.000602879,0.000608715,-0.005920890,-0.056529798,9.774886131
1784244744.747507,-0.006053417,0.003525154,0.858224571,-0.000304126,0.001114263,0.000603299,-0.020319466,-0.059093997,9.783374786
1784244744.749515,-0.006053251,0.003529196,0.858224928,0.000016900,0.001285654,0.000544591,-0.025836933,-0.069801517,9.786887169
1784244744.751520,-0.006060137,0.003530542,0.858222663,-0.000436661,0.001329365,0.000265606,-0.008285281,-0.027565425,9.801520348
1784244744.753514,-0.006064270,0.003531715,0.858218908,-0.001057838,0.001168013,-0.000209948,-0.017690647,-0.025281193,9.812287331
1784244744.755518,-0.006063832,0.003536286,0.858218729,-0.001020376,0.001242402,-0.000428173,-0.026523216,-0.051912904,9.792828560
1784244744.757519,-0.006058346,0.003539127,0.858222425,-0.000395538,0.001485042,-0.000079698,-0.055666592,-0.084900767,9.821731567
1784244744.759527,-0.006056613,0.003540236,0.858222365,0.000147468,0.001426756,0.000191044,-0.057761185,-0.073564865,9.806558609
1784244744.761532,-0.006058066,0.003539042,0.858222008,0.000087812,0.001030879,0.000114808,-0.024007872,-0.063880563,9.833104134
1784244744.763531,-0.006059257,0.003541510,0.858214021,-0.000152242,0.000837924,-0.000482065,-0.013588475,-0.059987132,9.770821571
1784244744.765572,-0.006059093,0.003546348,0.858205020,-0.000176568,0.001113369,-0.001510033,-0.012728360,-0.062724553,9.776185036
1784244744.767542,-0.006058573,0.003545819,0.858202279,-0.000015924,0.001165896,-0.001898403,-0.045490619,-0.022338726,9.826625824
1784244744.769534,-0.006060319,0.003544844,0.858208299,-0.000032216,0.000803308,-0.001154818,-0.023920629,-0.020333551,9.820830345
1784244744.771535,-0.006062375,0.003545415,0.858210146,-0.000405823,0.000595183,-0.000306506,-0.045001697,-0.021216441,9.793905258
1784244744.773537,-0.006062713,0.003552116,0.858209670,-0.000580856,0.000967262,-0.000136743,-0.039687481,-0.028729070,9.769652367
1784244744.775545,-0.006063116,0.003552452,0.858213544,-0.000474267,0.001180911,0.000131394,-0.061315425,-0.072429001,9.779213905
1784244744.777583,-0.006061421,0.003554208,0.858208716,-0.000219808,0.000904437,0.000035774,-0.057149425,-0.062962264,9.763586998
1784244744.779550,-0.006061529,0.003557459,0.858209789,-0.000013737,0.000902013,-0.000231313,-0.028847000,-0.059407283,9.779777527
1784244744.781582,-0.006063520,0.003558592,0.858215868,-0.000118312,0.000916456,0.000313927,-0.029776396,-0.097643569,9.802845001
1784244744.783555,-0.006062587,0.003559975,0.858212888,-0.000122890,0.000801871,0.000439768,-0.002165258,-0.041891634,9.788881302
1784244744.785553,-0.006059002,0.003560535,0.858208239,0.000219019,0.000719101,-0.000190078,-0.022662176,-0.066737831,9.791393280
1784244744.787544,-0.006056283,0.003557174,0.858209312,0.000609350,0.000403632,-0.000379334,-0.055214778,-0.048507795,9.806721687
1784244744.789547,-0.006057519,0.003554603,0.858211160,0.000564892,-0.000041286,-0.000085683,-0.040550139,-0.061980557,9.784681320
1784244744.791545,-0.006057276,0.003558675,0.858208716,0.000338876,0.000070104,-0.000104316,-0.013136257,-0.058344115,9.791007996
1784244744.793555,-0.006056339,0.003560588,0.858202994,0.000323390,0.000458727,-0.000621390,-0.024909489,-0.067144319,9.789595604
1784244744.795569,-0.006051653,0.003564053,0.858200908,0.000619024,0.000702417,-0.000979753,-0.023200473,-0.073518269,9.800763130
1784244744.797557,-0.006047935,0.003567783,0.858200669,0.001052423,0.001055369,-0.000878457,-0.054817751,-0.052974083,9.804003716
1784244744.799562,-0.006048596,0.003568123,0.858211517,0.001002096,0.001095024,0.000078081,-0.026091084,-0.054075785,9.781159401
1784244744.801592,-0.006047799,0.003569437,0.858222485,0.000708940,0.000978035,0.001531865,-0.008351807,-0.070543647,9.796762466
1784244744.803576,-0.006043652,0.003572376,0.858220816,0.000824797,0.001074452,0.001744032,-0.060564280,-0.046542026,9.791934013
1784244744.805583,-0.006037940,0.003572117,0.858218908,0.001270918,0.000966111,0.001031686,-0.037861671,-0.063260354,9.770777702
1784244744.807581,-0.006033868,0.003574285,0.858225703,0.001593744,0.000811671,0.001089983,-0.022089528,-0.055633578,9.804018021
1784244744.809570,-0.006034528,0.003575685,0.858226538,0.001395751,0.000810721,0.001312904,-0.035983190,-0.055328164,9.786073685
1784244744.811565,-0.006034440,0.003577328,0.858221054,0.000945774,0.000782420,0.000644276,-0.034382109,-0.033474807,9.797424316
1784244744.813567,-0.006030549,0.003581331,0.858218014,0.000927920,0.000940113,-0.000112104,-0.038212206,-0.055184953,9.769932747
1784244744.815573,-0.006027765,0.003581634,0.858214021,0.001130869,0.000980111,-0.000572933,-0.033131700,-0.042352710,9.783469200
1784244744.817569,-0.006027759,0.003583145,0.858211756,0.000951165,0.000832347,-0.000837942,-0.024168877,-0.043366797,9.783921242
1784244744.819567,-0.006024096,0.003589802,0.858216584,0.000877736,0.001152411,-0.000432813,-0.014096329,-0.064095706,9.782451630
1784244744.821574,-0.006025224,0.003591454,0.858218789,0.000915310,0.001508815,0.000151979,-0.040718850,-0.075470261,9.791767120
1784244744.823569,-0.006023519,0.003590178,0.858217776,0.000811233,0.001232327,0.000177658,-0.047353003,-0.067733705,9.786879539
1784244744.825594,-0.006024709,0.003591584,0.858220935,0.000625399,0.000905659,0.000267699,-0.057494607,-0.088381954,9.810498238
1784244744.827580,-0.006027719,0.003601747,0.858224034,0.000278806,0.001262166,0.000625099,-0.035102751,-0.054663137,9.817012787
1784244744.829576,-0.006031262,0.003606891,0.858230114,-0.000134145,0.001774379,0.001085183,-0.036752738,-0.045391567,9.776272774
1784244744.831585,-0.006027894,0.003608642,0.858228743,-0.000167336,0.001750534,0.001111682,-0.034851808,-0.032824334,9.832844734
1784244744.833585,-0.006027772,0.003608973,0.858225226,0.000059650,0.001410454,0.000479722,-0.071275987,-0.004715660,9.789053917
1784244744.835595,-0.006028159,0.003610635,0.858229160,0.000025267,0.001162650,0.000380065,-0.051937602,-0.037746098,9.799619675
1784244744.837634,-0.006027900,0.003615816,0.858238161,-0.000125647,0.001230272,0.001157083,-0.010026936,-0.061875843,9.777986526
1784244744.839603,-0.006028817,0.003618015,0.858239472,-0.000270921,0.001317020,0.001542767,-0.051529769,-0.078906424,9.790390968
1784244744.841599,-0.006029475,0.003624215,0.858235359,-0.000229405,0.001438048,0.000939751,-0.083170623,-0.058143210,9.825911522
1784244744.843598,-0.006030362,0.003629330,0.858235657,-0.000196844,0.001724625,0.000429363,-0.016776571,-0.062345676,9.793219566
1784244744.845607,-0.006026515,0.003629091,0.858235061,0.000057640,0.001587481,0.000290663,-0.020132177,-0.081021227,9.779198647
1784244744.847600,-0.006027866,0.003627917,0.858233035,0.000257989,0.001164421,0.000025379,-0.045443222,-0.057933353,9.791427612
1784244744.849602,-0.006030918,0.003629342,0.858238161,-0.000065906,0.000966853,0.000229131,-0.039831508,-0.075561248,9.802976608
1784244744.851604,-0.006035487,0.003631105,0.858246684,-0.000447258,0.000910063,0.001099890,-0.044782601,-0.077645607,9.789956093
1784244744.853607,-0.006034290,0.003631425,0.858252704,-0.000436711,0.000793254,0.001788422,-0.047412835,-0.035884563,9.781703949
1784244744.855607,-0.006036501,0.003636820,0.858256817,-0.000389401,0.000961603,0.001984604,-0.031832542,-0.045172196,9.799592972
1784244744.857605,-0.006034881,0.003645513,0.858263254,-0.000384900,0.001660430,0.002148736,-0.037601911,-0.002951563,9.795374870
1784244744.859617,-0.006034717,0.003648760,0.858268857,-0.000220726,0.002023126,0.002376054,-0.042092621,-0.039702579,9.804998398
1784244744.861616,-0.006029443,0.003649017,0.858266234,0.000182989,0.001676074,0.001924938,-0.029535811,-0.077507585,9.806111336
1784244744.863613,-0.006021810,0.003653245,0.858272016,0.000984050,0.001489669,0.001615532,-0.045552485,-0.065685414,9.810655594
1784244744.865650,-0.006019550,0.003654083,0.858270645,0.001387385,0.001427263,0.001480514,-0.051670037,-0.014560228,9.815011978
1784244744.867626,-0.006016652,0.003656375,0.858268797,0.001191989,0.001174296,0.000856719,-0.037846114,-0.023116169,9.796140671
1784244744.869615,-0.006023462,0.003655720,0.858268976,0.000433518,0.000887996,0.000509055,-0.027079798,-0.059243053,9.816543579
1784244744.871621,-0.006029152,0.003662100,0.858266950,-0.000512434,0.001079764,0.000239338,-0.017673155,-0.059490971,9.834485054
1784244744.873621,-0.006026634,0.003661610,0.858270586,-0.000569143,0.001229206,0.000278585,-0.023353880,-0.086887144,9.790814400
1784244744.875620,-0.006029917,0.003666486,0.858274102,-0.000468291,0.001190223,0.000685667,-0.063077085,-0.068091728,9.802554131
1784244744.877619,-0.006033944,0.003672763,0.858274341,-0.000824653,0.001491885,0.000748703,-0.072015911,-0.067293487,9.769372940
1784244744.879621,-0.006034393,0.003668592,0.858278990,-0.000892231,0.001097045,0.000881765,-0.077643797,-0.048982713,9.787868500
1784244744.881623,-0.006034113,0.003670755,0.858277321,-0.000691165,0.000519498,0.000851119,-0.039835140,-0.075589865,9.807011604
1784244744.883626,-0.006033190,0.003671607,0.858271658,-0.000448897,0.000444031,0.000126849,-0.054938350,-0.062841937,9.805733681
1784244744.885636,-0.006033848,0.003673273,0.858271956,-0.000307700,0.000496655,-0.000273868,-0.060306553,-0.061429068,9.805737495
1784244744.887630,-0.006030204,0.003679258,0.858277202,0.000013451,0.000816087,0.000176251,-0.061022598,-0.047422662,9.790583611
1784244744.889629,-0.006026030,0.003683788,0.858283699,0.000573979,0.001240714,0.000920937,-0.037234005,-0.046453442,9.800476074
1784244744.891633,-0.006021779,0.003689405,0.858287334,0.000910652,0.001587485,0.001355218,-0.026024112,-0.084247559,9.802485466
1784244744.893635,-0.006019510,0.003691039,0.858285964,0.001028475,0.001646697,0.001146804,-0.038913973,-0.075413756,9.780561447
1784244744.895637,-0.006022866,0.003689551,0.858287275,0.000675531,0.001209582,0.000829137,-0.050207477,-0.043548077,9.793309212
1784244744.897632,-0.006025524,0.003688344,0.858288348,0.000053709,0.000642096,0.000758220,-0.076022297,-0.062937014,9.794055939
1784244744.899633,-0.006027809,0.003687376,0.858288527,-0.000326401,0.000264344,0.000634664,-0.051371459,-0.063472621,9.825012207
1784244744.901644,-0.006028014,0.003694564,0.858288646,-0.000397828,0.000581356,0.000476074,-0.047887083,-0.036485758,9.804116249
1784244744.903641,-0.006018777,0.003700101,0.858286738,0.000332770,0.001254723,0.000219837,-0.060073227,-0.044187151,9.774913788
1784244744.905646,-0.006014082,0.003703564,0.858291864,0.001187268,0.001523696,0.000375433,-0.024928804,-0.029706981,9.817630768
1784244744.907646,-0.006013955,0.003699228,0.858289659,0.001061534,0.001079846,0.000465977,-0.059788462,-0.056834377,9.788730621
1784244744.909643,-0.006013891,0.003694521,0.858283162,0.000658414,0.000206650,-0.000247848,-0.065134630,-0.053626481,9.788297653
1784244744.911649,-0.006005236,0.003699521,0.858274341,0.001058498,0.000087800,-0.001215173,-0.059151541,-0.077544302,9.801600456
1784244744.913656,-0.006004314,0.003699844,0.858272731,0.001407116,0.000340595,-0.001592946,-0.066987142,-0.058111709,9.792302132
1784244744.915653,-0.006008205,0.003698628,0.858269572,0.000824815,0.000189463,-0.001492257,-0.066924311,-0.051942009,9.806688309
1784244744.917650,-0.006008613,0.003700813,0.858268738,0.000291815,0.000062207,-0.001365020,-0.036180157,-0.071067221,9.794490814
1784244744.919652,-0.006008784,0.003699026,0.858263075,0.000156641,-0.000068228,-0.001434603,-0.037515897,-0.069347151,9.807053566
1784244744.921656,-0.006006341,0.003697413,0.858260632,0.000273431,-0.000344898,-0.001594275,-0.044635639,-0.064327590,9.807079315
1784244744.923658,-0.006003262,0.003699569,0.858265102,0.000576737,-0.000283020,-0.001022811,-0.034599520,-0.088586137,9.797966003
1784244744.925662,-0.006006602,0.003699673,0.858264029,0.000401680,-0.000054233,-0.000515852,-0.026701072,-0.067095883,9.786006927
1784244744.927670,-0.006008200,0.003698105,0.858256698,-0.000015546,-0.000095562,-0.000942437,-0.044420846,-0.084821910,9.790358543
1784244744.929691,-0.006009101,0.003701894,0.858257353,-0.000154308,0.000123874,-0.001143235,-0.028602267,-0.038022801,9.796504021
1784244744.931669,-0.006008320,0.003705099,0.858261228,-0.000181392,0.000602270,-0.000529447,-0.037431486,-0.063412368,9.791399956
1784244744.933693,-0.006007906,0.003707283,0.858263314,-0.000112155,0.000841157,0.000025533,-0.044007633,-0.049544267,9.806277275
1784244744.935692,-0.006001695,0.003703571,0.858264089,0.000367250,0.000507909,0.000211064,-0.023843478,-0.052045971,9.806730270
1784244744.937704,-0.006000775,0.003699673,0.858269393,0.000730541,-0.000060325,0.000561052,-0.013164281,-0.060996905,9.786058426
1784244744.939682,-0.006004878,0.003702966,0.858270764,0.000295082,0.000001030,0.000853654,-0.051123649,-0.046116237,9.778048515
1784244744.941754,-0.006004737,0.003705970,0.858265102,-0.000143605,0.000357560,0.000328232,-0.039094701,-0.017465839,9.759862900
1784244744.943692,-0.006007527,0.003708189,0.858260572,-0.000372612,0.000546751,-0.000451922,-0.044066031,-0.018089032,9.793477058
1784244744.945688,-0.006006563,0.003711958,0.858261347,-0.000394483,0.000806351,-0.000586104,-0.052520320,-0.048929840,9.798203468
1784244744.947688,-0.006003929,0.003712608,0.858257353,-0.000159730,0.000776552,-0.000648571,-0.031889282,-0.052104276,9.766370773
1784244744.949682,-0.006007037,0.003709793,0.858254850,-0.000264258,0.000309163,-0.000913621,-0.064220928,-0.050267324,9.818359375
1784244744.951691,-0.006007880,0.003711381,0.858249605,-0.000429849,0.000042080,-0.001178647,-0.017275106,-0.067191184,9.782428741
1784244744.953706,-0.006003264,0.003707952,0.858250737,-0.000027134,-0.000195567,-0.001136451,-0.055998713,-0.040305812,9.788840294
1784244744.955709,-0.006006126,0.003702746,0.858252466,0.000098498,-0.000729743,-0.000638642,-0.047398113,-0.070926666,9.794929504
1784244744.957698,-0.006013391,0.003703595,0.858246028,-0.000637880,-0.000872869,-0.000781389,-0.032455273,-0.098314226,9.775938988
1784244744.959702,-0.006015151,0.003702090,0.858244658,-0.001098755,-0.000724632,-0.001100474,-0.049361233,-0.084390193,9.801566124
1784244744.961725,-0.006021741,0.003700612,0.858251452,-0.001275906,-0.000803880,-0.000431125,-0.059872765,-0.064389303,9.780164719
1784244744.963713,-0.006023538,0.003695395,0.858253479,-0.001408252,-0.001115002,0.000289746,-0.032770630,-0.048318680,9.802709579
1784244744.965710,-0.006025308,0.003693360,0.858248949,-0.001267376,-0.001303452,0.000039255,-0.032932777,-0.060540810,9.820565224
1784244744.967724,-0.006023064,0.003697660,0.858248949,-0.000868116,-0.000795078,-0.000283572,-0.050853714,-0.059691180,9.796342850
1784244744.969715,-0.006021878,0.003696653,0.858255863,-0.000379474,-0.000359628,0.000258158,-0.041501511,-0.065231971,9.802592278
1784244744.971714,-0.006023020,0.003691909,0.858255506,-0.000210491,-0.000616255,0.000631256,-0.031972438,-0.058839586,9.768569946
1784244744.973715,-0.006022606,0.003694624,0.858252287,-0.000137248,-0.000546473,0.000218436,-0.022491911,-0.052425325,9.794622421
1784244744.975758,-0.006023307,0.003692577,0.858251095,-0.000118360,-0.000350941,-0.000135703,-0.018340738,-0.041049473,9.825634003
1784244744.977721,-0.006022150,0.003690729,0.858252108,-0.000143208,-0.000371846,-0.000105832,-0.049775101,-0.043277558,9.817521095
1784244744.979717,-0.006020426,0.003689982,0.858260810,0.000000773,-0.000302922,0.000584573,-0.040704109,-0.072922401,9.811511040
1784244744.981722,-0.006016836,0.003685812,0.858269393,0.000354633,-0.000528484,0.001591835,-0.024354607,-0.020616779,9.798411369
1784244744.983724,-0.006015643,0.003686396,0.858267784,0.000578925,-0.000598130,0.001622068,-0.028000569,-0.062252820,9.800382614
1784244744.985725,-0.006020292,0.003688901,0.858265936,0.000188037,-0.000224591,0.000941555,-0.050287060,-0.087034672,9.797064781
1784244744.988012,-0.006022306,0.003688643,0.858261049,-0.000223925,-0.000057767,0.000228399,-0.064079851,-0.077017188,9.799358368
1784244744.989723,-0.006022752,0.003686063,0.858255446,-0.000237862,-0.000279758,-0.000545313,-0.053368203,-0.083280377,9.778704643
1784244744.991732,-0.006028041,0.003685780,0.858254015,-0.000465727,-0.000458567,-0.000874722,-0.032778516,-0.085565612,9.810988426
1784244744.993748,-0.006025276,0.003683696,0.858255267,-0.000415512,-0.000558037,-0.000644830,-0.079452194,-0.085441090,9.814531326
1784244744.995743,-0.006018471,0.003685546,0.858257830,0.000345930,-0.000423985,-0.000204277,-0.067280732,-0.083934478,9.769720078
1784244744.997764,-0.006017197,0.003689939,0.858254075,0.000940928,-0.000018674,-0.000224545,-0.045771778,-0.047252845,9.802255630
1784244744.999741,-0.006018375,0.003693202,0.858251691,0.000833799,0.000374518,-0.000582608,-0.036446217,-0.055030257,9.808042526
1784244745.001746,-0.006017921,0.003693402,0.858258545,0.000499154,0.000497302,-0.000122700,-0.021934919,-0.045091994,9.770461082
1784244745.003740,-0.006021016,0.003690320,0.858268321,0.000122138,0.000151113,0.001040082,-0.040091652,-0.060693286,9.791862488
1784244745.005748,-0.006024122,0.003687239,0.858270109,-0.000334821,-0.000313004,0.001542702,-0.041787721,-0.052190825,9.796400070
1784244745.007905,-0.006021060,0.003680936,0.858271360,-0.000270721,-0.000849838,0.001330721,-0.027830249,-0.048750386,9.791502953
1784244745.009814,-0.006017490,0.003679639,0.858269751,0.000229888,-0.001118378,0.000943026,-0.044780862,-0.038826223,9.812623024
1784244745.011786,-0.006012032,0.003681246,0.858267307,0.000690844,-0.000827515,0.000410732,-0.020118695,-0.040082861,9.818914413
1784244745.013807,-0.006011640,0.003681840,0.858264327,0.000811277,-0.000486755,-0.000066922,-0.075441480,-0.050552480,9.815656662
1784244745.015782,-0.006015516,0.003681154,0.858267844,0.000354311,-0.000361071,-0.000019296,-0.030455997,-0.042517569,9.801853180
1784244745.017775,-0.006022988,0.003677704,0.858261526,-0.000506263,-0.000622476,-0.000204028,-0.016003212,-0.034257062,9.811334610
1784244745.019772,-0.006031414,0.003675476,0.858261228,-0.001441091,-0.000916033,-0.000592392,-0.025004124,-0.035975255,9.817143440
1784244745.021769,-0.006025734,0.003673369,0.858268380,-0.001308366,-0.000928204,0.000029696,-0.064777009,-0.062051285,9.775242805
1784244745.023773,-0.006021050,0.003675507,0.858276546,-0.000323865,-0.000644199,0.001063580,-0.061647825,-0.061373658,9.800356865
1784244745.025779,-0.006019058,0.003676880,0.858269632,0.000216986,-0.000231546,0.000860875,-0.034938473,-0.041208409,9.814857483
1784244745.027777,-0.006016796,0.003669339,0.858267069,0.000388563,-0.000590077,-0.000012892,-0.017897056,-0.044336848,9.783022881
1784244745.029783,-0.006020465,0.003663347,0.858269989,0.000126825,-0.001355166,0.000015072,-0.030659296,-0.059927646,9.793221474
1784244745.031776,-0.006019834,0.003661843,0.858264089,-0.000113039,-0.001496574,-0.000196990,-0.026542833,-0.053688847,9.790575981
1784244745.033798,-0.006012787,0.003662100,0.858261347,0.000440986,-0.001173142,-0.000727029,-0.044682652,-0.069156595,9.793148994
1784244745.035817,-0.006012181,0.003657652,0.858260095,0.000841661,-0.001137477,-0.000789343,-0.029584615,-0.082755931,9.788145065
1784244745.037846,-0.006013700,0.003649084,0.858259261,0.000657334,-0.001647111,-0.000712116,-0.042330615,-0.059412874,9.804871559
1784244745.039801,-0.006018709,0.003642045,0.858264565,0.000140395,-0.002196897,-0.000224217,-0.060526177,-0.040972907,9.827836990
1784244745.041786,-0.006020544,0.003640161,0.858258843,-0.000449240,-0.002305133,-0.000192430,-0.023328207,-0.047473535,9.792860985
1784244745.043840,-0.006015700,0.003633546,0.858257055,-0.000208328,-0.002352335,-0.000637378,-0.024829037,-0.059214570,9.808476448
1784244745.045841,-0.006014576,0.003627237,0.858261108,0.000252735,-0.002591775,-0.000312343,-0.049079094,-0.059063092,9.830870628
1784244745.047801,-0.006016185,0.003627716,0.858264029,0.000141157,-0.002277283,0.000233336,-0.034234922,-0.058150213,9.801749229
1784244745.049796,-0.006012335,0.003627212,0.858267367,0.000245043,-0.001653973,0.000597245,-0.027497938,-0.020595612,9.801099777
1784244745.051813,-0.006009782,0.003623049,0.858272612,0.000461263,-0.001544393,0.001023118,-0.030915568,-0.042597666,9.813956261
1784244745.053807,-0.006007539,0.003622563,0.858269751,0.000511344,-0.001460751,0.000899970,-0.011997010,-0.073773280,9.816464424
1784244745.055809,-0.006004554,0.003617030,0.858263314,0.000729752,-0.001468907,0.000015882,-0.051501747,-0.076253638,9.795338631
1784244745.057799,-0.005999877,0.003609095,0.858269215,0.001116760,-0.002003045,-0.000016986,-0.065554969,-0.052991532,9.762746811
1784244745.059801,-0.005989705,0.003601891,0.858274698,0.001883710,-0.002510365,0.000771514,-0.047108851,-0.046759024,9.798222542
1784244745.061814,-0.005990959,0.003603048,0.858270347,0.001962410,-0.002276476,0.000644506,-0.042500183,-0.037345741,9.789320946
1784244745.063804,-0.005991947,0.003599945,0.858261824,0.001265636,-0.001822105,-0.000404379,-0.028264333,-0.047413480,9.793306351
1784244745.065805,-0.005988760,0.003588311,0.858256221,0.001074721,-0.002321925,-0.001262866,-0.026908735,-0.047761038,9.776716232
1784244745.067810,-0.005984521,0.003582748,0.858256817,0.001293953,-0.002855768,-0.001256827,-0.019574830,-0.070037805,9.808859825
1784244745.069826,-0.005989441,0.003584194,0.858259201,0.000901452,-0.002360073,-0.000706823,-0.051608820,-0.083583176,9.818157196
1784244745.071833,-0.005997786,0.003586533,0.858257830,-0.000173971,-0.001467590,-0.000448859,-0.018729165,-0.076536603,9.776089668
1784244745.073820,-0.005998245,0.003582894,0.858250558,-0.000652198,-0.001158716,-0.000912217,-0.063737534,-0.047972854,9.809855461
1784244745.075849,-0.005994480,0.003575496,0.858244717,-0.000247529,-0.001587913,-0.001559097,-0.049431942,-0.052626904,9.808494568
1784244745.077841,-0.005995983,0.003570017,0.858245671,-0.000028345,-0.002083187,-0.001471874,-0.036462963,-0.057594020,9.790541649
1784244745.079864,-0.005998252,0.003570373,0.858247459,-0.000280102,-0.001920785,-0.000882569,-0.031387884,-0.082799710,9.797558784
1784244745.081835,-0.005996392,0.003563999,0.858242095,-0.000155309,-0.001821143,-0.000886125,-0.040786456,-0.044898227,9.777170181
1784244745.083839,-0.005991756,0.003562160,0.858245432,0.000403843,-0.001898262,-0.000780494,-0.055482510,-0.069263451,9.827658653
1784244745.085849,-0.005990829,0.003561686,0.858255148,0.000668554,-0.001545231,0.000327463,-0.025239879,-0.056073084,9.808494568
1784244745.087844,-0.005991334,0.003554492,0.858255863,0.000514811,-0.001607194,0.000951752,-0.009185396,-0.063949458,9.816082954
1784244745.089843,-0.005986179,0.003551851,0.858256280,0.000692040,-0.001795572,0.000774388,-0.048016258,-0.047637086,9.797319412
1784244745.091845,-0.005983366,0.003553872,0.858249128,0.001063332,-0.001392118,0.000107022,-0.036348395,-0.047773849,9.795536995
1784244745.093842,-0.005984339,0.003551563,0.858245015,0.000918922,-0.001073851,-0.000686550,-0.028563261,-0.071657434,9.800770760
1784244745.095870,-0.005983492,0.003544993,0.858241498,0.000662631,-0.001381894,-0.001015182,-0.024292650,-0.054070164,9.777126312
1784244745.097853,-0.005980687,0.003538502,0.858238697,0.000708011,-0.001861344,-0.001165381,-0.027552377,-0.025888477,9.789408684
1784244745.099850,-0.005981066,0.003541225,0.858239412,0.000656801,-0.001581509,-0.000982599,-0.018285913,-0.038590278,9.794716835
1784244745.101849,-0.005980667,0.003536035,0.858243406,0.000348585,-0.001251505,-0.000397876,-0.029649457,-0.051351562,9.782518387
1784244745.103851,-0.005979762,0.003534501,0.858243704,0.000211418,-0.001299808,-0.000009485,-0.034802455,-0.067592986,9.807515144
1784244745.105857,-0.005975101,0.003535314,0.858244717,0.000531499,-0.000996323,0.000077438,-0.032916404,-0.099217117,9.777725220
1784244745.107862,-0.005976255,0.003534541,0.858246803,0.000765539,-0.000668027,0.000267722,-0.037601355,-0.077721693,9.787720680
1784244745.109856,-0.005976454,0.003529839,0.858243287,0.000607251,-0.000801423,0.000096863,-0.074144229,-0.092597969,9.803281784
1784244745.111863,-0.005985371,0.003527741,0.858238161,-0.000034893,-0.001231915,-0.000517699,-0.041581664,-0.071538396,9.807483673
1784244745.113863,-0.005989281,0.003524138,0.858239889,-0.000755888,-0.001473009,-0.000604363,-0.030429931,-0.075443879,9.832575798
1784244745.115883,-0.005983582,0.003522022,0.858245432,-0.000430989,-0.001464247,0.000056954,-0.020802341,-0.060168590,9.809369087
1784244745.117872,-0.005984266,0.003516121,0.858252704,0.000002487,-0.001570306,0.000917490,-0.037551105,-0.035277281,9.804581642
1784244745.119866,-0.005986803,0.003516215,0.858255565,-0.000240195,-0.001496447,0.001363818,-0.033518948,-0.036593422,9.793368340
1784244745.121874,-0.005987048,0.003519645,0.858260810,-0.000482523,-0.000847075,0.001547763,-0.041788068,-0.053004079,9.784737587
1784244745.123883,-0.005989867,0.003518417,0.858262062,-0.000677849,-0.000463144,0.001572928,-0.048843808,-0.040995207,9.809915543
1784244745.125913,-0.005992230,0.003515957,0.858263195,-0.001006695,-0.000756200,0.001389203,-0.058841508,-0.050781097,9.817912102
1784244745.127892,-0.005991842,0.003500234,0.858246803,-0.000764299,-0.001468259,0.001433460,-0.012170949,-0.051605582,9.807789803
1784244745.129907,-0.005987454,0.003501045,0.858247697,0.000031110,-0.001597301,0.001360136,0.006912417,-0.069052204,9.811580658
1784244745.131895,-0.005986997,0.003503140,0.858242929,0.000368063,-0.000833189,0.000733458,-0.033254310,-0.049399633,9.829602242
1784244745.133896,-0.005987203,0.003498433,0.858238637,0.000302912,-0.000649074,-0.000068624,-0.030630980,-0.055651531,9.821943283
1784244745.135893,-0.005984974,0.003496881,0.858237863,0.000359225,-0.000895599,-0.000402163,-0.031129688,-0.060903665,9.805320740
1784244745.137896,-0.005980302,0.003496072,0.858247340,0.000726537,-0.000796477,0.000295623,-0.034474462,-0.041093331,9.797823906
1784244745.139894,-0.005978527,0.003501419,0.858250260,0.000962423,-0.000257496,0.001059229,-0.003301168,-0.059973471,9.813423157
1784244745.141904,-0.005975454,0.003501576,0.858240306,0.001048443,0.000270256,0.000280290,-0.012112782,-0.048849858,9.777170181
1784244745.143902,-0.005977992,0.003503259,0.858233452,0.000820673,0.000409844,-0.000938850,-0.038599562,-0.047805514,9.804051399
1784244745.145904,-0.005980545,0.003502819,0.858231783,0.000254245,0.000386315,-0.001250657,-0.064675167,-0.089516200,9.793897629
1784244745.147900,-0.005979741,0.003501228,0.858232021,0.000198751,0.000056461,-0.001009633,-0.039670911,-0.061325062,9.816966057
1784244745.149909,-0.005975413,0.003497002,0.858227372,0.000626135,-0.000439651,-0.001033301,-0.022563260,-0.057851739,9.801760674
1784244745.151909,-0.005971296,0.003493216,0.858233094,0.001044849,-0.000822544,-0.000671404,-0.017827265,-0.074486353,9.801211357
1784244745.153910,-0.005972727,0.003497537,0.858237147,0.000956981,-0.000524809,0.000172481,-0.030272562,-0.064069971,9.807991028
1784244745.155915,-0.005978408,0.003503495,0.858235359,0.000213844,0.000314593,0.000266129,-0.034754232,-0.028001320,9.784457207
1784244745.157916,-0.005979948,0.003504789,0.858233929,-0.000474019,0.000677894,-0.000028302,-0.021016056,-0.043718278,9.764641762
1784244745.159916,-0.005981457,0.003501687,0.858240068,-0.000693781,0.000324227,0.000295765,-0.003183555,-0.015781362,9.773356438
1784244745.161917,-0.005972665,0.003503371,0.858249545,-0.000166690,0.000234629,0.001273997,-0.017276706,-0.029613931,9.790739059
1784244745.163917,-0.005967731,0.003505236,0.858251929,0.000655506,0.000508166,0.001736487,-0.026998794,-0.091330305,9.792126656
1784244745.165922,-0.005970532,0.003506390,0.858253539,0.000621434,0.000573588,0.001530100,-0.012895803,-0.077014789,9.769815445
1784244745.167924,-0.005976816,0.003509212,0.858257234,-0.000089255,0.000754082,0.001469659,-0.036048558,-0.059896808,9.798597336
1784244745.169928,-0.005979906,0.003507983,0.858260632,-0.000627122,0.000723020,0.001551054,-0.024513535,-0.032813478,9.812680244
1784244745.171924,-0.005983004,0.003505408,0.858259559,-0.000950380,0.000287553,0.001301276,-0.027293805,-0.079169199,9.783685684
1784244745.173927,-0.005980183,0.003508622,0.858264267,-0.000784985,0.000271540,0.001193839,-0.020565862,-0.079681136,9.780551910
1784244745.175933,-0.005980302,0.003511338,0.858266592,-0.000390124,0.000597573,0.001334511,-0.007737739,-0.058301821,9.775321007
1784244745.177930,-0.005980589,0.003511491,0.858266532,-0.000229848,0.000694345,0.001129122,-0.016367329,-0.027909899,9.801510811
1784244745.179928,-0.005980192,0.003512876,0.858266234,-0.000077471,0.000675570,0.000798539,-0.033782247,-0.057314102,9.809375763
1784244745.181940,-0.005985299,0.003511726,0.858269155,-0.000294127,0.000502214,0.000754873,-0.020584213,-0.079420768,9.807004929
1784244745.183930,-0.005987591,0.003511019,0.858267188,-0.000634051,0.000234561,0.000613674,-0.026224002,-0.063635603,9.802618027
1784244745.185936,-0.005989028,0.003515074,0.858266830,-0.000714548,0.000399088,0.000296460,-0.003673700,-0.057339996,9.758743286
1784244745.187940,-0.005993064,0.003515846,0.858266354,-0.000844165,0.000663150,0.000156322,-0.003404275,-0.031708010,9.808223724
1784244745.189936,-0.005995126,0.003511955,0.858261466,-0.000979858,0.000317866,-0.000255709,-0.013438812,-0.047863565,9.766864777
1784244745.191934,-0.005990194,0.003508820,0.858262479,-0.000538929,-0.000156144,-0.000447940,-0.017788542,-0.072154343,9.788225174
1784244745.194008,-0.005983131,0.003510398,0.858265817,0.000399728,-0.000133562,-0.000025342,-0.028975299,-0.030935524,9.808652878
1784244745.195944,-0.005983004,0.003511256,0.858268023,0.000777957,0.000065733,0.000355258,-0.005393754,-0.048621684,9.796009064
1784244745.197945,-0.005982931,0.003509250,0.858265996,0.000545801,0.000002614,0.000269517,0.005603204,-0.028722245,9.813183784
1784244745.199949,-0.005985468,0.003509871,0.858269513,0.000195473,-0.000059966,0.000296934,-0.041589506,-0.074842282,9.768009186
1784244745.201948,-0.005990917,0.003512537,0.858272910,-0.000346951,0.000165317,0.000678996,-0.026285404,-0.070199206,9.780608177
1784244745.203944,-0.005994023,0.003509717,0.858277857,-0.000781055,0.000095199,0.001064268,-0.036437530,-0.055366933,9.792349815
1784244745.205953,-0.005996856,0.003507689,0.858280182,-0.000973881,-0.000262755,0.001271214,-0.031039692,-0.054114293,9.795500755
1784244745.207956,-0.005994776,0.003510268,0.858281434,-0.000730180,-0.000166130,0.001171848,-0.048293654,-0.030879090,9.835535049
1784244745.209961,-0.005987710,0.003512377,0.858281434,0.000119799,0.000185993,0.000939633,-0.034126870,-0.050407693,9.783864021
1784244745.211957,-0.005981416,0.003511815,0.858279049,0.000918256,0.000244137,0.000516921,-0.008901202,-0.042253368,9.788873672
1784244745.213954,-0.005975697,0.003513408,0.858272076,0.001410267,0.000254340,-0.000260689,-0.024496634,-0.070269890,9.787333488
1784244745.215956,-0.005969753,0.003510756,0.858268797,0.001821500,0.000117542,-0.000882045,-0.036231723,-0.077147894,9.767551422
1784244745.217961,-0.005964107,0.003502851,0.858272433,0.002184447,-0.000653195,-0.000616262,-0.007648027,-0.050298937,9.783892632
1784244745.219957,-0.005963170,0.003504760,0.858274639,0.002107787,-0.000907218,-0.000060435,-0.045854241,-0.055198502,9.785616875
1784244745.221966,-0.005965974,0.003511487,0.858274341,0.001412070,-0.000129754,0.000078049,-0.054514907,-0.064668149,9.809756279
1784244745.223964,-0.005965068,0.003510745,0.858273208,0.000903818,0.000257972,-0.000038687,-0.019751474,-0.047621287,9.807209969
1784244745.225962,-0.005967115,0.003507648,0.858274817,0.000580868,-0.000072831,-0.000000707,-0.031880368,-0.050007556,9.786561012
1784244745.227970,-0.005973590,0.003508149,0.858276367,-0.000141999,-0.000219671,0.000207229,-0.024041479,-0.032634813,9.786678314
1784244745.229983,-0.005976054,0.003516726,0.858268380,-0.000694618,0.000469588,-0.000286762,-0.020965241,-0.038454037,9.780367851
1784244745.231976,-0.005979645,0.003516965,0.858270526,-0.000970922,0.000952123,-0.000610434,-0.062939905,-0.056066737,9.812493324
1784244745.233968,-0.005980080,0.003515442,0.858268321,-0.001035934,0.000615771,-0.000452702,-0.034957353,-0.079757892,9.817300797
1784244745.235972,-0.005978354,0.003516812,0.858265400,-0.000665865,0.000440341,-0.000679729,-0.012985440,-0.045400940,9.797816277
1784244745.237971,-0.005980473,0.003521266,0.858270347,-0.000555482,0.000743251,-0.000355570,-0.012199892,-0.053590208,9.813903809
1784244745.239982,-0.005981378,0.003525316,0.858271718,-0.000654607,0.001144074,0.000170123,-0.022342071,-0.039895132,9.796496391
1784244745.242012,-0.005982989,0.003521519,0.858269155,-0.000713566,0.000881051,0.000044564,-0.039120700,-0.052019019,9.830475807
1784244745.243984,-0.005986068,0.003521350,0.858271182,-0.000904401,0.000402717,0.000005418,-0.042770002,-0.060144059,9.782449722
1784244745.245988,-0.005984353,0.003521394,0.858271897,-0.000752139,0.000283776,0.000195264,-0.051535163,-0.041764420,9.796905518
1784244745.248004,-0.005985788,0.003518790,0.858270943,-0.000552683,-0.000018599,0.000133934,-0.042211842,-0.049154278,9.811213493
1784244745.249986,-0.005987272,0.003518604,0.858270884,-0.000624399,-0.000254202,0.000034669,-0.039958682,-0.086696677,9.793939590
1784244745.251984,-0.005989284,0.003518306,0.858269036,-0.000638166,-0.000227818,-0.000108686,-0.039317563,-0.072215050,9.772512436
1784244745.253987,-0.005987027,0.003518344,0.858276725,-0.000396149,-0.000196526,0.000310851,-0.048859015,-0.045573007,9.760568619
1784244745.255989,-0.005986634,0.003518668,0.858283281,-0.000112171,-0.000124435,0.001194583,-0.040487178,-0.019841021,9.781365395
1784244745.257993,-0.005990023,0.003517071,0.858281970,-0.000338893,-0.000171474,0.001223367,-0.047272604,-0.024240753,9.782226562
1784244745.260001,-0.005993940,0.003514260,0.858274341,-0.000793364,-0.000412746,0.000285977,-0.047738008,-0.027608832,9.752615929
1784244745.261996,-0.005991058,0.003517436,0.858275414,-0.000760322,-0.000323444,-0.000232380,-0.037728209,-0.012053870,9.815491676
1784244745.263992,-0.005993337,0.003517523,0.858277202,-0.000627149,-0.000065448,0.000023064,-0.025802290,-0.066691220,9.790493011
1784244745.266001,-0.005996374,0.003521331,0.858278096,-0.000818385,0.000215715,0.000191162,-0.028918399,-0.064023621,9.799026489
1784244745.267992,-0.005992743,0.003528381,0.858279884,-0.000572769,0.000902366,0.000316916,-0.039457384,-0.081018843,9.813701630
1784244745.269996,-0.005988575,0.003532906,0.858286381,0.000093974,0.001448998,0.000788647,-0.043022770,-0.078755304,9.816850662
1784244745.271998,-0.005993896,0.003537350,0.858290792,0.000016457,0.001636190,0.001310747,-0.045811009,-0.047967900,9.839910507
1784244745.274004,-0.005996685,0.003539830,0.858288646,-0.000510247,0.001637176,0.001111931,-0.036247816,-0.039685115,9.792001724
1784244745.276006,-0.005993331,0.003543569,0.858291030,-0.000333332,0.001614735,0.000823443,-0.042962294,-0.038661622,9.786172867
1784244745.278004,-0.005992146,0.003544447,0.858295500,-0.000025914,0.001485700,0.001064234,-0.037806943,-0.056344178,9.806241035
1784244745.280010,-0.005988333,0.003541552,0.858295083,0.000229757,0.000942485,0.001056677,-0.020188674,-0.047929946,9.788377762
1784244745.282007,-0.005988536,0.003544368,0.858294785,0.000382778,0.000747099,0.000727303,-0.023948720,-0.059766237,9.821475983
1784244745.284007,-0.005987852,0.003547340,0.858297050,0.000281198,0.001002046,0.000651698,-0.018376950,-0.047819398,9.769551277
1784244745.286017,-0.005988539,0.003546349,0.858302712,0.000202691,0.000861290,0.001009987,-0.046818789,-0.060174987,9.794101715
1784244745.288022,-0.005989746,0.003551453,0.858304083,0.000001970,0.000850626,0.001217124,-0.031042507,-0.054136556,9.798638344
1784244745.290019,-0.005992470,0.003559235,0.858308256,-0.000282195,0.001438983,0.001262813,-0.043865107,-0.039098080,9.786169052
1784244745.292016,-0.005991363,0.003561142,0.858306646,-0.000382201,0.001687666,0.001096695,-0.047065455,-0.041958634,9.816186905
1784244745.294019,-0.005988848,0.003561710,0.858303130,-0.000097472,0.001382206,0.000450034,-0.059110902,-0.035986274,9.817111015
1784244745.296026,-0.005992174,0.003563930,0.858300388,-0.000124517,0.001198650,-0.000093415,-0.045937959,-0.062343620,9.782432556
1784244745.298026,-0.006000109,0.003567590,0.858299375,-0.000883913,0.001251904,-0.000326979,-0.058354426,-0.049268082,9.793263435
1784244745.300035,-0.005999452,0.003568442,0.858297288,-0.001166996,0.001197568,-0.000461113,-0.033409286,-0.066428140,9.767174721
1784244745.302027,-0.005999590,0.003568245,0.858299851,-0.000833397,0.000970623,-0.000306290,-0.009884280,-0.047376115,9.817980766
1784244745.304027,-0.005991458,0.003569811,0.858307302,-0.000085131,0.000849860,0.000457413,-0.047179110,-0.053392589,9.786074638
1784244745.306029,-0.005988389,0.003571697,0.858309209,0.000696110,0.000849668,0.000960472,-0.036581561,-0.067445979,9.790030479
1784244745.308038,-0.005986489,0.003577770,0.858305752,0.000854310,0.001146484,0.000587822,-0.036658492,-0.073726982,9.791334152
1784244745.310035,-0.005990318,0.003582116,0.858308673,0.000501076,0.001529313,0.000388742,-0.054180950,-0.074900694,9.798933029
1784244745.312034,-0.005997019,0.003583037,0.858313024,-0.000250181,0.001396224,0.000782189,-0.049906701,-0.054447975,9.813413620
1784244745.314032,-0.006001146,0.003585267,0.858309031,-0.000815974,0.001158355,0.000598649,-0.025721369,-0.021978391,9.803334236
1784244745.316040,-0.006002603,0.003587998,0.858306170,-0.000971677,0.001183393,-0.000038997,-0.028580405,-0.036634404,9.790235519
1784244745.318037,-0.006002971,0.003589316,0.858308733,-0.000869044,0.001214536,-0.000051804,-0.046929263,-0.033183463,9.779030800
1784244745.320037,-0.006003120,0.003589911,0.858303845,-0.000705135,0.001093043,-0.000188159,-0.035975080,-0.056074642,9.764996529
1784244745.322045,-0.005999689,0.003591654,0.858305395,-0.000260323,0.000983471,-0.000359299,-0.041839972,-0.057061169,9.788298607
1784244745.324041,-0.005997930,0.003595410,0.858308792,0.000191266,0.001114833,0.000077013,-0.053333100,-0.080976970,9.769752502
1784244745.326049,-0.005997747,0.003601836,0.858306646,0.000270860,0.001502754,0.000143367,-0.040089753,-0.061894093,9.771680832
1784244745.328045,-0.005999884,0.003610768,0.858303607,0.000135150,0.002168190,-0.000257764,-0.065547995,-0.048883941,9.815228462
1784244745.330062,-0.006001093,0.003612171,0.858296096,-0.000056946,0.002314186,-0.000913055,-0.052713662,-0.064640276,9.802585602
1784244745.332047,-0.006011111,0.003610516,0.858291030,-0.000819661,0.001654068,-0.001522051,-0.021492826,-0.042718407,9.813964844
1784244745.334052,-0.006009112,0.003611618,0.858297110,-0.001160748,0.001147221,-0.001044859,-0.046698011,-0.049900498,9.798202515
1784244745.336055,-0.006005733,0.003617213,0.858301640,-0.000483091,0.001285995,-0.000043063,-0.049047798,-0.057194941,9.820121765
1784244745.338057,-0.006007614,0.003621370,0.858300865,-0.000239847,0.001536663,0.000217823,-0.023345400,-0.046393566,9.830080032
1784244745.340051,-0.006006630,0.003627787,0.858298779,-0.000223690,0.001777772,-0.000043349,-0.016906209,-0.072690107,9.798982620
1784244745.342059,-0.006009433,0.003630391,0.858290792,-0.000247101,0.001938786,-0.000721147,-0.051271118,-0.054980438,9.827754974
1784244745.344056,-0.006009017,0.003633367,0.858291984,-0.000303414,0.001821078,-0.000981613,-0.029500302,-0.037611041,9.803230286
1784244745.346059,-0.006007799,0.003636333,0.858295500,-0.000111273,0.001728056,-0.000394803,-0.043624993,-0.055745162,9.795478821
1784244745.348061,-0.006007347,0.003636434,0.858298361,0.000044180,0.001443468,0.000139810,-0.051649332,-0.051581409,9.791461945
1784244745.350060,-0.006004818,0.003638061,0.858296692,0.000247672,0.001147284,0.000185934,-0.023125954,-0.067256339,9.802148819
1784244745.352061,-0.006003262,0.003642713,0.858292222,0.000473346,0.001293764,-0.000283775,-0.033603359,-0.042528201,9.809022903
1784244745.354061,-0.006013838,0.003639177,0.858291984,-0.000252300,0.001049422,-0.000521012,-0.037407842,-0.061604630,9.789170265
1784244745.356072,-0.006020119,0.003639309,0.858287394,-0.001327008,0.000535325,-0.000696577,-0.048918568,-0.049690515,9.772647858
1784244745.358066,-0.006019182,0.003645089,0.858277380,-0.001342118,0.000786710,-0.001505736,-0.068583325,-0.043147016,9.769980431
1784244745.360256,-0.006015062,0.003646965,0.858267844,-0.000645841,0.001090312,-0.002436389,-0.044924431,-0.051712167,9.797743797
1784244745.362223,-0.006009039,0.003648879,0.858271778,0.000181981,0.001068171,-0.002158460,-0.027531318,-0.059259560,9.819680214
1784244745.364147,-0.006007831,0.003650785,0.858276963,0.000583738,0.001048013,-0.000945433,-0.028614759,-0.075711332,9.803883553
1784244745.366114,-0.006017309,0.003650685,0.858274102,-0.000136656,0.000885137,-0.000533538,-0.047608431,-0.088797413,9.788089752
1784244745.368126,-0.006032305,0.003653705,0.858272791,-0.001690696,0.000798348,-0.000686230,-0.047162946,-0.088828593,9.791675568
1784244745.370106,-0.006032934,0.003658018,0.858278334,-0.002224256,0.001031114,-0.000217206,-0.022271942,-0.072068229,9.784185410
1784244745.372100,-0.006026256,0.003656317,0.858282387,-0.001151536,0.000984718,0.000486628,-0.023822010,-0.047823910,9.843070030
1784244745.374154,-0.006027496,0.003654803,0.858276188,-0.000408608,0.000560222,0.000202846,-0.071582101,-0.029826919,9.792479515
1784244745.376149,-0.006030056,0.003653833,0.858275473,-0.000553865,0.000242266,-0.000311907,-0.045021042,-0.058959033,9.808907509
1784244745.378113,-0.006025879,0.003658674,0.858277678,-0.000277269,0.000381068,-0.000124621,-0.021369006,-0.070415072,9.802130699
1784244745.380103,-0.006016147,0.003661550,0.858273327,0.000759410,0.000744715,-0.000238120,-0.037029453,-0.067433871,9.789134026
1784244745.382104,-0.006011305,0.003663159,0.858269036,0.001549870,0.000831913,-0.000754981,-0.028516309,-0.068855196,9.784647942
1784244745.384107,-0.006013820,0.003665901,0.858271956,0.001292696,0.000883430,-0.000645501,-0.050339252,-0.055125110,9.783370972
1784244745.386102,-0.006016150,0.003661746,0.858268380,0.000612981,0.000547953,-0.000514450,-0.017653855,-0.099765167,9.764286995
1784244745.388096,-0.006021956,0.003655681,0.858268559,0.000022199,-0.000216278,-0.000602548,-0.051498987,-0.078258149,9.762148857
1784244745.390100,-0.006025324,0.003652598,0.858278990,-0.000481975,-0.000705975,0.000272224,-0.058698401,-0.039925106,9.803186417
1784244745.392099,-0.006023364,0.003649365,0.858275831,-0.000486763,-0.001029296,0.000693627,-0.052618716,-0.056596052,9.805328369
1784244745.394112,-0.006026701,0.003650790,0.858270228,-0.000484331,-0.000952268,-0.000080743,-0.043818392,-0.070645519,9.811971664
1784244745.396110,-0.006038019,0.003653097,0.858266950,-0.001345450,-0.000436759,-0.000661727,-0.061891850,-0.043541681,9.813472748
1784244745.398106,-0.006040761,0.003653485,0.858270645,-0.001993535,-0.000172860,-0.000453809,-0.065088138,-0.050017349,9.784733772
1784244745.400103,-0.006041144,0.003655938,0.858276427,-0.001725686,0.000025644,0.000312629,-0.030023938,-0.081460357,9.795775414
1784244745.402108,-0.006039844,0.003657070,0.858277202,-0.001149249,0.000275353,0.000673592,-0.024392996,-0.059725504,9.816543579
1784244745.404104,-0.006040013,0.003656075,0.858270347,-0.000711691,0.000228397,0.000068817,-0.029385289,-0.066187724,9.789149284
1784244745.406109,-0.006048176,0.003654370,0.858268380,-0.001081854,-0.000013266,-0.000554525,-0.018554861,-0.059355468,9.816999435
1784244745.408121,-0.006050844,0.003656363,0.858267605,-0.001512498,0.000061864,-0.000592287,-0.032017242,-0.022819260,9.806908607
1784244745.410116,-0.006050738,0.003655365,0.858268082,-0.001265564,0.000163551,-0.000456178,-0.032041807,-0.023013217,9.834256172
1784244745.412111,-0.006049661,0.003657372,0.858269632,-0.000941626,0.000217081,-0.000194443,-0.056255564,-0.023385648,9.804192543
1784244745.414113,-0.006053516,0.003660128,0.858265579,-0.000973362,0.000512833,-0.000309648,-0.039682142,-0.065061003,9.775248528
1784244745.416121,-0.006053413,0.003658864,0.858265758,-0.000962835,0.000476488,-0.000485182,-0.056694489,-0.059676852,9.804855347
1784244745.418120,-0.006050520,0.003661100,0.858259082,-0.000503724,0.000356255,-0.000793379,-0.049714357,-0.076740488,9.797579765
1784244745.420121,-0.006048251,0.003662995,0.858260036,-0.000022422,0.000482741,-0.000962317,-0.035083018,-0.089260459,9.830690384
1784244745.422128,-0.006050320,0.003660453,0.858262479,0.000106848,0.000303520,-0.000473488,-0.061510544,-0.088558771,9.779560089
1784244745.424124,-0.006051318,0.003656284,0.858259976,-0.000019852,-0.000237201,-0.000354691,-0.050949007,-0.068548657,9.781939507
1784244745.426126,-0.006054897,0.003659303,0.858261228,-0.000324836,-0.000250392,-0.000338572,-0.048658587,-0.027375128,9.784447670
1784244745.428130,-0.006055668,0.003661837,0.858264327,-0.000597679,0.000152203,0.000054474,-0.040330213,-0.043223415,9.792872429
1784244745.430137,-0.006057979,0.003659274,0.858262479,-0.000709618,0.000067898,0.000122216,-0.047235094,-0.056671407,9.806229591
1784244745.432133,-0.006058127,0.003662472,0.858263493,-0.000663873,0.000041994,0.000027552,-0.040029567,-0.055340018,9.795036316
1784244745.434129,-0.006058498,0.003665987,0.858269632,-0.000500811,0.000432386,0.000502630,-0.044084221,-0.055012010,9.819244385
1784244745.436158,-0.006062390,0.003665297,0.858266115,-0.000654813,0.000505615,0.000540229,-0.063329682,-0.051543213,9.807143211
1784244745.438137,-0.006069292,0.003668847,0.858264685,-0.001236434,0.000513125,0.000061167,-0.045639716,-0.036889333,9.793804169
1784244745.440136,-0.006063851,0.003668851,0.858263314,-0.001027124,0.000564883,-0.000142146,-0.064330302,-0.021646118,9.826162338
1784244745.442130,-0.006059015,0.003666664,0.858262718,-0.000137811,0.000198329,-0.000237183,-0.029580168,-0.045130987,9.789731979
1784244745.444140,-0.006060495,0.003666212,0.858269036,0.000038334,-0.000102823,0.000216146,-0.036221754,-0.037858289,9.787081718
1784244745.446149,-0.006055634,0.003661185,0.858272076,0.000255078,-0.000450707,0.000798541,-0.066676416,-0.032558847,9.789776802
1784244745.448146,-0.006046304,0.003657573,0.858266592,0.001044738,-0.000976066,0.000428019,-0.081856169,-0.063678712,9.782837868
1784244745.450148,-0.006044066,0.003657347,0.858261526,0.001444058,-0.001029470,-0.000399953,-0.032862633,-0.020370819,9.779126167
1784244745.452143,-0.006045770,0.003657067,0.858261764,0.000977640,-0.000792545,-0.000623701,-0.037602726,-0.040547885,9.789753914
1784244745.454146,-0.006048564,0.003659282,0.858257651,0.000295933,-0.000454711,-0.000714114,-0.067249291,-0.043259658,9.783430099
1784244745.456155,-0.006047903,0.003660664,0.858255982,0.000072175,-0.000084775,-0.000905219,-0.043756768,-0.067322195,9.785541534
1784244745.458148,-0.006046647,0.003662437,0.858259141,0.000214956,0.000142435,-0.000556787,-0.024413260,-0.063938037,9.778855324
1784244745.460150,-0.006040188,0.003657922,0.858258426,0.000712254,-0.000092710,-0.000232358,-0.027101779,-0.061848149,9.804870605
1784244745.462152,-0.006045124,0.003650828,0.858260214,0.000616525,-0.000834494,-0.000090181,-0.046297703,-0.055151418,9.779788971
1784244745.464149,-0.006051178,0.003646978,0.858258784,-0.000302420,-0.001329388,-0.000041857,-0.042690128,-0.052624110,9.795947075
1784244745.466153,-0.006051840,0.003648640,0.858260036,-0.000676267,-0.001116906,-0.000039095,-0.024033584,-0.030140996,9.814043045
1784244745.468149,-0.006045605,0.003654320,0.858267844,-0.000237000,-0.000235584,0.000581857,-0.050992951,-0.033332039,9.807271957
1784244745.470150,-0.006043542,0.003660725,0.858277321,0.000265957,0.000725031,0.001595886,-0.044197347,-0.065226093,9.806626320
1784244745.472152,-0.006044075,0.003660605,0.858277380,0.000339278,0.000963220,0.001808055,-0.047591385,-0.049857207,9.793720245
1784244745.474162,-0.006046642,0.003658840,0.858277440,0.000080819,0.000586000,0.001327241,-0.034162547,-0.053120896,9.787434578
1784244745.476165,-0.006048718,0.003653091,0.858278155,-0.000256519,-0.000083508,0.001028692,-0.039001998,-0.043787189,9.806766510
1784244745.478163,-0.006051436,0.003647931,0.858277857,-0.000541457,-0.000858581,0.000773436,-0.031565785,-0.059582651,9.809363365
1784244745.480158,-0.006052466,0.003640581,0.858276725,-0.000677580,-0.001531204,0.000460634,-0.042101197,-0.040986050,9.796469688
1784244745.482168,-0.006047893,0.003641322,0.858283222,-0.000357954,-0.001650612,0.000704838,-0.027093273,-0.062591456,9.783345222
1784244745.484170,-0.006044833,0.003642413,0.858285069,0.000151841,-0.001165829,0.001084933,-0.042631608,-0.048109528,9.791044235
1784244745.486181,-0.006042081,0.003640325,0.858279943,0.000505884,-0.000915608,0.000566948,-0.039510775,-0.049118821,9.801352501
1784244745.488185,-0.006044408,0.003637900,0.858280957,0.000345572,-0.000962472,0.000133505,-0.046678681,-0.049747877,9.776684761
1784244745.490175,-0.006044056,0.003635839,0.858274221,0.000066332,-0.000994197,-0.000290810,-0.039728697,-0.070696898,9.748760223
1784244745.492174,-0.006043348,0.003636481,0.858269095,0.000209559,-0.000820508,-0.001013463,-0.031805694,-0.083765820,9.745097160
1784244745.494175,-0.006044584,0.003634436,0.858271122,0.000203989,-0.000696446,-0.000944386,-0.006230636,-0.081669681,9.782347679
1784244745.496177,-0.006044479,0.003633437,0.858270824,0.000071425,-0.000714670,-0.000569942,-0.032118693,-0.067694254,9.816932678
1784244745.498178,-0.006045753,0.003629214,0.858269870,-0.000007954,-0.000852908,-0.000496402,-0.047967061,-0.042385563,9.814839363
1784244745.500177,-0.006047281,0.003624255,0.858275652,-0.000178180,-0.001224934,-0.000029327,-0.056610193,-0.052121930,9.813422203
1784244745.502178,-0.006051331,0.003622265,0.858279884,-0.000501106,-0.001423913,0.000654002,-0.048590984,-0.057947159,9.799047470
1784244745.504181,-0.006052848,0.003618897,0.858280540,-0.000734359,-0.001458790,0.000809431,-0.018804532,-0.044404835,9.794229507
1784244745.506183,-0.006054087,0.003616852,0.858281016,-0.000722296,-0.001430612,0.000670523,-0.051742315,-0.058799658,9.798588753
1784244745.508185,-0.006051180,0.003613110,0.858285248,-0.000443662,-0.001486430,0.000804006,-0.014744759,-0.080661334,9.781896591
1784244745.510210,-0.006043117,0.003609108,0.858284593,0.000390906,-0.001659454,0.000829306,-0.025783418,-0.065731704,9.781533241
1784244745.512195,-0.006043075,0.003607068,0.858285129,0.000820254,-0.001638032,0.000595550,-0.028484935,-0.027370302,9.810470581
1784244745.514190,-0.006044590,0.003604496,0.858280838,0.000483756,-0.001523879,0.000172053,-0.065877587,-0.040643189,9.791070938
1784244745.516191,-0.006047987,0.003599823,0.858280957,0.000019958,-0.001600244,-0.000155749,-0.042795595,-0.059940934,9.816971779
1784244745.518202,-0.006049383,0.003594945,0.858285725,-0.000303066,-0.001821791,0.000218312,-0.039500315,-0.086626120,9.783179283
1784244745.520192,-0.006046832,0.003598428,0.858284950,-0.000134423,-0.001429124,0.000422333,-0.036233146,-0.039164018,9.781693459
1784244745.522193,-0.006045869,0.003601220,0.858284354,0.000103235,-0.000638117,0.000212920,-0.054175712,-0.040106233,9.757460594
1784244745.524192,-0.006044960,0.003600743,0.858283937,0.000164922,-0.000330773,0.000076741,-0.054962516,-0.028279591,9.796988487
1784244745.526203,-0.006047801,0.003597920,0.858286738,-0.000011554,-0.000465912,0.000209858,-0.047795087,-0.067270458,9.785537720
1784244745.528203,-0.006053444,0.003597423,0.858288348,-0.000592641,-0.000578364,0.000450449,-0.037241776,-0.047730554,9.791053772
1784244745.530203,-0.006054398,0.003598026,0.858279467,-0.000884956,-0.000422837,-0.000167031,-0.023025598,-0.058764163,9.804894447
1784244745.532204,-0.006056061,0.003598791,0.858275235,-0.000824395,-0.000184057,-0.001012865,-0.046710212,-0.051212583,9.793710709
1784244745.534218,-0.006059370,0.003602072,0.858277202,-0.000942822,0.000167098,-0.000888193,-0.076413855,-0.058832839,9.784667015
1784244745.536214,-0.006060317,0.003602145,0.858278573,-0.000976548,0.000348022,-0.000418616,-0.017458607,-0.082418673,9.781882286
1784244745.538213,-0.006065124,0.003601304,0.858278811,-0.001003349,0.000246633,-0.000204200,-0.012226652,-0.057043523,9.795499802
1784244745.540205,-0.006065297,0.003599247,0.858277917,-0.000969847,0.000029092,-0.000193131,-0.024449443,-0.065034263,9.807094574
1784244745.542252,-0.006062877,0.003594309,0.858278871,-0.000533061,-0.000440149,-0.000131988,-0.038138717,-0.048525952,9.778493881
1784244745.544212,-0.006061995,0.003591446,0.858276188,-0.000142831,-0.000835986,-0.000213995,-0.019949306,-0.065393463,9.786473274
1784244745.546211,-0.006060106,0.003582737,0.858277857,0.000084155,-0.001394051,-0.000221175,-0.049997736,-0.063677095,9.788248062
1784244745.548212,-0.006059804,0.003577367,0.858281732,0.000245698,-0.002055309,0.000223465,-0.051710207,-0.056925144,9.786944389
1784244745.550223,-0.006057871,0.003572636,0.858285248,0.000366043,-0.002267734,0.000657196,-0.058523942,-0.062764145,9.801247597
1784244745.552221,-0.006059909,0.003573487,0.858282447,0.000259825,-0.002057641,0.000523594,-0.009652911,-0.030960163,9.777288437
1784244745.554225,-0.006058181,0.003575388,0.858276546,0.000170760,-0.001450610,-0.000203036,-0.021232497,-0.019589769,9.837427139
1784244745.556228,-0.006057874,0.003568818,0.858272612,0.000264867,-0.001369649,-0.000806346,-0.035325088,-0.035849381,9.818030357
1784244745.558229,-0.006054617,0.003562335,0.858275235,0.000344069,-0.001872302,-0.000671306,-0.046350751,-0.057191271,9.814743996
1784244745.560239,-0.006053404,0.003564506,0.858281553,0.000460789,-0.001649349,0.000116415,-0.065041058,-0.080751553,9.822196960
1784244745.562229,-0.006054708,0.003564426,0.858275175,0.000387894,-0.001175476,0.000077984,-0.025644379,-0.051260591,9.825562477
1784244745.564228,-0.006054668,0.003558390,0.858266234,0.000258905,-0.001381112,-0.000982155,-0.051406454,-0.067396164,9.809742928
1784244745.566237,-0.006063913,0.003555371,0.858262479,-0.000433089,-0.001615570,-0.001575359,-0.050635625,-0.040543314,9.812605858
1784244745.568239,-0.006073301,0.003556426,0.858261049,-0.001675377,-0.001385527,-0.001500991,-0.016855340,-0.068235934,9.802597046
1784244745.570236,-0.006077971,0.003557600,0.858258307,-0.002270078,-0.000933744,-0.001372531,-0.037531845,-0.071904555,9.788655281
1784244745.572234,-0.006079546,0.003558780,0.858258307,-0.002033619,-0.000522404,-0.001187168,-0.043251172,-0.100416049,9.775914192
1784244745.574247,-0.006074971,0.003552430,0.858258545,-0.001234520,-0.000734701,-0.000855420,-0.025713090,-0.057071369,9.823732376
1784244745.576241,-0.006077306,0.003548010,0.858252883,-0.000745963,-0.001264006,-0.000995068,-0.017007705,-0.044411935,9.791991234
1784244745.578249,-0.006078515,0.003545817,0.858250678,-0.000838138,-0.001319787,-0.001258142,-0.023176067,-0.036140967,9.774104118
1784244745.580248,-0.006077080,0.003544805,0.858250082,-0.000650467,-0.001131284,-0.001105122,-0.034086872,-0.046039369,9.799585342
1784244745.582249,-0.006078785,0.003543991,0.858249724,-0.000513664,-0.000958739,-0.000867089,-0.070508920,-0.051451225,9.807136536
1784244745.584244,-0.006082893,0.003547545,0.858249307,-0.000790400,-0.000523107,-0.000674505,-0.038419411,-0.071410120,9.783726692
1784244745.586252,-0.006085229,0.003542596,0.858249128,-0.001013003,-0.000475516,-0.000535745,-0.036097758,-0.065148331,9.781079292
1784244745.588244,-0.006088085,0.003536497,0.858245790,-0.001037268,-0.001107085,-0.000636723,-0.011981694,-0.036062486,9.805946350
1784244745.590250,-0.006086174,0.003530440,0.858241141,-0.000765760,-0.001640521,-0.000999063,-0.034426536,-0.072631240,9.822278976
1784244745.592251,-0.006091689,0.003529892,0.858245492,-0.000745885,-0.001652321,-0.000755756,-0.030022433,-0.079827487,9.818202019
1784244745.594254,-0.006092089,0.003531020,0.858248949,-0.000890160,-0.001176547,-0.000034509,-0.036958318,-0.058767177,9.830433846
1784244745.596256,-0.006090379,0.003530800,0.858247221,-0.000560014,-0.000796211,0.000094652,-0.040464330,-0.052792761,9.815674782
1784244745.598258,-0.006093757,0.003524592,0.858249426,-0.000524248,-0.001074464,0.000113118,-0.021552444,-0.048862677,9.795992851
1784244745.600263,-0.006097426,0.003519391,0.858250737,-0.000863961,-0.001616427,0.000322669,-0.030995613,-0.050524250,9.794627190
1784244745.602262,-0.006096983,0.003520889,0.858248174,-0.000905155,-0.001399500,0.000154128,-0.033343632,-0.060236178,9.778423309
1784244745.604259,-0.006093689,0.003519857,0.858242691,-0.000460855,-0.000955721,-0.000435654,-0.043193839,-0.055484191,9.821036339
1784244745.606271,-0.006094651,0.003518870,0.858240426,-0.000175533,-0.000830121,-0.000848415,-0.026484618,-0.088387556,9.755383492
1784244745.608269,-0.006099754,0.003514468,0.858244121,-0.000460070,-0.000989176,-0.000519471,-0.027758105,-0.080907583,9.776950836
1784244745.610270,-0.006096514,0.003507336,0.858247697,-0.000383522,-0.001524523,0.000115414,-0.042032786,-0.071551725,9.810173035
1784244745.612264,-0.006103233,0.003502571,0.858250320,-0.000490883,-0.001966313,0.000505167,-0.052839905,-0.074552648,9.810591698
1784244745.614273,-0.006107346,0.003505596,0.858249784,-0.001067214,-0.001597041,0.000503327,-0.038472496,-0.035049938,9.837310791
1784244745.616273,-0.006099509,0.003505309,0.858248949,-0.000524396,-0.000976988,0.000270799,-0.035433613,-0.045621857,9.806310654
1784244745.618277,-0.006091097,0.003503619,0.858254671,0.000625822,-0.000860065,0.000533983,-0.033372220,-0.060461935,9.810253143
1784244745.620279,-0.006087267,0.003501785,0.858259439,0.001190473,-0.000882261,0.001103764,-0.003206575,-0.087495618,9.840145111
1784244745.622284,-0.006085315,0.003499081,0.858256221,0.001332491,-0.000855766,0.000904893,-0.011989867,-0.037342776,9.796972275
1784244745.624279,-0.006086568,0.003495711,0.858255863,0.001092097,-0.000938650,0.000415917,-0.046378314,-0.060650956,9.797237396
1784244745.626281,-0.006086192,0.003494974,0.858257711,0.000735744,-0.000963180,0.000402599,-0.037505776,-0.070077732,9.783735275
1784244745.628275,-0.006082839,0.003494146,0.858258426,0.000803543,-0.000787032,0.000466706,-0.045742773,-0.044187073,9.812139511
1784244745.630280,-0.006077389,0.003495211,0.858253777,0.001198848,-0.000533789,0.000081409,-0.049078755,-0.061086681,9.800370216
1784244745.632286,-0.006078007,0.003497899,0.858252406,0.001218125,-0.000147531,-0.000342993,-0.023658890,-0.038025633,9.787990570
1784244745.634292,-0.006081066,0.003499321,0.858256221,0.000652479,0.000154673,-0.000093365,-0.029858099,-0.067182824,9.803936958
1784244745.636293,-0.006082295,0.003498337,0.858254552,0.000183683,0.000141559,0.000069046,-0.033339880,-0.058990866,9.792328835
1784244745.638293,-0.006090211,0.003497069,0.858254433,-0.000502679,-0.000042719,-0.000066887,-0.033025652,-0.069379203,9.803471565
1784244745.640290,-0.006090304,0.003501907,0.858258426,-0.000926992,0.000215878,0.000215485,-0.033490814,-0.070313893,9.809741020
1784244745.642292,-0.006081352,0.003508126,0.858262062,-0.000056093,0.000893968,0.000678518,-0.011147369,-0.079430215,9.791322708
1784244745.644290,-0.006077267,0.003505229,0.858267367,0.000861746,0.000862363,0.001103614,-0.038058341,-0.077376083,9.802966118
1784244745.646301,-0.006079261,0.003507435,0.858264685,0.000769169,0.000580216,0.000977395,-0.032290339,-0.047669791,9.773572922
1784244745.648305,-0.006084844,0.003513190,0.858260572,0.000022471,0.000961847,0.000255825,-0.017417686,-0.042074174,9.779002190
1784244745.650299,-0.006084191,0.003513777,0.858258426,-0.000341954,0.001129709,-0.000234056,-0.045288432,-0.044148304,9.805862427
1784244745.652296,-0.006079317,0.003512927,0.858262360,0.000072820,0.000737362,-0.000051161,-0.045933709,-0.062715270,9.771669388
1784244745.654300,-0.006080275,0.003511675,0.858267367,0.000263966,0.000323756,0.000568586,-0.039626542,-0.058948524,9.797703743
1784244745.656307,-0.006091351,0.003511328,0.858268082,-0.000625812,0.000124869,0.000802379,-0.054498911,-0.062920824,9.816045761
1784244745.658304,-0.006099589,0.003509654,0.858272314,-0.001745498,-0.000158596,0.000917019,-0.052051246,-0.046343207,9.811671257
1784244745.660313,-0.006097358,0.003508102,0.858272791,-0.001657947,-0.000446722,0.000983461,-0.011034746,-0.032846052,9.792965889
1784244745.662309,-0.006093045,0.003507715,0.858271778,-0.000903165,-0.000373869,0.000673500,-0.024404442,-0.025468037,9.787620544
1784244745.664312,-0.006084415,0.003506889,0.858270645,0.000081436,-0.000270823,0.000340356,-0.034249201,-0.058668129,9.811609268
1784244745.666311,-0.006081345,0.003508511,0.858276188,0.000852445,-0.000145104,0.000549326,-0.018761203,-0.041631218,9.782142639
1784244745.668320,-0.006086421,0.003507692,0.858277202,0.000401718,-0.000007490,0.000844621,-0.010220144,-0.038779613,9.806828499
1784244745.670313,-0.006088743,0.003504598,0.858270943,-0.000289817,-0.000222440,0.000263128,-0.018952584,-0.056515686,9.796394348
1784244745.672321,-0.006085816,0.003498376,0.858270645,-0.000218541,-0.000726660,-0.000251766,-0.022094587,-0.020515159,9.780033112
1784244745.674325,-0.006082810,0.003494694,0.858271360,0.000193451,-0.001136738,-0.000157180,-0.047955450,-0.044320121,9.771785736
1784244745.676408,-0.006085379,0.003492663,0.858271182,0.000170451,-0.001216112,-0.000069515,-0.045279980,-0.044081531,9.796448708
1784244745.678384,-0.006091948,0.003489662,0.858270824,-0.000515261,-0.001284278,-0.000078979,-0.026872823,-0.042614441,9.809028625
1784244745.680354,-0.006099321,0.003487418,0.858264923,-0.001339462,-0.001345999,-0.000483597,0.001206685,-0.023492346,9.778691292
1784244745.682338,-0.006099036,0.003488143,0.858262897,-0.001555278,-0.000962466,-0.000883669,-0.018880134,-0.049459599,9.812130928
1784244745.684359,-0.006098604,0.003492974,0.858260810,-0.001183542,-0.000204341,-0.000918884,-0.040304434,-0.040183082,9.806342125
1784244745.686352,-0.006099826,0.003493051,0.858253837,-0.000913665,0.000188065,-0.001288415,-0.024786340,-0.056040678,9.803115845
1784244745.688353,-0.006101437,0.003494312,0.858250439,-0.000864448,0.000205973,-0.001631548,-0.015557393,-0.071064964,9.820064545
1784244745.690367,-0.006098926,0.003494082,0.858250797,-0.000576850,0.000195317,-0.001393851,-0.045688126,-0.079724468,9.768871307
1784244745.692347,-0.006096840,0.003491620,0.858257771,-0.000028254,-0.000072407,-0.000517579,-0.059223406,-0.046600614,9.797763824
1784244745.694428,-0.006094044,0.003492449,0.858263850,0.000389296,-0.000198073,0.000518330,-0.052305520,-0.066587307,9.823645592
1784244745.696351,-0.006093418,0.003490118,0.858265638,0.000513942,-0.000249471,0.000911881,-0.037970524,-0.033419274,9.796075821
1784244745.698349,-0.006093127,0.003490781,0.858265340,0.000424409,-0.000336310,0.000764774,-0.041820560,-0.017291809,9.803347588
1784244745.700350,-0.006095093,0.003495373,0.858262658,0.000184198,0.000072176,0.000353077,-0.015313897,-0.055363689,9.753813744
1784244745.702360,-0.006091779,0.003489873,0.858258843,0.000223215,0.000044899,-0.000182983,-0.030584320,-0.054472622,9.782049179
1784244745.704350,-0.006086344,0.003489347,0.858256459,0.000754112,-0.000322485,-0.000556583,-0.044316120,-0.075484678,9.800281525
1784244745.706357,-0.006084065,0.003492568,0.858252883,0.001074353,-0.000049538,-0.000807789,-0.048608243,-0.058893960,9.806212425
1784244745.708364,-0.006082925,0.003497845,0.858250201,0.001076165,0.000475893,-0.001007390,-0.061596207,-0.056103054,9.815183640
1784244745.710363,-0.006081193,0.003499215,0.858252823,0.001038963,0.000730540,-0.000738380,-0.055858903,-0.066255145,9.783293724
1784244745.712357,-0.006084611,0.003497541,0.858254015,0.000662635,0.000450174,-0.000274783,-0.060848124,-0.070261717,9.788644791
1784244745.714360,-0.006087421,0.003497899,0.858254850,0.000080659,0.000178028,-0.000064287,-0.051313408,-0.060987983,9.790505409
1784244745.716372,-0.006088084,0.003500356,0.858249187,-0.000175757,0.000322828,-0.000378113,-0.026097016,-0.055743624,9.763663292
1784244745.718368,-0.006085684,0.003502030,0.858244181,0.000001353,0.000552819,-0.001002599,-0.025532700,-0.043489452,9.803644180
1784244745.720369,-0.006085035,0.003501556,0.858250201,0.000216717,0.000516572,-0.000664250,-0.013326540,-0.036845773,9.792490959
1784244745.722369,-0.006080683,0.003495549,0.858256042,0.000438882,-0.000001054,0.000319725,-0.033086121,-0.037129797,9.805022240
1784244745.724379,-0.006075800,0.003493703,0.858248830,0.000891192,-0.000465733,0.000133924,-0.036374863,-0.049603853,9.800904274
1784244745.726383,-0.006067093,0.003500832,0.858239472,0.001575645,0.000026198,-0.001025193,-0.025417220,-0.070036188,9.819166183
1784244745.728403,-0.006064519,0.003504631,0.858241081,0.001896520,0.000796810,-0.001271873,-0.056929551,-0.078148194,9.819532394
1784244745.730384,-0.006063585,0.003506010,0.858244658,0.001599557,0.000962509,-0.000570087,-0.022346446,-0.040740184,9.789318085
1784244745.732411,-0.006063512,0.003509780,0.858239949,0.001185392,0.001088009,-0.000492373,-0.037160568,-0.038984369,9.821146965
1784244745.734398,-0.006060936,0.003516446,0.858231604,0.000998050,0.001543276,-0.001263934,-0.056188308,-0.054770935,9.807128906
1784244745.736390,-0.006062971,0.003514940,0.858227193,0.000766800,0.001479751,-0.001792257,-0.023060134,-0.063494600,9.777067184
1784244745.738385,-0.006065611,0.003509986,0.858221292,0.000264288,0.000680002,-0.002001345,-0.018137522,-0.063256137,9.797696114
1784244745.740439,-0.006073197,0.003511722,0.858224750,-0.000480373,0.000314256,-0.001629555,-0.036756605,-0.082606718,9.780069351
1784244745.742400,-0.006080559,0.003511826,0.858225226,-0.001201567,0.000335072,-0.000924149,-0.023576912,-0.104453012,9.804151535
1784244745.744435,-0.006087115,0.003510899,0.858222723,-0.001655628,0.000171910,-0.000808289,-0.041816775,-0.054446530,9.798626900
1784244745.746434,-0.006085929,0.003510949,0.858226120,-0.001570864,0.000065350,-0.000524587,-0.027413247,-0.050627474,9.802700043
1784244745.748397,-0.006078856,0.003514171,0.858228266,-0.000656615,0.000300633,-0.000007935,-0.021726791,-0.062396899,9.809353828
1784244745.750412,-0.006078972,0.003517152,0.858229578,-0.000078499,0.000671859,0.000225000,-0.020627081,-0.048248149,9.770889282
1784244745.752403,-0.006076146,0.003513798,0.858233273,0.000084018,0.000458439,0.000499895,-0.040871669,-0.050839368,9.793720245
1784244745.754405,-0.006074741,0.003509603,0.858234823,0.000305580,-0.000184236,0.000715655,-0.000361874,-0.040631168,9.797410011
1784244745.756409,-0.006075186,0.003506489,0.858241141,0.000285952,-0.000633575,0.001053169,-0.016394962,-0.068149477,9.789595604
1784244745.758408,-0.006069585,0.003507996,0.858243704,0.000602561,-0.000442948,0.001374663,-0.027846007,-0.013311193,9.785453796
1784244745.760403,-0.006062236,0.003511957,0.858241022,0.001364247,0.000179937,0.000998647,-0.053655431,-0.032252181,9.786203384
1784244745.762407,-0.006060569,0.003520897,0.858239055,0.001579716,0.000945341,0.000400987,-0.026598293,-0.055747785,9.828222275
1784244745.764415,-0.006059601,0.003525459,0.858242631,0.001302127,0.001540958,0.000398364,-0.031858783,-0.047405642,9.798682213
1784244745.766429,-0.006058161,0.003524180,0.858248174,0.001109903,0.001341569,0.000916443,-0.029890604,-0.069060519,9.816030502
1784244745.768418,-0.006056788,0.003526267,0.858247399,0.001041171,0.001035437,0.000986194,-0.008116234,-0.050852437,9.799579620
1784244745.770423,-0.006061698,0.003529830,0.858243525,0.000562225,0.001144906,0.000406364,-0.025281550,-0.062480900,9.764517784
1784244745.772420,-0.006065119,0.003532432,0.858240306,-0.000129214,0.001283340,-0.000178719,-0.032808319,-0.051047780,9.808520317
1784244745.774428,-0.006062072,0.003531932,0.858246386,-0.000095071,0.001104305,0.000062266,-0.039153624,-0.056736730,9.800856590
1784244745.776420,-0.006058973,0.003537001,0.858244419,0.000346970,0.001112823,0.000329517,-0.048726827,-0.031155961,9.812217712
1784244745.778424,-0.006063887,0.003539925,0.858242810,0.000056724,0.001236835,0.000000388,-0.028916556,-0.061577510,9.833114624
1784244745.780423,-0.006067534,0.003536314,0.858248055,-0.000614306,0.000735171,0.000243991,-0.059609279,-0.078015134,9.805631638
1784244745.782427,-0.006067778,0.003538002,0.858246684,-0.000687948,0.000311129,0.000439839,-0.055312540,-0.056574274,9.807118416
1784244745.784428,-0.006066344,0.003536989,0.858243406,-0.000394750,0.000182013,0.000006406,-0.045493040,-0.025194647,9.787154198
1784244745.786427,-0.006064651,0.003535178,0.858242571,-0.000074328,-0.000057414,-0.000273881,-0.012151330,-0.050775252,9.795989037
1784244745.788435,-0.006061243,0.003536534,0.858235836,0.000216433,0.000002976,-0.000711342,-0.013451979,-0.046751797,9.799599648
1784244745.790442,-0.006061548,0.003546942,0.858234227,0.000292713,0.000876726,-0.001079775,-0.048206616,-0.062918633,9.804394722
1784244745.792428,-0.006065307,0.003553746,0.858244359,-0.000013702,0.001726165,-0.000210300,-0.037442934,-0.063908033,9.798121452
1784244745.794429,-0.006063041,0.003555111,0.858248115,-0.000063625,0.001728918,0.000780983,-0.036155809,-0.032879848,9.779941559
1784244745.796462,-0.006060789,0.003555945,0.858244598,0.000260300,0.001408698,0.000581257,-0.042123865,-0.042380810,9.803634644
1784244745.798446,-0.006061019,0.003558860,0.858247459,0.000207332,0.001196868,0.000381264,-0.031420603,-0.046683986,9.822446823
1784244745.800448,-0.006062243,0.003557610,0.858251929,-0.000069148,0.000897804,0.000775941,-0.046753883,-0.054799452,9.794136047
1784244745.802440,-0.006059489,0.003560858,0.858256996,0.000055299,0.000747536,0.001208768,-0.059442125,-0.065348208,9.788228989
1784244745.804448,-0.006057978,0.003566473,0.858259797,0.000332080,0.001104705,0.001418662,-0.070866644,-0.044243127,9.802251816
1784244745.806451,-0.006058650,0.003567074,0.858263791,0.000297295,0.001223897,0.001498200,-0.052268300,-0.065888159,9.788231850
1784244745.808450,-0.006055039,0.003567526,0.858267784,0.000411932,0.000894794,0.001626254,-0.043691859,-0.061946668,9.785574913
1784244745.810447,-0.006062367,0.003568198,0.858273864,0.000043113,0.000659037,0.001863258,-0.054962296,-0.066273011,9.784192085
1784244745.812461,-0.006068395,0.003572535,0.858271897,-0.000819086,0.000694118,0.001638983,-0.047989056,-0.082580626,9.796647072
1784244745.814480,-0.006065059,0.003574949,0.858270645,-0.000721436,0.000840943,0.000971979,-0.026745781,-0.070285670,9.793607712
1784244745.816471,-0.006063359,0.003573137,0.858275056,-0.000184397,0.000652236,0.000918410,-0.066121951,-0.058377579,9.828168869
1784244745.818455,-0.006067586,0.003571822,0.858284712,-0.000341078,0.000174040,0.001634793,-0.055976029,-0.036074217,9.823837280
1784244745.820466,-0.006074661,0.003571165,0.858291507,-0.001051446,-0.000096891,0.002318620,-0.013907123,-0.046796918,9.806773186
1784244745.822462,-0.006079236,0.003574784,0.858292282,-0.001579697,0.000249593,0.002206033,-0.051661182,-0.052080244,9.798632622
1784244745.824465,-0.006085705,0.003582341,0.858285904,-0.001920149,0.001065033,0.001224631,-0.029217612,-0.052300937,9.789237976
1784244745.826465,-0.006090085,0.003585103,0.858287275,-0.002134043,0.001478492,0.000544842,-0.028241329,-0.082795441,9.791284561
1784244745.828465,-0.006093111,0.003585111,0.858288705,-0.002043708,0.001251740,0.000588626,-0.050632939,-0.079327725,9.785008430
1784244745.830466,-0.006097306,0.003581242,0.858282804,-0.001963521,0.000639408,0.000130656,-0.031132633,-0.064979464,9.748357773
1784244745.832467,-0.006099638,0.003578350,0.858283043,-0.001852405,0.000031322,-0.000294049,-0.036820345,-0.049572662,9.797317505
1784244745.834462,-0.006099250,0.003579469,0.858277440,-0.001460450,-0.000073141,-0.000583010,-0.055965051,-0.037608504,9.787512779
1784244745.836469,-0.006099908,0.003581661,0.858277917,-0.001081052,0.000173621,-0.000773515,-0.059278019,-0.052300099,9.780241966
1784244745.838485,-0.006095394,0.003587636,0.858286738,-0.000551170,0.000596665,0.000064260,-0.038759530,-0.062441971,9.783334732
1784244745.840475,-0.006095838,0.003584256,0.858293235,-0.000152169,0.000524178,0.001087661,-0.000701605,-0.069249794,9.790053368
1784244745.842543,-0.006095567,0.003577888,0.858292520,-0.000083757,-0.000152330,0.001197557,-0.018793495,-0.081502333,9.781438828
1784244745.844495,-0.006098592,0.003583288,0.858289719,-0.000206716,-0.000045338,0.000630817,-0.030507844,-0.047384731,9.793303490
1784244745.846487,-0.006103749,0.003588180,0.858291209,-0.000705640,0.000666104,0.000365247,-0.026033137,-0.047134165,9.813035011
1784244745.848510,-0.006102571,0.003586107,0.858293533,-0.000804432,0.000657339,0.000530302,-0.030889397,-0.042390987,9.784816742
1784244745.850490,-0.006091559,0.003584196,0.858290017,0.000222389,0.000191229,0.000306743,-0.047641575,-0.055521719,9.771266937
1784244745.852484,-0.006090787,0.003584709,0.858291030,0.000954505,0.000032389,0.000054605,-0.033620734,-0.044691700,9.798249245
1784244745.854489,-0.006093069,0.003585062,0.858287215,0.000585480,0.000070510,-0.000147703,-0.052732300,-0.066003233,9.805267334
1784244745.856491,-0.006093245,0.003583271,0.858281910,0.000261894,-0.000042466,-0.000729197,-0.017539958,-0.051144682,9.794636726
1784244745.858491,-0.006092795,0.003579672,0.858286262,0.000185194,-0.000345904,-0.000594183,-0.010256286,-0.043522764,9.780795097
1784244745.860485,-0.006094584,0.003575777,0.858287036,0.000018285,-0.000712298,-0.000081621,-0.028738523,-0.048824742,9.803606033
1784244745.862492,-0.006090846,0.003578700,0.858279765,0.000137923,-0.000580961,-0.000499902,-0.037843190,-0.059467185,9.804428101
1784244745.864490,-0.006087554,0.003576606,0.858281076,0.000569864,-0.000363228,-0.000767284,-0.027137753,-0.066184677,9.784667015
1784244745.866495,-0.006089057,0.003574828,0.858279467,0.000536600,-0.000527170,-0.000585331,-0.050178640,-0.040888924,9.797359467
1784244745.868491,-0.006092198,0.003577059,0.858274758,0.000028106,-0.000368955,-0.000849143,-0.065167926,-0.055510532,9.801287651
1784244745.870494,-0.006091307,0.003574991,0.858273149,-0.000179808,-0.000273449,-0.001041179,-0.048052974,-0.049953204,9.808064461
1784244745.872500,-0.006086309,0.003574033,0.858276308,0.000171548,-0.000410496,-0.000657925,-0.020126931,-0.043389920,9.779888153
1784244745.874501,-0.006080320,0.003575092,0.858277380,0.000772919,-0.000299175,-0.000196484,-0.013323154,-0.074003674,9.788217545
1784244745.876502,-0.006079095,0.003579915,0.858269632,0.001054366,0.000184131,-0.000598462,-0.024725480,-0.088286914,9.801115990
1784244745.878501,-0.006083602,0.003579552,0.858270347,0.000698785,0.000524370,-0.000910308,-0.028759580,-0.050206780,9.808977127
1784244745.880508,-0.006084298,0.003578562,0.858268201,0.000307993,0.000375344,-0.000760816,-0.031894002,-0.050925732,9.789692879
1784244745.882507,-0.006085234,0.003576400,0.858264923,0.000112403,0.000087488,-0.000923548,-0.052761707,-0.069072187,9.795832634
1784244745.884504,-0.006084627,0.003571949,0.858269632,0.000056652,-0.000360015,-0.000573936,-0.049930189,-0.058685932,9.779314041
1784244745.886511,-0.006079215,0.003568772,0.858272493,0.000447968,-0.000783215,0.000096089,-0.061147224,-0.057322323,9.796796799
1784244745.888516,-0.006073198,0.003568787,0.858269870,0.001097984,-0.000894355,0.000080422,-0.050391778,-0.058781929,9.793659210
1784244745.890518,-0.006071530,0.003565120,0.858263314,0.001319534,-0.001004727,-0.000563368,-0.046053726,-0.069336496,9.820942879
1784244745.892518,-0.006073522,0.003564825,0.858266532,0.000992417,-0.001028302,-0.000635682,-0.020339545,-0.060063053,9.793680191
1784244745.894517,-0.006075269,0.003564907,0.858268023,0.000520512,-0.000794289,-0.000145780,-0.030016217,-0.044620041,9.781664848
1784244745.896520,-0.006081309,0.003561588,0.858273208,-0.000150991,-0.000801156,0.000354015,-0.038759414,-0.061225269,9.801276207
1784244745.898520,-0.006088732,0.003561961,0.858273864,-0.001019667,-0.000801625,0.000645325,-0.057053555,-0.053694990,9.783372879
1784244745.900517,-0.006090487,0.003561778,0.858270288,-0.001359446,-0.000585482,0.000263503,-0.066091925,-0.058545731,9.788713455
1784244745.902528,-0.006090063,0.003565690,0.858273745,-0.001100448,-0.000362706,0.000185089,-0.039986923,-0.051356062,9.801785469
1784244745.904522,-0.006088804,0.003572899,0.858272970,-0.000707874,0.000300257,0.000311596,-0.073556803,-0.045002807,9.787897110
1784244745.906526,-0.006087373,0.003571621,0.858269691,-0.000332160,0.000623026,-0.000048290,-0.042446606,-0.031249166,9.814018250
1784244745.908526,-0.006092330,0.003566514,0.858270347,-0.000574489,-0.000018901,-0.000207858,-0.035258628,-0.032487899,9.786219597
1784244745.910524,-0.006101323,0.003561635,0.858270764,-0.001459454,-0.000732437,-0.000073873,-0.054131240,-0.071266130,9.791782379
1784244745.912536,-0.006106245,0.003561167,0.858270705,-0.001938764,-0.001019702,-0.000028863,-0.036507457,-0.098777220,9.785346985
1784244745.914531,-0.006103179,0.003562257,0.858276725,-0.001470795,-0.000826124,0.000386558,-0.052695032,-0.100867279,9.793387413
1784244745.916536,-0.006101206,0.003560973,0.858282030,-0.000732228,-0.000619609,0.001051220,-0.053873207,-0.046939876,9.835876465
1784244745.918537,-0.006100142,0.003560748,0.858280599,-0.000358027,-0.000680288,0.001028532,-0.017049477,-0.046362765,9.814393997
1784244745.920544,-0.006101062,0.003563208,0.858282149,-0.000280961,-0.000468846,0.000760392,-0.018461242,-0.052537486,9.803144455
1784244745.922541,-0.006103014,0.003556862,0.858285308,-0.000426769,-0.000530507,0.000870414,-0.030970009,-0.047890533,9.802266121
1784244745.924539,-0.006101069,0.003553722,0.858283699,-0.000337689,-0.000954188,0.000732141,-0.023973815,-0.064016908,9.789167404
1784244745.926545,-0.006101211,0.003553522,0.858292401,-0.000125368,-0.000924764,0.001012617,-0.064149067,-0.046457883,9.786551476
1784244745.928556,-0.006104465,0.003553077,0.858297586,-0.000386672,-0.000811725,0.001686138,-0.054232553,-0.042581327,9.790619850
1784244745.930551,-0.006111572,0.003550035,0.858300269,-0.001048238,-0.000919742,0.001759789,-0.037209090,-0.045446236,9.784790039
1784244745.932553,-0.006115795,0.003548337,0.858299136,-0.001565688,-0.001031389,0.001379960,-0.040060230,-0.057608437,9.799056053
1784244745.934546,-0.006117573,0.003545237,0.858302236,-0.001581145,-0.001116843,0.001139913,-0.020502513,-0.075128391,9.770269394
1784244745.936558,-0.006113437,0.003547378,0.858304381,-0.000992996,-0.000880900,0.001184277,-0.040642437,-0.105162270,9.808614731
1784244745.938554,-0.006118583,0.003546866,0.858305156,-0.000616434,-0.000527470,0.001055059,-0.030081701,-0.085158505,9.811889648
1784244745.940555,-0.006118214,0.003545070,0.858310163,-0.000598625,-0.000538440,0.001157591,-0.012090904,-0.044624627,9.813064575
1784244745.942557,-0.006113113,0.003542572,0.858312666,-0.000170715,-0.000605678,0.001358977,-0.045257114,-0.004690184,9.801632881
1784244745.944577,-0.006111125,0.003543940,0.858306527,0.000253652,-0.000435237,0.000748910,-0.048555590,-0.019267315,9.778222084
1784244745.946567,-0.006106182,0.003547662,0.858299077,0.000658551,0.000034087,-0.000379411,-0.069910035,-0.040950369,9.778512001
1784244745.948564,-0.006105166,0.003546075,0.858292341,0.000823733,0.000071620,-0.001239387,-0.053768225,-0.079242975,9.778729439
1784244745.950564,-0.006107265,0.003538471,0.858290434,0.000464709,-0.000672159,-0.001491840,-0.024706427,-0.086920768,9.797986984
1784244745.952569,-0.006111349,0.003533459,0.858297825,0.000056033,-0.001236274,-0.000719362,0.007592307,-0.087801754,9.800702095
1784244745.954569,-0.006107718,0.003537991,0.858300328,0.000146210,-0.000825328,0.000155457,-0.030179633,-0.056041647,9.812974930
1784244745.956578,-0.006106016,0.003536974,0.858298361,0.000468288,-0.000362855,0.000162256,-0.060583338,-0.085498147,9.788546562
1784244745.958580,-0.006110570,0.003538205,0.858300507,0.000284060,-0.000309197,0.000128862,-0.044845376,-0.047035418,9.769978523
1784244745.960581,-0.006110693,0.003540391,0.858303845,0.000024768,-0.000054983,0.000466571,-0.066636480,-0.027380448,9.817605972
1784244745.962577,-0.006106108,0.003537684,0.858308375,0.000212228,-0.000144832,0.000874120,-0.055593841,-0.006715084,9.789953232
1784244745.964581,-0.006104722,0.003531898,0.858309627,0.000451766,-0.000750487,0.001023754,-0.037646454,-0.043324687,9.802289009
1784244745.966584,-0.006105923,0.003533301,0.858309567,0.000341440,-0.000844762,0.000827361,-0.040958617,-0.058009926,9.794121742
1784244745.968586,-0.006107037,0.003537979,0.858310759,0.000087294,-0.000263595,0.000687636,-0.013260260,-0.033890918,9.754850388
1784244745.970589,-0.006113038,0.003538372,0.858316720,-0.000425012,0.000088874,0.000982072,-0.019007478,-0.061001655,9.797261238
1784244745.972586,-0.006122315,0.003535969,0.858318985,-0.001308126,0.000026714,0.001266186,-0.049436200,-0.055092089,9.777095795
1784244745.974588,-0.006123867,0.003529950,0.858314693,-0.001647145,-0.000449626,0.000785273,-0.043761879,-0.066146836,9.809309959
1784244745.976629,-0.006129371,0.003528216,0.858308733,-0.001676404,-0.000849548,-0.000124622,-0.038410399,-0.029696666,9.840483665
1784244745.978605,-0.006130720,0.003529165,0.858305752,-0.001765379,-0.000690731,-0.000694812,-0.043883171,-0.040051229,9.794233322
1784244745.980593,-0.006130362,0.003527899,0.858296633,-0.001431540,-0.000542007,-0.001325993,-0.032439720,-0.058170035,9.801301003
1784244745.982598,-0.006128783,0.003523453,0.858289361,-0.000884197,-0.000795155,-0.002076162,-0.030943554,-0.083650507,9.790379524
1784244745.984597,-0.006133492,0.003520916,0.858286858,-0.000831032,-0.001068608,-0.002172402,-0.046823572,-0.061023217,9.787371635
1784244745.986603,-0.006138447,0.003520237,0.858284175,-0.001260178,-0.000994663,-0.001934852,-0.032553535,-0.067173764,9.807519913
1784244745.988600,-0.006141619,0.003522757,0.858282566,-0.001461146,-0.000636345,-0.001705771,-0.020194953,-0.085164167,9.794862747
1784244745.990603,-0.006143881,0.003525231,0.858275354,-0.001423679,-0.000159425,-0.001844273,-0.012354399,-0.068588763,9.781079292
1784244745.992607,-0.006148335,0.003525016,0.858273685,-0.001506030,0.000081193,-0.001945940,-0.063420475,-0.058338944,9.817858696
1784244745.994605,-0.006145276,0.003526107,0.858274341,-0.001206713,0.000159290,-0.001478420,-0.059135944,-0.075800143,9.808337212
1784244745.996610,-0.006147308,0.003524336,0.858277023,-0.000810124,0.000068493,-0.000849546,-0.018601406,-0.027401397,9.797029495
1784244745.998610,-0.006151294,0.003519150,0.858279943,-0.001068033,-0.000370624,-0.000249951,-0.035499658,-0.014227028,9.802028656
1784244746.000612,-0.006154967,0.003514214,0.858274221,-0.001365387,-0.000901896,-0.000374109,-0.021134853,-0.012739988,9.819088936
1784244746.002618,-0.006153333,0.003509857,0.858272314,-0.001255406,-0.001254452,-0.000788779,-0.017649801,-0.024553431,9.772838593
1784244746.004617,-0.006148140,0.003510660,0.858277917,-0.000576202,-0.001126412,-0.000329590,-0.056013506,-0.042043600,9.781207085
1784244746.006648,-0.006145089,0.003511485,0.858274043,0.000139355,-0.000710757,-0.000119291,-0.042328309,-0.057773650,9.826401711
1784244746.008642,-0.006145592,0.003508727,0.858272910,0.000261243,-0.000652871,-0.000419385,-0.051346093,-0.063272305,9.796768188
1784244746.010661,-0.006147123,0.003504034,0.858274341,0.000037726,-0.000987531,-0.000279560,-0.028769014,-0.050686538,9.813457489
1784244746.012636,-0.006136398,0.003506117,0.858272314,0.000565788,-0.000896350,-0.000246941,-0.025928294,-0.039417077,9.798738480
1784244746.014630,-0.006131688,0.003512759,0.858266890,0.001375813,-0.000057668,-0.000687548,-0.029893424,-0.069082782,9.819168091
1784244746.016631,-0.006135090,0.003507820,0.858265221,0.001092749,0.000076518,-0.000976466,-0.028713720,-0.046197385,9.812142372
1784244746.018631,-0.006134148,0.003504108,0.858257771,0.000608290,-0.000505813,-0.001335585,-0.024756210,-0.092582099,9.775084496
1784244746.020629,-0.006127659,0.003502511,0.858254731,0.000927054,-0.000702734,-0.001685124,-0.032215141,-0.077371344,9.791763306
1784244746.022633,-0.006125301,0.003502198,0.858256698,0.001286991,-0.000599563,-0.001288318,-0.000659432,-0.067295797,9.767200470
1784244746.024634,-0.006121216,0.003499300,0.858260691,0.001384383,-0.000615500,-0.000530672,-0.027571272,-0.102027930,9.785332680
1784244746.026635,-0.006118198,0.003497209,0.858255446,0.001490953,-0.000786388,-0.000485016,-0.057124503,-0.059118219,9.790063858
1784244746.028631,-0.006118656,0.003489258,0.858247578,0.001258666,-0.001316647,-0.001248788,-0.037658948,-0.046260100,9.774024010
1784244746.030641,-0.006121004,0.003483248,0.858246982,0.000724155,-0.001970977,-0.001482330,-0.032420080,-0.018804125,9.810072899
1784244746.032636,-0.006117724,0.003483767,0.858251750,0.000447833,-0.001842097,-0.000800474,-0.011788649,-0.021975378,9.777791977
1784244746.034642,-0.006115715,0.003486195,0.858253062,0.000541740,-0.001176193,-0.000173730,-0.031724542,-0.036619596,9.793819427
1784244746.036646,-0.006117994,0.003486548,0.858253002,0.000376096,-0.000668574,-0.000042333,-0.027818747,-0.083817936,9.808314323
1784244746.038650,-0.006121448,0.003484573,0.858257115,-0.000055326,-0.000566634,0.000249972,-0.023451189,-0.095760524,9.778653145
1784244746.040651,-0.006112848,0.003480831,0.858258545,0.000368500,-0.000770872,0.000552793,-0.046507433,-0.069775514,9.820492744
1784244746.042656,-0.006104576,0.003479238,0.858254611,0.001419612,-0.000942340,0.000232894,-0.010934970,-0.059516799,9.825971603
1784244746.044737,-0.006111901,0.003480971,0.858253300,0.001104910,-0.000694512,-0.000180307,-0.032069512,-0.100032702,9.827935219
1784244746.046703,-0.006113417,0.003477868,0.858252823,0.000205178,-0.000598178,-0.000248180,-0.032979216,-0.064960018,9.812018394
1784244746.048700,-0.006113671,0.003474103,0.858257592,0.000087214,-0.000896324,0.000116368,-0.003204317,-0.050293203,9.838144302
1784244746.050707,-0.006110120,0.003471476,0.858258665,0.000344959,-0.001081781,0.000472920,-0.028626557,-0.077020243,9.798943520
1784244746.052698,-0.006110033,0.003466241,0.858255267,0.000569405,-0.001285957,0.000190783,-0.010023944,-0.061446954,9.780677795
1784244746.054671,-0.006112884,0.003462887,0.858255148,0.000298596,-0.001483569,-0.000087920,-0.022072777,-0.053069815,9.821518898
1784244746.056668,-0.006112759,0.003463479,0.858255386,0.000032332,-0.001268238,-0.000054387,-0.038125709,-0.044370662,9.824250221
1784244746.058667,-0.006109369,0.003464059,0.858257413,0.000220604,-0.000846391,0.000116540,-0.037261162,-0.049909946,9.782519341
1784244746.060672,-0.006104999,0.003463014,0.858261347,0.000645250,-0.000651725,0.000493613,-0.010496523,-0.062845506,9.789186478
1784244746.062673,-0.006105804,0.003463635,0.858259439,0.000721000,-0.000433737,0.000497582,-0.016688360,-0.055975653,9.779363632
1784244746.064675,-0.006100616,0.003464703,0.858258903,0.000832718,-0.000129670,0.000194493,-0.043619119,-0.018514128,9.789440155
1784244746.066675,-0.006099994,0.003462108,0.858260453,0.001000818,-0.000198521,0.000206889,-0.045998827,-0.030097395,9.784432411
1784244746.068673,-0.006102791,0.003461382,0.858261764,0.000506716,-0.000386798,0.000340532,-0.047810499,-0.031018009,9.791150093
1784244746.070681,-0.006108277,0.003461238,0.858254433,-0.000265869,-0.000353862,-0.000157527,-0.044625159,-0.026654959,9.801940918
1784244746.072701,-0.006109040,0.003463418,0.858252108,-0.000699576,-0.000149719,-0.000771875,-0.032880474,-0.056480546,9.816555023
1784244746.074705,-0.006106497,0.003466371,0.858249307,-0.000471545,0.000207241,-0.000910515,-0.040398918,-0.083787322,9.826683998
1784244746.076695,-0.006109566,0.003467528,0.858247697,-0.000378265,0.000431737,-0.000957672,-0.012943039,-0.078603506,9.804327965
1784244746.078699,-0.006116428,0.003464681,0.858248472,-0.000911783,0.000204345,-0.000760485,0.008176233,-0.076608479,9.800774574
1784244746.080728,-0.006122231,0.003459238,0.858248830,-0.001486459,-0.000410168,-0.000475219,-0.024908336,-0.066324711,9.800359726
1784244746.082832,-0.006126120,0.003459901,0.858242154,-0.001720561,-0.000622735,-0.000771252,-0.026105244,-0.090966977,9.802442551
1784244746.084721,-0.006127311,0.003462364,0.858240426,-0.001577558,-0.000240108,-0.001127832,-0.026409863,-0.079692237,9.792651176
1784244746.086721,-0.006122646,0.003463437,0.858249128,-0.000915051,0.000062191,-0.000339573,-0.025905624,-0.038022324,9.791574478
1784244746.088739,-0.006112252,0.003466595,0.858252943,0.000291053,0.000380392,0.000597397,-0.040693976,-0.033226170,9.836872101
1784244746.090729,-0.006112618,0.003471967,0.858245909,0.000831861,0.000910359,0.000216038,-0.041036624,-0.025493788,9.821228981
1784244746.092727,-0.006115985,0.003472403,0.858252168,0.000227723,0.001000103,0.000115503,-0.045818157,-0.052482124,9.781599045
1784244746.094729,-0.006118040,0.003468245,0.858255684,-0.000329571,0.000414457,0.000742471,-0.033603936,-0.042938009,9.803640366
1784244746.096714,-0.006118200,0.003467250,0.858256221,-0.000391482,-0.000049453,0.000802410,-0.027451055,-0.054573279,9.790570259
1784244746.098750,-0.006118945,0.003468863,0.858255565,-0.000322972,0.000027010,0.000577788,-0.036395520,-0.050982710,9.805827141
1784244746.100729,-0.006124449,0.003466069,0.858259797,-0.000636623,-0.000040912,0.000665611,-0.032367617,-0.051927194,9.805377007
1784244746.102728,-0.006119290,0.003464024,0.858260036,-0.000488502,-0.000364773,0.000782815,-0.049193103,-0.071310289,9.789097786
1784244746.104741,-0.006113039,0.003464550,0.858263433,0.000417557,-0.000374987,0.000816567,-0.033552028,-0.038880922,9.800079346
1784244746.106737,-0.006111575,0.003465923,0.858264983,0.000826818,-0.000146287,0.000932331,-0.016164269,-0.047686350,9.809903145
1784244746.108767,-0.006110383,0.003460672,0.858263433,0.000706604,-0.000279166,0.000689398,-0.026120314,-0.056738116,9.777555466
1784244746.110742,-0.006113166,0.003463683,0.858263075,0.000331278,-0.000263984,0.000368176,-0.031084238,-0.094487406,9.802415848
1784244746.112736,-0.006113541,0.003471880,0.858252645,0.000140616,0.000577911,-0.000474831,-0.000188626,-0.063479751,9.796815872
1784244746.114737,-0.006114180,0.003476192,0.858248293,0.000147938,0.001281191,-0.001340946,-0.021337187,-0.067327037,9.808875084
1784244746.116737,-0.006113822,0.003473866,0.858250320,0.000089195,0.001069044,-0.001127604,-0.051217671,-0.090527371,9.785833359
1784244746.118760,-0.006117519,0.003471582,0.858248413,-0.000049650,0.000428559,-0.000812580,-0.047555257,-0.082704008,9.813234329
1784244746.120744,-0.006119246,0.003474581,0.858238339,-0.000289536,0.000328543,-0.001411650,-0.060643520,-0.089215375,9.807353020
1784244746.122745,-0.006120255,0.003476260,0.858240068,-0.000336199,0.000450744,-0.001594051,-0.037560273,-0.074560530,9.784155846
1784244746.124743,-0.006117780,0.003472585,0.858240604,-0.000087534,0.000082312,-0.001006955,-0.033617850,-0.042642668,9.825161934
1784244746.126754,-0.006113429,0.003470214,0.858240008,0.000399601,-0.000350383,-0.000742157,-0.039152130,-0.057940710,9.781122208
1784244746.128751,-0.006111138,0.003475504,0.858239949,0.000761188,-0.000053475,-0.000581937,-0.044781554,-0.040452719,9.789298058
1784244746.130746,-0.006116577,0.003479868,0.858232319,0.000361711,0.000622935,-0.000951107,-0.042941641,-0.037282757,9.781250954
1784244746.132761,-0.006116449,0.003479353,0.858237922,-0.000188242,0.000666070,-0.000825821,-0.005454971,-0.017188706,9.786346436
1784244746.134752,-0.006113964,0.003477268,0.858234107,-0.000051827,0.000258062,-0.000465368,-0.030817229,-0.034121387,9.818942070
1784244746.136774,-0.006115459,0.003476286,0.858231664,0.000031012,-0.000017558,-0.000762295,-0.058146134,-0.069003195,9.795827866
1784244746.138756,-0.006116509,0.003470647,0.858238220,-0.000148485,-0.000508063,-0.000276577,-0.072362140,-0.092316099,9.823460579
1784244746.140754,-0.006113744,0.003469089,0.858240366,0.000008895,-0.000906377,0.000384373,-0.044930071,-0.051756676,9.804020882
1784244746.142795,-0.006112343,0.003466036,0.858237863,0.000217367,-0.001013800,0.000253275,0.002188499,-0.052322183,9.798682213
1784244746.144762,-0.006106405,0.003462587,0.858237267,0.000585259,-0.001219274,-0.000023113,-0.016305359,-0.023773326,9.786743164
1784244746.146758,-0.006100970,0.003461532,0.858239889,0.001197896,-0.001194787,0.000120044,0.001813966,-0.046867777,9.788406372
1784244746.148757,-0.006103293,0.003458755,0.858233929,0.001032512,-0.000970150,-0.000136524,-0.017505895,-0.048444200,9.792859077
1784244746.150756,-0.006107117,0.003463898,0.858234167,0.000284129,-0.000384755,-0.000484545,-0.019666890,-0.041279875,9.797388077
1784244746.152759,-0.006104552,0.003466016,0.858231246,0.000066035,0.000234945,-0.000537909,-0.052582584,-0.054689739,9.789199829
1784244746.154758,-0.006104162,0.003467136,0.858227670,0.000194109,0.000414857,-0.000830566,-0.030290339,-0.066236645,9.797665596
1784244746.156765,-0.006106960,0.003468555,0.858228266,-0.000021283,0.000475815,-0.000809971,-0.045911264,-0.060917068,9.770785332
1784244746.158765,-0.006107752,0.003469270,0.858229816,-0.000270780,0.000393124,-0.000452838,-0.036938190,-0.058608193,9.808018684
1784244746.160769,-0.006113484,0.003470191,0.858231843,-0.000652059,0.000298373,-0.000084869,-0.020692268,-0.052410170,9.789243698
1784244746.162770,-0.006116516,0.003468244,0.858232915,-0.001038401,0.000212740,0.000146823,-0.016895795,-0.071797363,9.799436569
1784244746.164772,-0.006117971,0.003470710,0.858232617,-0.001029017,0.000256213,0.000154195,-0.009898560,-0.050730869,9.785680771
1784244746.166780,-0.006123421,0.003472954,0.858237147,-0.001219279,0.000504559,0.000395132,-0.024402320,-0.061825410,9.796802521
1784244746.168775,-0.006134646,0.003472857,0.858241439,-0.001974489,0.000582247,0.000875978,-0.034703713,-0.059113517,9.812053680
1784244746.170779,-0.006137460,0.003472421,0.858246922,-0.002345981,0.000456482,0.001297745,-0.050785359,-0.054693654,9.786510468
1784244746.172777,-0.006131395,0.003471272,0.858249247,-0.001515610,0.000155775,0.001479219,-0.047309894,-0.061719805,9.823232651
1784244746.174780,-0.006130254,0.003467611,0.858248055,-0.000640757,-0.000279420,0.001159351,-0.063214362,-0.040906612,9.823351860
1784244746.176784,-0.006129350,0.003466073,0.858254015,-0.000329082,-0.000558495,0.001178749,-0.028287403,-0.048811413,9.800917625
1784244746.178784,-0.006128397,0.003473374,0.858266592,-0.000204727,-0.000028369,0.002117447,-0.033007465,-0.067209356,9.813348770
1784244746.180786,-0.006125003,0.003480825,0.858268201,0.000055945,0.000969843,0.002498077,-0.025935140,-0.039471123,9.806359291
1784244746.182786,-0.006122819,0.003481897,0.858266771,0.000316323,0.001324042,0.001834702,-0.019881973,-0.022408880,9.790334702
1784244746.184791,-0.006121150,0.003477435,0.858269691,0.000388542,0.000772822,0.001437004,-0.052126057,-0.054228451,9.786512375
1784244746.186795,-0.006113058,0.003476350,0.858266473,0.000945727,0.000186606,0.001020695,-0.065929778,-0.046323597,9.770858765
1784244746.188794,-0.006110609,0.003484224,0.858266234,0.001413993,0.000462180,0.000504811,-0.063110873,-0.072005734,9.785940170
1784244746.190800,-0.006114672,0.003491491,0.858269393,0.000928472,0.001227164,0.000564068,-0.028131362,-0.038663745,9.759736061
1784244746.192793,-0.006114677,0.003488969,0.858271956,0.000297454,0.001264243,0.000802467,0.000740885,-0.061616737,9.785171509
