time_sec,roll_rad,pitch_rad,yaw_rad,gyro_x,gyro_y,gyro_z,acc_x,acc_y,acc_z
1784245492.964370,-0.005960009,-0.000269785,-0.304162621,-0.000738416,-0.000164722,0.001454664,-0.001662806,-0.035394188,9.819410324
1784245492.966329,-0.005959026,-0.000269427,-0.304162621,-0.000337073,-0.000292044,0.002058191,0.023033364,-0.035977121,9.793876648
1784245492.968301,-0.005959026,-0.000269427,-0.304162621,0.000008634,-0.000667714,0.001575721,0.015090619,-0.025900843,9.777343750
1784245492.970344,-0.005959026,-0.000269427,-0.304162621,0.000171275,-0.000884877,0.000971694,-0.010198858,-0.037801020,9.795178413
1784245492.972336,-0.005958085,-0.000269392,-0.304162621,0.000398772,-0.000885359,0.001038169,0.007114896,-0.054485336,9.778946877
1784245492.974327,-0.005958085,-0.000269392,-0.304162621,0.000258171,-0.000792301,0.001068578,0.040961146,-0.036772698,9.810476303
1784245492.976299,-0.005957434,-0.000270420,-0.304162592,0.000048549,-0.000702588,0.000639387,0.045266680,-0.052041788,9.807692528
1784245492.978298,-0.005957434,-0.000270420,-0.304162592,0.000150774,-0.000565329,-0.000105712,0.027960176,-0.035300240,9.815853119
1784245492.980323,-0.005957434,-0.000270420,-0.304162592,-0.000171527,-0.000336060,-0.000485953,0.007733637,-0.039775133,9.788457870
1784245492.982328,-0.005957352,-0.000270747,-0.304162592,-0.000496329,-0.000027065,-0.000274908,0.007738132,-0.037713394,9.813577652
1784245492.984329,-0.005957352,-0.000270747,-0.304162592,0.000095716,-0.000098556,-0.000175654,0.019735934,-0.082867622,9.841094971
1784245492.986350,-0.005958295,-0.000271195,-0.304162621,0.000811322,-0.000568900,0.000093342,0.013569585,-0.074580744,9.820967674
1784245492.988311,-0.005958295,-0.000271195,-0.304162621,0.000736707,-0.000798339,0.000487557,0.019514410,-0.064047508,9.841215134
1784245492.990310,-0.005958295,-0.000271195,-0.304162621,0.000412075,-0.000995246,0.000232588,0.008648717,-0.035999816,9.823003769
1784245492.992297,-0.005956817,-0.000271154,-0.304162592,0.000156682,-0.001210594,0.000064468,0.015806839,-0.036663778,9.840491295
1784245492.994265,-0.005956817,-0.000271154,-0.304162592,0.000103530,-0.000705149,0.000306931,0.015354851,-0.038710233,9.814025879
1784245492.996256,-0.005956268,-0.000270966,-0.304162592,0.000228974,-0.000177490,0.000611075,-0.004816673,-0.037482467,9.803702354
1784245492.998288,-0.005956268,-0.000270966,-0.304162592,-0.000082325,-0.000221399,0.000937925,0.016782081,-0.069598034,9.807551384
1784245493.000274,-0.005956268,-0.000270966,-0.304162592,-0.000508084,-0.000269018,0.001139526,0.005978290,-0.074193664,9.780164719
1784245493.002270,-0.005957160,-0.000271426,-0.304162592,-0.000349048,-0.000450991,0.000997485,0.000627191,-0.034650642,9.773687363
1784245493.004259,-0.005957160,-0.000271426,-0.304162592,-0.000017107,-0.000658104,0.000930042,0.034871098,-0.021804562,9.795771599
1784245493.006266,-0.005955750,-0.000272668,-0.304162592,-0.000003977,-0.000142761,0.001245295,0.033910796,-0.027152697,9.793495178
1784245493.008268,-0.005955750,-0.000272668,-0.304162592,-0.000460576,0.000632672,0.001638908,0.018743817,-0.056550667,9.796428680
1784245493.010261,-0.005955750,-0.000272668,-0.304162592,-0.000833066,0.000821010,0.001761023,-0.016520116,-0.079269014,9.778317451
1784245493.012292,-0.005955989,-0.000272341,-0.304162592,-0.000619178,0.000560540,0.001270880,-0.002650106,-0.081382178,9.798491478
1784245493.014279,-0.005955989,-0.000272341,-0.304162592,0.000150879,0.000345504,0.001022962,0.048574701,-0.038605046,9.802402496
1784245493.016268,-0.005954584,-0.000274034,-0.304162592,0.001220634,0.000434912,0.000916742,0.019697845,-0.016093649,9.776066780
1784245493.018266,-0.005954584,-0.000274034,-0.304162592,0.001549648,0.000579220,0.000460001,-0.002089749,-0.032379899,9.837363243
1784245493.020271,-0.005954584,-0.000274034,-0.304162592,0.001063233,0.000492193,0.000449977,0.011932092,-0.062373769,9.808491707
1784245493.022274,-0.005954359,-0.000274048,-0.304162592,0.000888725,0.000354416,0.000514754,0.013999592,-0.040386256,9.800114632
1784245493.024276,-0.005954359,-0.000274048,-0.304162592,0.000708183,0.000291728,0.000381550,-0.019870859,-0.019889636,9.814113617
1784245493.026273,-0.005952866,-0.000273457,-0.304162592,0.000285509,0.000016871,0.000011996,0.010204958,-0.021389779,9.781851768
1784245493.028288,-0.005952866,-0.000273457,-0.304162592,0.000117143,-0.000740404,-0.000657242,0.015237171,-0.050175980,9.788396835
1784245493.030357,-0.005952866,-0.000273457,-0.304162592,-0.000044466,-0.001421298,-0.000549847,0.015910055,-0.031796247,9.785825729
1784245493.032304,-0.005951874,-0.000273756,-0.304162592,-0.000032092,-0.001454620,0.000162987,0.021936871,-0.050100431,9.828754425
1784245493.034290,-0.005951874,-0.000273756,-0.304162592,-0.000072309,-0.001133059,0.000142573,0.022390047,-0.053718109,9.769551277
1784245493.036328,-0.005951546,-0.000274389,-0.304162592,-0.000461718,-0.000856156,-0.000323928,0.019722059,-0.051466070,9.772702217
1784245493.038356,-0.005951546,-0.000274389,-0.304162592,-0.000891053,-0.000672968,-0.000321119,0.005221933,-0.059695158,9.821950912
1784245493.040328,-0.005951546,-0.000274389,-0.304162592,-0.001024478,-0.000597662,0.000041924,0.009515844,-0.041113403,9.784414291
1784245493.042302,-0.005951121,-0.000274449,-0.304162592,-0.000863973,-0.000183826,0.000019978,0.028270485,-0.047340527,9.807257652
1784245493.044310,-0.005951121,-0.000274449,-0.304162592,-0.000833629,0.000373338,-0.000446018,0.001996476,-0.069643229,9.777500153
1784245493.046299,-0.005952058,-0.000274074,-0.304162592,-0.000674688,0.000127788,-0.000463971,0.020098781,-0.056497958,9.786568642
1784245493.048299,-0.005952058,-0.000274074,-0.304162592,-0.000238350,-0.000434525,-0.000153743,0.030355247,-0.059159342,9.827358246
1784245493.050296,-0.005952058,-0.000274074,-0.304162592,-0.000098653,-0.000643034,-0.000125478,0.012076695,-0.049884912,9.816191673
1784245493.052340,-0.005952243,-0.000275159,-0.304162592,-0.000122792,-0.000721909,-0.000050525,-0.011880122,-0.024723930,9.849507332
1784245493.054333,-0.005952243,-0.000275159,-0.304162592,-0.000018305,-0.001159664,0.000164619,0.004559125,-0.040405434,9.819831848
1784245493.056315,-0.005951935,-0.000275078,-0.304162592,-0.000031196,-0.001439060,-0.000093764,-0.000852293,-0.043386314,9.807703018
1784245493.058354,-0.005951935,-0.000275078,-0.304162592,-0.000526387,-0.001526376,-0.000769517,-0.005070264,-0.058936905,9.796839714
1784245493.060324,-0.005951935,-0.000275078,-0.304162592,-0.000941085,-0.001536179,-0.001135219,-0.002162737,-0.078245826,9.797616005
1784245493.062371,-0.005952479,-0.000275012,-0.304162592,-0.001272830,-0.000843800,-0.000946483,0.007780924,-0.073749617,9.777479172
1784245493.064336,-0.005952479,-0.000275012,-0.304162592,-0.001619448,-0.000031737,-0.000897703,0.012210364,-0.039508674,9.805948257
1784245493.066330,-0.005951676,-0.000274897,-0.304162592,-0.001712641,0.000216914,-0.000990187,0.049711227,-0.058513444,9.764615059
1784245493.068336,-0.005951676,-0.000274897,-0.304162592,-0.001946430,0.000164193,-0.000788350,0.023111906,-0.064436525,9.826421738
1784245493.070328,-0.005951676,-0.000274897,-0.304162592,-0.002046094,-0.000001745,-0.000515550,0.003447377,-0.023543350,9.781831741
1784245493.072334,-0.005950580,-0.000274638,-0.304162592,-0.001469639,-0.000326733,-0.000461338,0.009413825,-0.048808232,9.795573235
1784245493.074331,-0.005950580,-0.000274638,-0.304162592,-0.000774887,-0.000364692,-0.001034063,0.021758771,-0.067716800,9.786048889
1784245493.076327,-0.005951177,-0.000274952,-0.304162592,-0.000243542,0.000325691,-0.001176469,0.016870517,-0.063631445,9.787415504
1784245493.078329,-0.005951177,-0.000274952,-0.304162592,-0.000147274,0.000845335,-0.000558507,-0.005002175,-0.049889021,9.847558022
1784245493.080329,-0.005951177,-0.000274952,-0.304162592,-0.000682818,0.000507243,0.000410220,0.017899813,-0.050849218,9.815295219
1784245493.082325,-0.005950958,-0.000274803,-0.304162592,-0.000932656,-0.000066654,0.001457309,0.063003838,-0.032152269,9.814113617
1784245493.084333,-0.005950958,-0.000274803,-0.304162592,-0.000587429,-0.000465445,0.001083783,0.019129004,-0.023925815,9.807399750
1784245493.086365,-0.005949263,-0.000275238,-0.304162592,-0.000367149,-0.000532993,-0.000270242,-0.004581268,-0.018197874,9.800688744
1784245493.088437,-0.005949263,-0.000275238,-0.304162592,-0.000855063,-0.000323885,-0.001147916,0.023735426,-0.014124980,9.807018280
1784245493.090365,-0.005949263,-0.000275238,-0.304162592,-0.001141937,-0.000374377,-0.001120396,0.007155175,-0.051330525,9.776277542
1784245493.092388,-0.005948746,-0.000275435,-0.304162621,-0.000882723,-0.000525975,-0.000811415,0.023887549,-0.075135507,9.817386627
1784245493.094352,-0.005948746,-0.000275435,-0.304162621,-0.000601912,-0.000440852,-0.000350416,0.022279682,-0.097852983,9.801548004
1784245493.096359,-0.005950840,-0.000276560,-0.304162621,0.000070637,-0.000529209,0.000201945,0.012847213,-0.096998490,9.824410439
1784245493.098347,-0.005950840,-0.000276560,-0.304162621,0.000381868,-0.000446328,0.000388248,-0.000039015,-0.050546113,9.804969788
1784245493.100347,-0.005950840,-0.000276560,-0.304162621,-0.000073499,0.000001491,0.000182059,-0.010399805,-0.091971904,9.789450645
1784245493.102347,-0.005951925,-0.000275756,-0.304162592,-0.000004235,0.000611719,-0.000020084,0.023310980,-0.087891690,9.785024643
1784245493.104357,-0.005951925,-0.000275756,-0.304162592,0.000859833,0.001152607,0.000303833,0.019924780,-0.034465797,9.775948524
1784245493.106354,-0.005950050,-0.000276219,-0.304162621,0.001701181,0.001111378,0.000700182,0.006551692,-0.062272981,9.804002762
1784245493.108347,-0.005950050,-0.000276219,-0.304162621,0.001821752,0.000655887,0.000787195,0.011324572,-0.041431740,9.762894630
1784245493.110347,-0.005950050,-0.000276219,-0.304162621,0.001402153,0.000221433,0.000867257,0.031508587,-0.039724093,9.801481247
1784245493.112346,-0.005948648,-0.000277489,-0.304162621,0.001149546,-0.000098624,0.001413044,0.013664662,-0.027729861,9.848167419
1784245493.114357,-0.005948648,-0.000277489,-0.304162621,0.000749458,-0.000169674,0.002172241,-0.006009010,0.014306881,9.831830978
1784245493.116354,-0.005945568,-0.000276917,-0.304162621,0.000300098,0.000107577,0.002185335,0.003319936,0.004124696,9.797701836
1784245493.118353,-0.005945568,-0.000276917,-0.304162621,0.000481354,0.000310154,0.001202837,0.009957993,-0.039549883,9.815808296
1784245493.120356,-0.005945568,-0.000276917,-0.304162621,0.000483461,0.000205482,0.000756262,-0.014585189,-0.066028051,9.803061485
1784245493.122358,-0.005946047,-0.000276488,-0.304162621,0.000210250,-0.000086898,0.000934747,-0.013389150,-0.078172058,9.807468414
1784245493.124358,-0.005946047,-0.000276488,-0.304162621,0.000160233,-0.000045305,0.000380458,0.016109262,-0.051197872,9.804532051
1784245493.126359,-0.005945195,-0.000276582,-0.304162621,0.000162731,0.000131667,-0.000527908,0.018945731,-0.039556757,9.800574303
1784245493.128377,-0.005945195,-0.000276582,-0.304162621,-0.000185131,-0.000258944,-0.000976471,0.027680065,-0.023021476,9.790824890
1784245493.130413,-0.005945195,-0.000276582,-0.304162621,-0.000835097,-0.000483678,-0.001556267,0.014121287,-0.066478677,9.814743042
1784245493.132409,-0.005945083,-0.000277496,-0.304162621,-0.000890708,-0.000489133,-0.002103459,0.000113512,-0.076800331,9.779244423
1784245493.134378,-0.005945083,-0.000277496,-0.304162621,-0.000479154,-0.000322749,-0.001724187,0.010697899,-0.054988824,9.780291557
1784245493.136396,-0.005945314,-0.000278236,-0.304162621,-0.000392116,0.000318968,-0.000831568,0.007079167,-0.091141582,9.830269814
1784245493.138369,-0.005945314,-0.000278236,-0.304162621,-0.000350125,0.000463139,-0.000255347,0.021564180,-0.045036741,9.810403824
1784245493.140370,-0.005945314,-0.000278236,-0.304162621,-0.000124990,-0.000005035,-0.000632741,-0.005519769,-0.058937512,9.797736168
1784245493.142376,-0.005945253,-0.000277608,-0.304162621,-0.000031110,-0.000182239,-0.001087384,0.023933183,-0.070722662,9.826828957
1784245493.144378,-0.005945253,-0.000277608,-0.304162621,0.000258520,0.000152271,-0.001090720,0.031682469,-0.062972948,9.794158936
1784245493.146378,-0.005945214,-0.000278945,-0.304162621,0.000614035,0.000516631,-0.000478487,0.035229228,-0.029009478,9.800209045
1784245493.148378,-0.005945214,-0.000278945,-0.304162621,0.000760775,0.000563630,0.000561833,0.010159148,-0.026209248,9.766576767
1784245493.150385,-0.005945214,-0.000278945,-0.304162621,0.000687557,0.000514020,0.000632973,0.018921155,-0.042587563,9.785758972
1784245493.152385,-0.005944520,-0.000279072,-0.304162621,0.000438232,0.000539857,-0.000271915,0.013854420,-0.050448079,9.829191208
1784245493.154387,-0.005944520,-0.000279072,-0.304162621,0.000223343,0.000881473,-0.000676645,0.017473608,-0.049855337,9.802299500
1784245493.156384,-0.005943974,-0.000279870,-0.304162621,0.000138768,0.001198680,-0.000501644,0.002366136,-0.036735758,9.811784744
1784245493.158426,-0.005943974,-0.000279870,-0.304162621,0.000475574,0.001409680,-0.000734673,0.029905848,-0.060780097,9.804034233
1784245493.160393,-0.005943974,-0.000279870,-0.304162621,0.000883325,0.001438301,-0.001338114,0.026302015,-0.062062092,9.801781654
1784245493.162414,-0.005943711,-0.000280981,-0.304162621,0.000735937,0.000526989,-0.001621148,-0.026759584,-0.068773627,9.833070755
1784245493.164392,-0.005943711,-0.000280981,-0.304162621,0.000172574,-0.000474735,-0.001703580,0.014226755,-0.059161857,9.793719292
1784245493.166392,-0.005943226,-0.000282193,-0.304162621,-0.000285372,-0.000644333,-0.002031362,0.032423429,-0.038382169,9.800146103
1784245493.168407,-0.005943226,-0.000282193,-0.304162621,-0.000415451,-0.000390656,-0.002502397,0.027124567,-0.031558793,9.795252800
1784245493.170398,-0.005943226,-0.000282193,-0.304162621,-0.000547539,-0.000348451,-0.003008860,0.029946931,-0.057618938,9.800468445
1784245493.172395,-0.005943105,-0.000283927,-0.304162621,-0.000897396,-0.000281297,-0.002998926,0.006603878,-0.059429411,9.782052040
1784245493.174405,-0.005943105,-0.000283927,-0.304162621,-0.000789683,-0.000058728,-0.002593006,0.020163272,-0.088715576,9.780532837
1784245493.176407,-0.005944498,-0.000285006,-0.304162651,-0.000441370,0.000027065,-0.002062620,0.020640416,-0.048475381,9.791551590
1784245493.178414,-0.005944498,-0.000285006,-0.304162651,-0.000479779,-0.000142161,-0.001533580,-0.002478172,-0.067867026,9.787818909
1784245493.180401,-0.005944498,-0.000285006,-0.304162651,-0.000690415,-0.000443241,-0.001185565,-0.018703895,-0.037126180,9.778585434
1784245493.182405,-0.005943783,-0.000283842,-0.304162621,-0.001042993,-0.000696094,-0.000986698,0.018882316,-0.046136267,9.780804634
1784245493.184463,-0.005943783,-0.000283842,-0.304162621,-0.000811937,-0.000973669,-0.001148451,0.021120766,-0.045799728,9.792466164
1784245493.186424,-0.005942856,-0.000284487,-0.304162651,0.000024842,-0.001184305,-0.001066702,0.014424536,-0.040579606,9.826565742
1784245493.188420,-0.005942856,-0.000284487,-0.304162651,0.000836330,-0.000947157,-0.000481148,0.017924435,-0.051465325,9.775837898
1784245493.190413,-0.005942856,-0.000284487,-0.304162651,0.001501433,-0.000648535,-0.000162071,0.010591973,-0.026745632,9.778230667
1784245493.192413,-0.005941329,-0.000284191,-0.304162651,0.001857648,-0.000731610,-0.000581371,0.001195759,-0.022768127,9.802906036
1784245493.194456,-0.005941329,-0.000284191,-0.304162651,0.001806677,-0.000971762,-0.000400921,-0.006163073,-0.039088536,9.779929161
1784245493.196432,-0.005940052,-0.000284850,-0.304162651,0.001315504,-0.001304583,-0.000144704,0.020542944,-0.054918539,9.815720558
1784245493.198469,-0.005940052,-0.000284850,-0.304162651,0.001083426,-0.001760512,-0.000590856,0.018013915,-0.043059003,9.790687561
1784245493.200438,-0.005940052,-0.000284850,-0.304162651,0.000921420,-0.001409644,-0.000767641,0.022756580,-0.060046189,9.776684761
1784245493.202421,-0.005939795,-0.000285640,-0.304162651,0.000054510,-0.000244234,-0.001181378,0.028814297,-0.041732270,9.773669243
1784245493.204432,-0.005939795,-0.000285640,-0.304162651,-0.000325060,0.000406592,-0.001898675,0.017617919,-0.038989797,9.786228180
1784245493.206431,-0.005939264,-0.000286012,-0.304162651,0.000411911,0.000942445,-0.002527576,0.017988306,-0.080445826,9.818692207
1784245493.208425,-0.005939264,-0.000286012,-0.304162651,0.000570679,0.001515881,-0.002822838,-0.009649413,-0.066901371,9.790956497
1784245493.210426,-0.005939264,-0.000286012,-0.304162651,-0.000081358,0.001360503,-0.002157807,-0.018196966,-0.068993784,9.785554886
1784245493.212455,-0.005940231,-0.000285007,-0.304162651,-0.000179449,0.001113712,-0.001095827,-0.007122620,-0.043620240,9.788866043
1784245493.214440,-0.005940231,-0.000285007,-0.304162651,0.000313692,0.001200927,-0.000825252,0.000669186,-0.067856394,9.780647278
1784245493.216439,-0.005940046,-0.000284782,-0.304162651,0.000655014,0.001212539,-0.000935339,-0.018228831,-0.033681780,9.797436714
1784245493.218431,-0.005940046,-0.000284782,-0.304162651,0.001027770,0.001055897,-0.000727430,-0.006387027,-0.057877466,9.776221275
1784245493.220433,-0.005940046,-0.000284782,-0.304162651,0.001007384,0.000780615,-0.000198245,0.039093882,-0.043805789,9.794737816
1784245493.222440,-0.005939367,-0.000285546,-0.304162651,0.000379394,0.000765682,0.000349788,0.038226638,-0.039908905,9.815384865
1784245493.224448,-0.005939367,-0.000285546,-0.304162651,-0.000004020,0.000986001,0.001075362,0.008281995,-0.067668326,9.803522110
1784245493.226437,-0.005940041,-0.000285586,-0.304162651,-0.000157402,0.000916025,0.000808572,-0.038458120,-0.070905291,9.838874817
1784245493.228441,-0.005940041,-0.000285586,-0.304162651,-0.000001606,0.000380280,-0.000055975,-0.031522114,-0.055995781,9.808938980
1784245493.230447,-0.005940041,-0.000285586,-0.304162651,0.000506926,-0.000178692,-0.000288961,0.012852756,-0.022990739,9.813228607
1784245493.232447,-0.005939076,-0.000286304,-0.304162651,0.000679358,-0.000529101,-0.000566997,0.011583485,0.022517612,9.842658997
1784245493.234443,-0.005939076,-0.000286304,-0.304162651,0.000354549,-0.000600518,-0.000606769,0.008729570,0.006686243,9.805791855
1784245493.236442,-0.005936797,-0.000286305,-0.304162651,-0.000292395,-0.000039025,-0.000163629,0.016886352,-0.024700776,9.794389725
1784245493.238454,-0.005936797,-0.000286305,-0.304162651,-0.001270081,0.000375035,0.000230624,0.012875293,-0.060402647,9.781604767
1784245493.240451,-0.005936797,-0.000286305,-0.304162651,-0.001570235,0.000225127,0.000046626,0.022227550,-0.066753499,9.775744438
1784245493.242453,-0.005937136,-0.000286488,-0.304162651,-0.001176386,-0.000088786,-0.000069531,0.042747475,-0.077289276,9.771213531
1784245493.244447,-0.005937136,-0.000286488,-0.304162651,-0.000815659,-0.000156935,-0.000044827,-0.004008064,-0.081863761,9.805660248
1784245493.246456,-0.005937564,-0.000285296,-0.304162651,-0.000493523,0.000260870,-0.000042184,-0.036019549,-0.056831036,9.808480263
1784245493.248458,-0.005937564,-0.000285296,-0.304162651,-0.000314908,0.000386181,-0.000095501,-0.014195233,-0.035391826,9.778599739
1784245493.250455,-0.005937564,-0.000285296,-0.304162651,0.000174332,0.000082263,-0.000894148,0.007104372,-0.053757932,9.802713394
1784245493.252461,-0.005937356,-0.000285422,-0.304162651,0.000656732,-0.000211940,-0.001566419,0.005423499,-0.043514498,9.814435005
1784245493.254461,-0.005937356,-0.000285422,-0.304162651,0.000445174,-0.000321607,-0.000522069,0.013129917,-0.039345291,9.781291008
1784245493.256464,-0.005936839,-0.000285746,-0.304162651,0.000237900,-0.000223146,0.000600674,0.010797110,-0.009726286,9.778789520
1784245493.258530,-0.005936839,-0.000285746,-0.304162651,0.000017276,-0.000038799,0.000787285,0.029737538,-0.039513502,9.775030136
1784245493.260485,-0.005936839,-0.000285746,-0.304162651,-0.000326495,-0.000048295,0.001210965,0.029563017,-0.053454347,9.782562256
1784245493.262488,-0.005936309,-0.000287104,-0.304162651,-0.000200142,-0.000329154,0.001500633,0.033709794,-0.080513515,9.799877167
1784245493.264482,-0.005936309,-0.000287104,-0.304162651,-0.000143172,-0.000425604,0.001748303,-0.019680070,-0.077758074,9.823605537
1784245493.266475,-0.005936740,-0.000285915,-0.304162651,-0.000205141,-0.000044439,0.001876923,-0.033652723,-0.045349516,9.827835083
1784245493.268474,-0.005936740,-0.000285915,-0.304162651,-0.000064855,0.000558100,0.001503379,0.009902688,-0.046875875,9.774963379
1784245493.270486,-0.005936740,-0.000285915,-0.304162651,-0.000269677,0.000913677,0.000688750,0.049754120,0.020246994,9.778121948
1784245493.272484,-0.005934182,-0.000287881,-0.304162651,-0.000638544,0.000835640,-0.000322118,0.030010479,0.022520373,9.809052467
1784245493.274479,-0.005934182,-0.000287881,-0.304162651,-0.000656080,0.000718654,-0.000498854,0.004339896,-0.022782931,9.799322128
1784245493.276477,-0.005932841,-0.000288028,-0.304162651,-0.000415920,0.000700265,-0.000229690,0.030119777,-0.045717571,9.764678955
1784245493.278485,-0.005932841,-0.000288028,-0.304162651,0.000408962,0.000519972,-0.000376489,0.052737456,-0.069590561,9.741683006
1784245493.280495,-0.005932841,-0.000288028,-0.304162651,0.001060998,0.000100091,-0.000484957,0.018814579,-0.089124031,9.777391434
1784245493.282482,-0.005933546,-0.000289070,-0.304162651,0.000682283,-0.000486784,-0.000205860,-0.011292899,-0.093142137,9.766576767
1784245493.284489,-0.005933546,-0.000289070,-0.304162651,0.000352980,-0.000876635,-0.000182934,-0.033379022,-0.098916017,9.799246788
1784245493.286503,-0.005934475,-0.000287754,-0.304162651,0.000171048,-0.000801721,-0.000091934,0.008967311,-0.048379958,9.799161911
1784245493.288511,-0.005934475,-0.000287754,-0.304162651,0.000054270,-0.000805741,0.000696130,0.011918926,-0.026508875,9.805582047
1784245493.290504,-0.005934475,-0.000287754,-0.304162651,0.000310735,-0.000974898,0.001360101,-0.007852728,0.010701681,9.838082314
1784245493.292493,-0.005932284,-0.000287165,-0.304162651,0.000281200,-0.000971792,0.002169091,0.011955418,0.013800651,9.807634354
1784245493.294499,-0.005932284,-0.000287165,-0.304162651,-0.000024538,-0.000551044,0.002525637,0.044200286,-0.029553352,9.797523499
1784245493.296503,-0.005931451,-0.000288450,-0.304162651,-0.000207354,-0.000077880,0.001955986,0.066651508,-0.029713629,9.779611588
1784245493.298500,-0.005931451,-0.000288450,-0.304162651,-0.000688310,-0.000037857,0.001935891,0.039573021,-0.078729630,9.790479660
1784245493.300499,-0.005931451,-0.000288450,-0.304162651,-0.001289604,0.000192107,0.001903921,-0.024192592,-0.081954442,9.791742325
1784245493.302580,-0.005932320,-0.000287895,-0.304162651,-0.001509688,0.000289824,0.001140463,-0.033662986,-0.051509310,9.748888969
1784245493.304509,-0.005932320,-0.000287895,-0.304162651,-0.001561909,0.000306401,0.000493901,-0.017852873,-0.077120073,9.793571472
1784245493.306509,-0.005933157,-0.000287311,-0.304162651,-0.001328742,0.000368111,0.000258269,0.003837213,-0.063630067,9.810715675
1784245493.308502,-0.005933157,-0.000287311,-0.304162651,-0.000908934,0.000122274,0.000103442,0.015503646,-0.028619792,9.780914307
1784245493.310504,-0.005933157,-0.000287311,-0.304162651,-0.000456632,0.000068816,-0.000206986,0.022925764,-0.044526529,9.799201012
1784245493.312518,-0.005933040,-0.000287266,-0.304162651,0.000037376,0.000260207,-0.000124703,0.051591542,-0.050971981,9.771839142
1784245493.314512,-0.005933040,-0.000287266,-0.304162651,-0.000000233,0.000544593,0.000476969,-0.005151917,-0.066876188,9.779303551
1784245493.316509,-0.005933909,-0.000286886,-0.304162651,-0.000657286,0.000976537,0.000590601,-0.004862720,-0.079488456,9.788190842
1784245493.318519,-0.005933909,-0.000286886,-0.304162651,-0.000975415,0.001021366,0.000365251,-0.005130175,-0.101457618,9.790739059
1784245493.320514,-0.005933909,-0.000286886,-0.304162651,-0.000999688,0.000380061,0.001136354,-0.010534211,-0.065574609,9.794999123
1784245493.322517,-0.005934174,-0.000285976,-0.304162651,-0.001468794,0.000129198,0.002438708,0.003255474,-0.039647698,9.778590202
1784245493.324514,-0.005934174,-0.000285976,-0.304162651,-0.001732411,0.000450467,0.003245976,-0.010687877,-0.002550038,9.816474915
1784245493.326516,-0.005932473,-0.000285042,-0.304162651,-0.001531990,0.000141739,0.003596989,-0.005813732,-0.009583520,9.788637161
1784245493.328519,-0.005932473,-0.000285042,-0.304162651,-0.001263694,-0.000567916,0.003435000,-0.017088024,-0.013535032,9.797567368
1784245493.330517,-0.005932473,-0.000285042,-0.304162651,-0.000844377,-0.000597122,0.002634097,0.026598081,0.000559644,9.816082001
1784245493.332517,-0.005929484,-0.000285759,-0.304162651,-0.000661974,-0.000380648,0.001654637,0.027632713,0.008926230,9.771751404
1784245493.334522,-0.005929484,-0.000285759,-0.304162651,-0.000946870,-0.000363433,0.001102130,0.007671561,-0.042291574,9.827445984
1784245493.336520,-0.005929830,-0.000285683,-0.304162651,-0.001368721,-0.000166819,0.000411491,-0.019095916,-0.066968240,9.817398071
1784245493.338557,-0.005929830,-0.000285683,-0.304162651,-0.001275603,0.000153968,-0.000396888,0.008308869,-0.065835156,9.797704697
1784245493.340525,-0.005929830,-0.000285683,-0.304162651,-0.001246052,0.000277641,-0.000589317,0.034826081,-0.098960750,9.808727264
1784245493.342529,-0.005930667,-0.000286790,-0.304162651,-0.001496733,0.000315565,-0.000549705,0.025428249,-0.097832814,9.793032646
1784245493.344529,-0.005930667,-0.000286790,-0.304162651,-0.001066994,0.000120599,-0.000521115,-0.000037001,-0.050530218,9.802726746
1784245493.346528,-0.005929563,-0.000286680,-0.304162651,-0.000393254,-0.000167654,-0.000771307,0.022009071,-0.048314575,9.766447067
1784245493.348526,-0.005929563,-0.000286680,-0.304162651,-0.000498951,-0.000388435,-0.001080939,0.017903775,-0.052844189,9.780760765
1784245493.350538,-0.005929563,-0.000286680,-0.304162651,-0.000975713,-0.000567610,-0.000549064,0.021139061,-0.045250017,9.778121948
1784245493.352535,-0.005928530,-0.000286661,-0.304162651,-0.000851951,-0.000508103,0.000309555,0.035581365,-0.074662142,9.792742729
1784245493.354530,-0.005928530,-0.000286661,-0.304162651,-0.000559215,-0.000124952,0.000937266,0.033402771,-0.066421017,9.834937096
1784245493.356533,-0.005928105,-0.000287714,-0.304162651,-0.000556693,0.000644855,0.000999805,-0.005680011,-0.034770481,9.801925659
1784245493.358639,-0.005928105,-0.000287714,-0.304162651,-0.000556218,0.001009666,0.000719338,0.001352378,-0.046963777,9.802751541
1784245493.360564,-0.005928105,-0.000287714,-0.304162651,-0.000634427,0.000665298,0.000349030,-0.007860626,-0.064135224,9.839843750
1784245493.362574,-0.005928267,-0.000287505,-0.304162651,-0.000927469,0.000204305,-0.000463835,-0.021975024,-0.047840182,9.778962135
1784245493.364563,-0.005928267,-0.000287505,-0.304162651,-0.001049467,-0.000059738,-0.001181817,-0.006318994,-0.013266385,9.803408623
1784245493.366548,-0.005926193,-0.000287813,-0.304162651,-0.001028461,0.000047840,-0.000908733,0.022643890,0.007759694,9.818815231
1784245493.368560,-0.005926193,-0.000287813,-0.304162651,-0.001010841,0.000394623,-0.000455571,0.052260239,-0.030193828,9.810081482
1784245493.370552,-0.005926193,-0.000287813,-0.304162651,-0.000345933,0.000573314,-0.000955205,0.025279224,-0.072766684,9.796780586
1784245493.372558,-0.005926806,-0.000289561,-0.304162651,0.000496005,0.000269312,-0.001591812,-0.002644591,-0.082554355,9.774274826
1784245493.374604,-0.005926806,-0.000289561,-0.304162651,0.000146768,-0.000302973,-0.001860488,0.002354326,-0.075634636,9.800326347
1784245493.376644,-0.005927766,-0.000289670,-0.304162651,-0.000609689,-0.000336259,-0.002090979,0.022331920,-0.095819473,9.767487526
1784245493.378584,-0.005927766,-0.000289670,-0.304162651,-0.000630481,0.000139081,-0.002471885,-0.011977381,-0.071997344,9.818717003
1784245493.380607,-0.005927766,-0.000289670,-0.304162651,-0.000216015,0.000224756,-0.002100275,-0.014723340,-0.040876072,9.794704437
1784245493.382570,-0.005926919,-0.000288618,-0.304162651,0.000314339,-0.000134699,-0.000947010,0.026644900,-0.035444785,9.775502205
1784245493.384568,-0.005926919,-0.000288618,-0.304162651,0.000753355,-0.000593678,-0.000342557,0.041693170,-0.051868610,9.789757729
1784245493.386570,-0.005926992,-0.000289821,-0.304162651,0.000768340,-0.000813326,-0.000461670,0.040585149,-0.071351171,9.759143829
1784245493.388584,-0.005926992,-0.000289821,-0.304162651,0.000440602,-0.000537263,-0.000618759,-0.009069345,-0.058170103,9.759181023
1784245493.390583,-0.005926992,-0.000289821,-0.304162651,0.000242272,0.000111840,-0.000477911,0.036438048,-0.039431591,9.814489365
1784245493.392576,-0.005926289,-0.000291163,-0.304162681,-0.000117926,0.000712692,-0.000320779,0.027086530,-0.035101142,9.789401054
1784245493.394573,-0.005926289,-0.000291163,-0.304162681,-0.000602002,0.000790710,0.000134319,0.034880009,-0.057297803,9.809442520
1784245493.396569,-0.005926821,-0.000292194,-0.304162681,-0.000556382,0.000879581,0.000412508,-0.018754359,-0.076330297,9.810165405
1784245493.398574,-0.005926821,-0.000292194,-0.304162681,-0.000721672,0.000877344,0.000145131,-0.032278255,-0.044737555,9.802284241
1784245493.400575,-0.005926821,-0.000292194,-0.304162681,-0.000994885,0.000173955,0.000180870,-0.026672058,-0.061193265,9.838050842
1784245493.402578,-0.005926607,-0.000290409,-0.304162681,-0.000691531,-0.000686190,0.000259922,0.021937557,-0.051310766,9.809916496
1784245493.404579,-0.005926607,-0.000290409,-0.304162681,-0.000302342,-0.000968087,-0.000420426,0.049285039,-0.017092761,9.800299644
1784245493.406579,-0.005924561,-0.000291820,-0.304162681,-0.000158451,-0.000791634,-0.001293235,0.018140441,-0.069113255,9.799935341
1784245493.408585,-0.005924561,-0.000291820,-0.304162681,0.000273749,-0.000416624,-0.001602242,0.005094642,-0.072047286,9.794971466
1784245493.410582,-0.005924561,-0.000291820,-0.304162681,0.000860938,0.000014074,-0.001573314,-0.008739977,-0.066007406,9.789616585
1784245493.412592,-0.005923925,-0.000291218,-0.304162681,0.000923039,0.000041354,-0.001157278,0.012835810,-0.066387929,9.741216660
1784245493.414595,-0.005923925,-0.000291218,-0.304162681,0.000219576,-0.000649782,-0.001003765,0.004175199,-0.073830806,9.795407295
1784245493.416595,-0.005924151,-0.000290949,-0.304162681,-0.000802229,-0.001435763,-0.000894316,0.004739274,-0.064010039,9.799507141
1784245493.418593,-0.005924151,-0.000290949,-0.304162681,-0.001157909,-0.001061896,-0.000267138,-0.012590116,-0.010669829,9.827628136
1784245493.420592,-0.005924151,-0.000290949,-0.304162681,-0.000811064,0.000050334,0.000123189,0.010659765,-0.019321065,9.805179596
1784245493.422607,-0.005922599,-0.000290552,-0.304162681,-0.000704344,0.000701270,0.000225900,0.019421805,-0.076936252,9.763570786
1784245493.424603,-0.005922599,-0.000290552,-0.304162681,-0.001302705,0.000516900,0.000277930,0.040804271,-0.087353528,9.803874016
1784245493.426600,-0.005923127,-0.000291967,-0.304162681,-0.001560063,0.000129892,0.000116138,0.005587932,-0.070079952,9.769430161
1784245493.428606,-0.005923127,-0.000291967,-0.304162681,-0.001346356,0.000114950,-0.000216222,0.000821909,-0.053277176,9.809434891
1784245493.430600,-0.005923127,-0.000291967,-0.304162681,-0.001331538,0.000465236,-0.000402399,-0.004990848,-0.050610062,9.822896957
1784245493.432599,-0.005922668,-0.000292009,-0.304162681,-0.001321742,0.000717880,-0.000122851,0.007588522,-0.050647032,9.805423737
1784245493.434615,-0.005922668,-0.000292009,-0.304162681,-0.000848464,0.000554365,0.000169860,0.003171762,-0.043955967,9.817566872
1784245493.436609,-0.005921731,-0.000292087,-0.304162681,-0.000339954,0.000523587,0.000365797,0.010623152,-0.060847294,9.785186768
1784245493.438606,-0.005921731,-0.000292087,-0.304162681,-0.000604843,0.000361476,0.000921939,0.022178816,-0.069975078,9.787829399
1784245493.440604,-0.005921731,-0.000292087,-0.304162681,-0.000583137,0.000077744,0.001543123,0.045162007,-0.062189087,9.785658836
1784245493.442609,-0.005921928,-0.000293550,-0.304162681,0.000139916,-0.000008591,0.001672511,0.035339575,-0.060054544,9.755176544
1784245493.444616,-0.005921928,-0.000293550,-0.304162681,0.000105049,-0.000295878,0.001186968,0.023600485,-0.026537523,9.788557053
1784245493.446614,-0.005920788,-0.000294558,-0.304162681,-0.000260349,-0.000177512,0.000834540,0.028900329,-0.032947920,9.798384666
1784245493.448616,-0.005920788,-0.000294558,-0.304162681,0.000069104,-0.000152700,0.000740871,0.015486264,-0.065536417,9.805784225
1784245493.450613,-0.005920788,-0.000294558,-0.304162681,0.000429813,-0.000605899,0.000995132,0.001560495,-0.067105509,9.799483299
1784245493.452616,-0.005921358,-0.000294813,-0.304162681,0.000100145,-0.000446449,0.001633441,-0.033008393,-0.068432413,9.796303749
1784245493.454623,-0.005921358,-0.000294813,-0.304162681,-0.000405095,0.000213206,0.001992738,-0.009638983,-0.028418664,9.797927856
1784245493.456618,-0.005920263,-0.000294872,-0.304162681,0.000074233,0.000433628,0.002091913,0.037652098,-0.015059228,9.787299156
1784245493.458673,-0.005920263,-0.000294872,-0.304162681,0.000670790,0.000034336,0.002035072,0.007315507,-0.033043984,9.850816727
1784245493.460638,-0.005920263,-0.000294872,-0.304162681,0.001017124,-0.000092604,0.001831971,-0.013251954,-0.028557088,9.823925972
1784245493.462628,-0.005920101,-0.000293615,-0.304162681,0.001889386,0.000294217,0.001687669,0.038801413,-0.030408900,9.801548958
1784245493.464628,-0.005920101,-0.000293615,-0.304162681,0.002671316,0.000754202,0.001619876,0.027042104,-0.074257568,9.814256668
1784245493.466633,-0.005921528,-0.000294104,-0.304162681,0.002729699,0.000591938,0.001386388,0.013893467,-0.087729618,9.779187202
1784245493.468639,-0.005921528,-0.000294104,-0.304162681,0.002222378,-0.000256979,0.000994728,-0.017030831,-0.044999804,9.811713219
1784245493.470637,-0.005921528,-0.000294104,-0.304162681,0.002075082,-0.000444163,0.000441387,0.005053047,-0.038838360,9.787563324
1784245493.472631,-0.005921043,-0.000293274,-0.304162681,0.002338006,0.000260119,0.000260177,0.041126274,-0.061711643,9.788797379
1784245493.474641,-0.005921043,-0.000293274,-0.304162681,0.002314323,0.000989942,0.000381758,0.000817936,-0.054119043,9.801807404
1784245493.476641,-0.005921137,-0.000292327,-0.304162681,0.001570454,0.001188125,0.000359006,-0.023341967,-0.049608413,9.778051376
1784245493.478637,-0.005921137,-0.000292327,-0.304162681,0.000642411,0.000707577,0.000193921,0.026116785,-0.078519002,9.785086632
1784245493.480637,-0.005921137,-0.000292327,-0.304162681,0.000277267,0.000625797,-0.000195130,0.028959708,-0.029237047,9.780474663
1784245493.482648,-0.005920209,-0.000294183,-0.304162681,-0.000182237,0.001037061,-0.000602596,0.017922780,-0.013078006,9.796259880
1784245493.484643,-0.005920209,-0.000294183,-0.304162681,-0.001047067,0.000890074,-0.000523673,0.014635300,-0.026352592,9.778685570
1784245493.486649,-0.005918717,-0.000293978,-0.304162681,-0.001395726,0.000182225,0.000144682,0.019172559,-0.021555644,9.789032936
1784245493.488658,-0.005918717,-0.000293978,-0.304162681,-0.000908878,-0.000394978,0.000560200,0.039374802,-0.056078188,9.818869591
1784245493.490658,-0.005918717,-0.000293978,-0.304162681,-0.000782116,-0.000322270,0.000089057,0.000513962,-0.040407743,9.827450752
1784245493.492654,-0.005918265,-0.000294078,-0.304162681,-0.001009499,0.000186228,-0.000595119,0.008036940,-0.049439263,9.823813438
1784245493.494660,-0.005918265,-0.000294078,-0.304162681,-0.000654380,0.000349515,-0.000516204,0.008312799,-0.026593251,9.823960304
1784245493.496653,-0.005915669,-0.000294528,-0.304162681,0.000014578,0.000047295,-0.000009114,0.023785478,-0.047267135,9.805011749
1784245493.498665,-0.005915669,-0.000294528,-0.304162681,0.000248365,-0.000276249,0.000052436,0.006607229,-0.055350438,9.838568687
1784245493.500662,-0.005915669,-0.000294528,-0.304162681,-0.000063525,-0.000106560,-0.000587202,0.015207547,-0.015251523,9.791759491
1784245493.502662,-0.005914262,-0.000295215,-0.304162681,-0.000561230,0.000056747,-0.001179742,0.023403522,-0.042276584,9.796974182
1784245493.504660,-0.005914262,-0.000295215,-0.304162681,-0.000892305,-0.000099041,-0.000890810,0.027081294,-0.035142474,9.795229912
1784245493.506663,-0.005913211,-0.000296002,-0.304162681,-0.000900907,-0.000413805,-0.000554716,0.012092511,-0.051381048,9.774488449
1784245493.508665,-0.005913211,-0.000296002,-0.304162681,-0.000779401,-0.000641387,-0.000815112,0.024478374,-0.064698242,9.797727585
1784245493.510712,-0.005913211,-0.000296002,-0.304162681,-0.000683802,-0.000176618,-0.001109595,0.010849968,-0.080436148,9.767127037
1784245493.512695,-0.005914049,-0.000296440,-0.304162681,-0.001259839,0.000654681,-0.001286300,0.016079508,-0.055080075,9.783434868
1784245493.514669,-0.005914049,-0.000296440,-0.304162681,-0.002278088,0.001156629,-0.001073571,0.022360316,-0.017173508,9.797134399
1784245493.516691,-0.005912282,-0.000297240,-0.304162711,-0.002479808,0.001248031,-0.001171996,0.010649806,-0.021020699,9.792165756
1784245493.518671,-0.005912282,-0.000297240,-0.304162711,-0.001616847,0.000964730,-0.001731441,-0.003048854,-0.075308457,9.827223778
1784245493.520674,-0.005912282,-0.000297240,-0.304162711,-0.000905571,0.000125051,-0.001745248,0.021192627,-0.076743402,9.796301842
1784245493.522677,-0.005912608,-0.000297892,-0.304162711,-0.000662115,-0.000737666,-0.001432209,0.031073160,-0.077203386,9.780169487
1784245493.524676,-0.005912608,-0.000297892,-0.304162711,0.000046278,-0.000777124,-0.001326401,0.034020294,-0.054557204,9.803630829
1784245493.526683,-0.005912154,-0.000299109,-0.304162711,0.001057300,-0.000181234,-0.001245054,0.004210725,0.003655700,9.799042702
1784245493.528689,-0.005912154,-0.000299109,-0.304162711,0.001408693,-0.000176956,-0.000863867,0.006794662,0.033872101,9.829727173
1784245493.530710,-0.005912154,-0.000299109,-0.304162711,0.001046430,-0.000526271,-0.000733538,-0.004978655,-0.052134808,9.785226822
1784245493.532691,-0.005912101,-0.000298517,-0.304162711,0.000207518,-0.000468003,-0.000728024,-0.000173716,-0.060525265,9.822389603
1784245493.534698,-0.005912101,-0.000298517,-0.304162711,-0.000799829,-0.000224842,-0.000470793,0.029574411,-0.052148618,9.787949562
1784245493.536691,-0.005912072,-0.000300300,-0.304162711,-0.001331764,0.000167882,-0.000570710,0.029479757,-0.058569517,9.808979988
1784245493.538688,-0.005912072,-0.000300300,-0.304162711,-0.001269173,0.000216794,-0.000914882,0.011393867,-0.032374315,9.812269211
1784245493.540687,-0.005912072,-0.000300300,-0.304162711,-0.000958562,-0.000203733,-0.000626174,0.011927033,-0.027255349,9.784505844
1784245493.542689,-0.005910468,-0.000301079,-0.304162711,-0.000336163,-0.000676014,-0.000470304,0.010523038,-0.032152958,9.782680511
1784245493.544696,-0.005910468,-0.000301079,-0.304162711,0.000069209,-0.000618696,-0.001148874,0.054498736,-0.068257317,9.803113937
1784245493.546702,-0.005911489,-0.000303633,-0.304162711,-0.000377667,-0.000588819,-0.001337569,0.035251420,-0.067234643,9.756922722
1784245493.548698,-0.005911489,-0.000303633,-0.304162711,-0.000818492,-0.001108223,-0.001081091,-0.004201108,-0.061197743,9.798171043
1784245493.550698,-0.005911489,-0.000303633,-0.304162711,-0.001100133,-0.001233491,-0.001145501,0.004756012,-0.064283118,9.774847031
1784245493.552694,-0.005911518,-0.000303375,-0.304162711,-0.001047796,-0.000983768,-0.001478943,0.028677464,-0.087697133,9.811034203
1784245493.554709,-0.005911518,-0.000303375,-0.304162711,-0.000302150,-0.000558263,-0.001593008,0.029427629,-0.062223159,9.818820953
1784245493.556704,-0.005911562,-0.000304366,-0.304162711,0.000346982,-0.000273405,-0.000701278,0.023533151,-0.069522105,9.784693718
1784245493.558705,-0.005911562,-0.000304366,-0.304162711,0.000782429,-0.000121255,0.000236800,0.034331594,-0.063347667,9.842130661
1784245493.560702,-0.005911562,-0.000304366,-0.304162711,0.000685039,-0.000002845,0.000414112,0.014908617,-0.074248604,9.834868431
1784245493.562707,-0.005911902,-0.000304257,-0.304162771,0.000037870,0.000288063,0.000471300,0.030372733,-0.058615997,9.813913345
1784245493.564710,-0.005911902,-0.000304257,-0.304162771,-0.000160987,0.000623151,0.000496028,0.015319807,-0.041823708,9.810866356
1784245493.566723,-0.005911293,-0.000304911,-0.304162711,0.000558618,0.000604400,0.000766677,0.007781459,-0.034939777,9.801489830
1784245493.568724,-0.005911293,-0.000304911,-0.304162711,0.001535108,0.000639086,0.001091192,0.003029572,-0.056425747,9.807175636
1784245493.570723,-0.005911293,-0.000304911,-0.304162711,0.001327935,0.000893237,0.000840015,0.019535512,-0.066312373,9.781573296
1784245493.572718,-0.005912064,-0.000305458,-0.304162771,0.000341701,0.000815521,0.000961124,0.012813794,-0.027756147,9.790331841
1784245493.574722,-0.005912064,-0.000305458,-0.304162771,-0.000598220,0.000434761,0.001462384,0.012622414,-0.007887489,9.768939972
1784245493.576775,-0.005909974,-0.000305896,-0.304162711,-0.001440193,0.000488044,0.001016808,0.030446153,-0.019230636,9.756777763
1784245493.578743,-0.005909974,-0.000305896,-0.304162711,-0.002066067,0.000838737,-0.000244766,0.040580388,-0.034609444,9.758931160
1784245493.580778,-0.005909974,-0.000305896,-0.304162711,-0.002380519,0.000892149,-0.000749518,0.048842594,-0.055032726,9.780776978
1784245493.582742,-0.005909614,-0.000307274,-0.304162771,-0.002235998,0.000561513,-0.000216100,0.023266044,-0.090678029,9.798905373
1784245493.584736,-0.005909614,-0.000307274,-0.304162771,-0.001858225,0.000391034,-0.000043307,-0.004380354,-0.076796897,9.786863327
1784245493.586739,-0.005910227,-0.000307059,-0.304162771,-0.001330798,0.000174349,0.000046353,0.018990371,-0.073146872,9.798563957
1784245493.588757,-0.005910227,-0.000307059,-0.304162771,-0.000638860,0.000136626,0.000528018,-0.003225846,-0.053705197,9.813912392
1784245493.590741,-0.005910227,-0.000307059,-0.304162771,-0.000244307,0.000072668,0.001149307,-0.014082169,-0.061957639,9.796812057
1784245493.592746,-0.005910696,-0.000306669,-0.304162711,-0.000466027,-0.000168418,0.001924949,0.028982094,-0.061381903,9.827342033
1784245493.594752,-0.005910696,-0.000306669,-0.304162711,-0.000873771,0.000341249,0.002710045,0.012089411,-0.050189789,9.796015739
1784245493.596744,-0.005910495,-0.000307102,-0.304162771,-0.001118023,0.000620754,0.003480121,0.011284775,-0.039719753,9.837327957
1784245493.598758,-0.005910495,-0.000307102,-0.304162771,-0.000725907,-0.000078527,0.003513487,0.015334207,-0.002499127,9.825467110
1784245493.600746,-0.005910495,-0.000307102,-0.304162771,0.000267443,-0.000518931,0.002781126,0.010176475,-0.023235681,9.789461136
1784245493.602769,-0.005908265,-0.000307130,-0.304162771,0.001015148,-0.000334714,0.002033839,0.021582823,-0.043673776,9.807723045
1784245493.604762,-0.005908265,-0.000307130,-0.304162771,0.001163027,-0.000036346,0.001832717,0.031492978,-0.044305086,9.752584457
1784245493.606765,-0.005907759,-0.000308195,-0.304162771,0.000768303,0.000581084,0.001904254,0.043548044,-0.049391069,9.753011703
1784245493.608758,-0.005907759,-0.000308195,-0.304162771,0.000066747,0.001144994,0.001685569,0.029821960,-0.030741876,9.801537514
1784245493.610768,-0.005907759,-0.000308195,-0.304162771,-0.000176083,0.001195355,0.001127538,0.013850612,-0.053720161,9.785234451
1784245493.612764,-0.005907760,-0.000308804,-0.304162771,0.000166077,0.000723021,0.000628747,-0.006614929,-0.037081450,9.813566208
1784245493.614762,-0.005907760,-0.000308804,-0.304162771,0.000269162,0.000324074,0.000661985,-0.008504523,-0.047532894,9.774493217
1784245493.616763,-0.005907089,-0.000308725,-0.304162771,0.000166564,0.000270790,0.000452566,0.002523561,-0.060925052,9.810731888
1784245493.618768,-0.005907089,-0.000308725,-0.304162771,0.000653804,0.000159783,-0.000656250,-0.000477474,-0.050054245,9.799591064
1784245493.620765,-0.005907089,-0.000308725,-0.304162771,0.001004893,-0.000105904,-0.000670766,0.007206163,-0.045659658,9.797833443
1784245493.622771,-0.005906881,-0.000308728,-0.304162771,0.000516321,-0.000229283,0.000924478,0.000953630,-0.040890068,9.831482887
1784245493.624768,-0.005906881,-0.000308728,-0.304162771,-0.000033140,0.000046560,0.001492617,-0.005307666,-0.040647414,9.808613777
1784245493.626769,-0.005906307,-0.000308607,-0.304162771,0.000036067,-0.000021565,0.000930950,0.005750626,-0.016211132,9.817748070
1784245493.628771,-0.005906307,-0.000308607,-0.304162771,0.000782890,-0.000783437,0.000970214,-0.005322044,-0.039545186,9.842694283
1784245493.630775,-0.005906307,-0.000308607,-0.304162771,0.000889785,-0.001482050,0.001701344,0.003940213,-0.055522252,9.804491043
1784245493.632771,-0.005906440,-0.000308465,-0.304162771,0.000250333,-0.001478274,0.002073215,-0.011623168,-0.080854200,9.803417206
1784245493.634777,-0.005906440,-0.000308465,-0.304162771,-0.000051464,-0.001421413,0.002037800,0.016388435,-0.067536525,9.770354271
1784245493.636779,-0.005906579,-0.000309143,-0.304162771,-0.000001189,-0.001578127,0.001560031,0.023403293,-0.041873135,9.803253174
1784245493.638831,-0.005906579,-0.000309143,-0.304162771,0.000543590,-0.001710347,0.000328149,0.051265530,-0.039055701,9.797919273
1784245493.640787,-0.005906579,-0.000309143,-0.304162771,0.000980751,-0.001429009,-0.000585147,0.018538114,-0.036389846,9.797006607
1784245493.642818,-0.005905977,-0.000310596,-0.304162771,0.001064529,-0.000975626,-0.000256613,-0.012606246,-0.051223826,9.796882629
1784245493.644792,-0.005905977,-0.000310596,-0.304162771,0.001249126,-0.000899326,0.000089812,0.029938811,-0.059709296,9.779383659
1784245493.646796,-0.005906159,-0.000312208,-0.304162771,0.001277122,-0.000767499,-0.000163015,0.029621532,-0.048939768,9.777658463
1784245493.648787,-0.005906159,-0.000312208,-0.304162771,0.001407660,-0.000510882,-0.000310024,-0.009633651,-0.067587443,9.761362076
1784245493.650798,-0.005906159,-0.000312208,-0.304162771,0.001109626,0.000059612,-0.000632228,-0.008261359,-0.064561173,9.774383545
1784245493.652796,-0.005906800,-0.000311647,-0.304162771,0.000259951,0.000482585,-0.000958174,-0.010361409,-0.050026335,9.813479424
1784245493.654800,-0.005906800,-0.000311647,-0.304162771,-0.000346780,0.000408174,-0.000475661,0.015398058,-0.037153315,9.783997536
1784245493.656792,-0.005905767,-0.000312122,-0.304162771,-0.000626821,0.000297779,-0.000052004,0.021025671,-0.013823763,9.832571983
1784245493.658794,-0.005905767,-0.000312122,-0.304162771,-0.000357273,0.000378672,-0.000463795,0.007270734,-0.038260534,9.828367233
1784245493.660799,-0.005905767,-0.000312122,-0.304162771,0.000001803,0.000435847,-0.000763532,-0.016096089,-0.043095451,9.794240952
1784245493.662806,-0.005905434,-0.000311707,-0.304162771,0.000243983,0.000491833,-0.000350025,-0.019271644,-0.046165496,9.790631294
1784245493.664800,-0.005905434,-0.000311707,-0.304162771,0.000419845,0.000461181,-0.000139447,0.025809236,-0.065646395,9.802655220
1784245493.666803,-0.005905740,-0.000312758,-0.304162771,0.000111438,0.000069338,-0.000602558,0.019095276,-0.063403010,9.814320564
1784245493.668806,-0.005905740,-0.000312758,-0.304162771,-0.000006513,-0.000344258,-0.000778007,0.009652168,-0.028284693,9.807363510
1784245493.670806,-0.005905740,-0.000312758,-0.304162771,0.000104762,-0.000634444,-0.000129216,-0.001473962,-0.021745497,9.789908409
1784245493.672802,-0.005904182,-0.000312816,-0.304162771,0.000132128,-0.000791376,0.000361690,-0.022195628,-0.027797006,9.796127319
1784245493.674809,-0.005904182,-0.000312816,-0.304162771,0.000150119,-0.001225679,0.000067660,0.024355408,-0.040642127,9.754393578
1784245493.676804,-0.005902853,-0.000314551,-0.304162771,0.000125638,-0.001720324,-0.000364213,0.044613995,-0.033482648,9.782257080
1784245493.678805,-0.005902853,-0.000314551,-0.304162771,0.000402791,-0.001509203,-0.000458553,0.042653929,-0.047327362,9.779475212
1784245493.680810,-0.005902853,-0.000314551,-0.304162771,0.000537986,-0.000797815,-0.000343761,-0.001118780,-0.067779340,9.773024559
1784245493.682815,-0.005903010,-0.000313822,-0.304162771,0.000039057,-0.000432692,-0.000659078,0.006704796,-0.088117391,9.783660889
1784245493.684817,-0.005903010,-0.000313822,-0.304162771,-0.000743891,-0.000574060,-0.001234703,0.014443611,-0.080450349,9.762647629
1784245493.686818,-0.005903607,-0.000314801,-0.304162771,-0.001170690,-0.000698806,-0.001292897,0.047813714,-0.064974949,9.794610023
1784245493.688825,-0.005903607,-0.000314801,-0.304162771,-0.001156071,-0.000810417,-0.001461252,0.011539091,-0.057875685,9.806724548
1784245493.690819,-0.005903607,-0.000314801,-0.304162771,-0.001523717,-0.000971665,-0.002559741,0.005411876,-0.044416782,9.815325737
1784245493.692823,-0.005902522,-0.000314743,-0.304162771,-0.001752547,-0.000819786,-0.003322312,0.012881747,-0.057514925,9.816593170
1784245493.694866,-0.005902522,-0.000314743,-0.304162771,-0.001379148,-0.000668275,-0.002685332,0.025892274,-0.022537805,9.789032936
1784245493.696939,-0.005901528,-0.000316166,-0.304162771,-0.000983720,-0.000689764,-0.001481713,0.026259789,-0.028452897,9.801100731
1784245493.698846,-0.005901528,-0.000316166,-0.304162771,-0.000399625,-0.000166311,-0.000980503,-0.000253292,-0.031668760,9.797019958
1784245493.700843,-0.005901528,-0.000316166,-0.304162771,-0.000059270,0.000579352,-0.001173089,0.011981807,-0.058739208,9.801341057
1784245493.702881,-0.005900734,-0.000316409,-0.304162771,-0.000250668,0.000745883,-0.000756576,0.013569063,-0.075800613,9.803474426
1784245493.704848,-0.005900734,-0.000316409,-0.304162771,-0.000486584,0.000345155,-0.000275695,0.033738747,-0.041884542,9.786227226
1784245493.706834,-0.005899777,-0.000318000,-0.304162771,-0.000459375,-0.000035925,-0.000412957,0.022204315,-0.030968092,9.784044266
1784245493.708843,-0.005899777,-0.000318000,-0.304162771,-0.000348205,-0.000172080,-0.000259292,0.007150733,-0.088955469,9.774690628
1784245493.710842,-0.005899777,-0.000318000,-0.304162771,0.000043919,0.000102586,-0.000018409,-0.008563899,-0.051243775,9.792401314
1784245493.712841,-0.005899526,-0.000318039,-0.304162771,0.000658105,0.000534564,-0.000075788,0.007404107,-0.029507615,9.794349670
1784245493.714845,-0.005899526,-0.000318039,-0.304162771,0.000955676,0.000435007,0.000186747,0.010297541,-0.014174713,9.775173187
1784245493.716840,-0.005896800,-0.000317745,-0.304162771,0.001059626,-0.000084953,0.000158707,-0.005295293,-0.038928702,9.818935394
1784245493.718842,-0.005896800,-0.000317745,-0.304162771,0.000883222,-0.000546036,-0.000674911,0.012633622,-0.079331473,9.797621727
1784245493.720840,-0.005896800,-0.000317745,-0.304162771,0.000488005,-0.000395068,-0.000954971,0.013871550,-0.088307947,9.797566414
1784245493.722845,-0.005898070,-0.000317681,-0.304162771,0.000144898,-0.000216924,-0.000436627,0.021704450,-0.071792968,9.792300224
1784245493.724851,-0.005898070,-0.000317681,-0.304162771,0.000021028,-0.000159730,-0.000185586,0.013748473,-0.062631689,9.778452873
1784245493.726853,-0.005897542,-0.000318019,-0.304162771,-0.000011242,0.000065840,-0.000741713,-0.001718627,-0.041103218,9.803235054
1784245493.728849,-0.005897542,-0.000318019,-0.304162771,-0.000184583,-0.000271533,-0.001258189,-0.008929925,-0.081285782,9.796244621
1784245493.730852,-0.005897542,-0.000318019,-0.304162771,0.000263213,-0.000814914,-0.001075577,0.036449939,-0.077332795,9.788692474
1784245493.732851,-0.005898851,-0.000318936,-0.304162771,0.001388469,-0.000895281,-0.000957570,0.047083121,-0.050272938,9.807704926
1784245493.734859,-0.005898851,-0.000318936,-0.304162771,0.001416226,-0.000621303,-0.000871010,-0.006856669,-0.058037061,9.799533844
1784245493.736853,-0.005898673,-0.000317679,-0.304162771,0.000497488,-0.000198585,-0.000320801,-0.002125047,-0.075516738,9.791803360
1784245493.738864,-0.005898673,-0.000317679,-0.304162771,0.000480762,0.000334211,0.000425295,0.004315308,-0.063403703,9.777991295
1784245493.740861,-0.005898673,-0.000317679,-0.304162771,0.000758409,0.000860669,0.001385240,0.029911604,-0.024765758,9.780056000
1784245493.742862,-0.005897001,-0.000320012,-0.304162771,-0.000070327,0.001219084,0.002118876,0.030736223,-0.029809758,9.794818878
1784245493.744866,-0.005897001,-0.000320012,-0.304162771,-0.001001598,0.001128271,0.001910717,0.024830304,-0.034767516,9.809576988
1784245493.746864,-0.005895903,-0.000320933,-0.304162771,-0.000815544,0.000624244,0.001198402,-0.015062761,-0.030281421,9.817636490
1784245493.748862,-0.005895903,-0.000320933,-0.304162771,-0.000155055,0.000288067,0.000572185,0.001292195,-0.015927883,9.785913467
1784245493.750863,-0.005895903,-0.000320933,-0.304162771,-0.000086926,0.000387280,0.000496341,0.012010475,-0.018896716,9.806079865
1784245493.752867,-0.005894033,-0.000321559,-0.304162771,-0.000525245,0.000587822,0.000928428,-0.004477466,-0.010083699,9.793567657
1784245493.754869,-0.005894033,-0.000321559,-0.304162771,-0.000247307,0.000711579,0.000901039,0.016653191,-0.044372912,9.788884163
1784245493.756868,-0.005894043,-0.000322556,-0.304162771,0.000407933,0.000763842,0.000394195,0.001790249,-0.085455410,9.796228409
1784245493.758875,-0.005894043,-0.000322556,-0.304162771,0.000177900,0.000646221,0.000239596,0.006884554,-0.074135207,9.770302773
1784245493.760877,-0.005894043,-0.000322556,-0.304162771,-0.000513026,0.000708622,0.000379690,0.019899294,-0.035882823,9.786252975
1784245493.762881,-0.005892921,-0.000323436,-0.304162800,-0.000957657,0.001149873,0.000411839,0.022570329,-0.038516048,9.773684502
1784245493.764879,-0.005892921,-0.000323436,-0.304162800,-0.000989826,0.001614491,0.000057432,0.008373949,-0.060052995,9.803569794
1784245493.766876,-0.005893980,-0.000324315,-0.304162800,-0.000725356,0.001823862,-0.000201011,0.011869654,-0.068540305,9.793656349
1784245493.768887,-0.005893980,-0.000324315,-0.304162800,-0.000647971,0.001400216,-0.000158005,-0.001928365,-0.058564160,9.801777840
1784245493.770880,-0.005893980,-0.000324315,-0.304162800,-0.000580537,0.000478505,0.000032394,0.004793016,-0.060343675,9.787874222
1784245493.772881,-0.005894278,-0.000324649,-0.304162800,-0.000347784,0.000144840,0.000534307,-0.022568269,-0.058296513,9.801310539
1784245493.774889,-0.005894278,-0.000324649,-0.304162800,-0.000314759,0.000658986,0.000940051,-0.026198056,-0.063025475,9.779756546
1784245493.776882,-0.005894774,-0.000322465,-0.304162771,-0.000508259,0.000964328,0.001162692,0.006259044,-0.049282726,9.804983139
1784245493.778887,-0.005894774,-0.000322465,-0.304162771,-0.000836905,0.000646159,0.001754818,0.031999130,-0.035752244,9.809128761
1784245493.780891,-0.005894774,-0.000322465,-0.304162771,-0.000661233,0.000373016,0.002331018,0.017739974,-0.026679005,9.819036484
1784245493.782895,-0.005892412,-0.000323344,-0.304162800,-0.000057903,0.000462430,0.001850546,0.014496745,-0.035956912,9.806422234
1784245493.784891,-0.005892412,-0.000323344,-0.304162800,0.000020205,0.000461902,0.001102447,0.021525793,-0.049392346,9.792891502
1784245493.786896,-0.005892073,-0.000324183,-0.304162800,-0.000253546,0.000119224,0.001186846,0.009352312,-0.053751707,9.797783852
1784245493.788903,-0.005892073,-0.000324183,-0.304162800,-0.000236710,-0.000239524,0.001049495,0.013693470,-0.065497525,9.803541183
1784245493.790903,-0.005892073,-0.000324183,-0.304162800,-0.000150459,-0.000409898,0.000661232,0.016380230,-0.027579937,9.822168350
1784245493.792899,-0.005890965,-0.000324986,-0.304162800,-0.000268809,-0.000533058,0.000540570,0.008089595,-0.009812617,9.795823097
1784245493.794906,-0.005890965,-0.000324986,-0.304162800,-0.000426345,-0.000584461,0.000200044,0.008769489,-0.028562170,9.784941673
1784245493.796906,-0.005889029,-0.000324479,-0.304162800,-0.000395498,-0.000568484,-0.000209963,0.013639043,-0.033200413,9.798367500
1784245493.798909,-0.005889029,-0.000324479,-0.304162800,-0.000244194,-0.000394912,-0.000724164,0.008347885,-0.061879810,9.808491707
1784245493.800915,-0.005889029,-0.000324479,-0.304162800,-0.000218736,0.000236866,-0.001168280,0.022442874,-0.083191104,9.818679810
1784245493.803001,-0.005890166,-0.000326127,-0.304162800,-0.000182071,0.000802031,-0.001021853,0.006174691,-0.056027569,9.808526039
1784245493.804924,-0.005890166,-0.000326127,-0.304162800,-0.000446561,0.001194462,-0.000193681,0.020465665,-0.062012784,9.805362701
1784245493.806918,-0.005889501,-0.000327047,-0.304162800,-0.000495082,0.001442569,0.000445756,0.001009547,-0.039638031,9.781277657
1784245493.808922,-0.005889501,-0.000327047,-0.304162800,-0.000172456,0.001172682,0.000386135,0.001538350,-0.032527272,9.788497925
1784245493.810922,-0.005889501,-0.000327047,-0.304162800,-0.000176224,0.000548990,-0.000039145,0.029788190,-0.031819038,9.827084541
1784245493.812925,-0.005888054,-0.000328364,-0.304162800,-0.000285624,0.000240444,-0.000456626,0.047382902,-0.064422667,9.780714989
1784245493.814924,-0.005888054,-0.000328364,-0.304162800,-0.000449503,0.000645001,-0.000504658,0.011452709,-0.102226406,9.805992126
1784245493.816929,-0.005890080,-0.000328007,-0.304162800,-0.000769820,0.000849121,-0.000089177,0.010726859,-0.013523012,9.808802605
1784245493.818930,-0.005890080,-0.000328007,-0.304162800,-0.001171081,0.000531319,0.000264785,0.020827193,-0.034032524,9.776400566
1784245493.820934,-0.005890080,-0.000328007,-0.304162800,-0.001458735,0.000539168,-0.000360554,-0.020001320,-0.067830406,9.814253807
1784245493.822931,-0.005891016,-0.000326160,-0.304162800,-0.001124995,0.000506350,-0.001357013,-0.000472993,-0.050829343,9.782547951
1784245493.824933,-0.005891016,-0.000326160,-0.304162800,-0.000562075,0.000044579,-0.001687715,0.015080365,-0.063976929,9.776204109
1784245493.826934,-0.005891686,-0.000326721,-0.304162800,-0.000570833,-0.000417501,-0.001244024,0.038209487,-0.042475846,9.798333168
1784245493.828931,-0.005891686,-0.000326721,-0.304162800,-0.000704377,-0.000719298,-0.000505617,-0.018440345,-0.013972101,9.798460007
1784245493.830930,-0.005891686,-0.000326721,-0.304162800,-0.000488572,-0.000455334,-0.000163072,0.010638183,-0.021922985,9.793057442
1784245493.832932,-0.005889174,-0.000327109,-0.304162800,-0.000203027,-0.000154878,-0.000165450,0.043359496,-0.026663303,9.770640373
1784245493.834942,-0.005889174,-0.000327109,-0.304162800,-0.000451043,-0.000343957,-0.000350698,0.016914552,-0.021641366,9.805170059
1784245493.836937,-0.005888174,-0.000327418,-0.304162800,-0.000859970,0.000115621,-0.000627099,0.000708552,-0.063087806,9.803094864
1784245493.838936,-0.005888174,-0.000327418,-0.304162800,-0.000937820,0.000753479,-0.000736157,-0.011162042,-0.079951309,9.801630974
1784245493.840937,-0.005888174,-0.000327418,-0.304162800,-0.001094613,0.000371941,-0.000603856,-0.007388745,-0.064363182,9.808011055
1784245493.842946,-0.005889202,-0.000326660,-0.304162800,-0.000886052,-0.000091248,-0.000219167,0.012542998,-0.050967455,9.778527260
1784245493.844944,-0.005889202,-0.000326660,-0.304162800,-0.000439951,-0.000069319,-0.000351647,0.041436654,-0.071725160,9.810253143
1784245493.846946,-0.005890096,-0.000328215,-0.304162800,-0.000546207,0.000045618,-0.001152311,0.014068352,-0.035385553,9.789835930
1784245493.848949,-0.005890096,-0.000328215,-0.304162800,-0.000861028,-0.000084194,-0.001719102,0.023616189,-0.026413521,9.771073341
1784245493.850951,-0.005890096,-0.000328215,-0.304162800,-0.000980663,0.000050727,-0.001588996,-0.007524481,-0.039192121,9.796964645
1784245493.852949,-0.005888703,-0.000327129,-0.304162800,-0.000794355,0.000484399,-0.000896203,0.021494428,-0.053287268,9.773588181
1784245493.854955,-0.005888703,-0.000327129,-0.304162800,-0.000646076,0.000313546,-0.000285891,0.049166046,-0.026947903,9.800234795
1784245493.856951,-0.005886867,-0.000329783,-0.304162800,-0.000668097,-0.000150948,0.000066355,-0.009038548,-0.051848147,9.815262794
1784245493.858960,-0.005886867,-0.000329783,-0.304162800,-0.000214312,-0.000617511,-0.000146353,0.011418310,-0.068150185,9.802624702
1784245493.860955,-0.005886867,-0.000329783,-0.304162800,0.000280867,-0.000901854,-0.000842292,-0.005795786,-0.044600185,9.798275948
1784245493.862953,-0.005867957,-0.000324718,-0.304140180,0.000091704,-0.000326549,-0.001706440,0.015134977,-0.058277436,9.793725967
1784245493.864960,-0.005867957,-0.000324718,-0.304140180,-0.000488583,0.000923633,-0.002006718,0.004751125,-0.063511193,9.792336464
1784245493.866966,-0.005868530,-0.000324980,-0.304140180,-0.000821897,0.001883426,-0.001575187,0.039512955,-0.046477042,9.791582108
1784245493.868969,-0.005868530,-0.000324980,-0.304140180,-0.000801212,0.001807590,-0.001553550,0.030959697,-0.050640747,9.762407303
1784245493.870969,-0.005868530,-0.000324980,-0.304140180,-0.001068900,0.000710775,-0.001435729,0.012875238,-0.059592579,9.793715477
1784245493.872962,-0.005868604,-0.000326191,-0.304140180,-0.000887753,-0.000311279,-0.000863143,0.000798195,-0.057111688,9.781613350
1784245493.874971,-0.005868604,-0.000326191,-0.304140180,0.000156928,-0.000308271,-0.000675079,0.011892381,-0.067955613,9.774381638
1784245493.876974,-0.005869305,-0.000326274,-0.304140180,0.000923363,0.000110169,-0.000914836,0.008510140,-0.086030953,9.802058220
1784245493.878973,-0.005869305,-0.000326274,-0.304140180,0.001281354,0.000378392,-0.000638724,0.005528903,-0.072977573,9.799000740
1784245493.880970,-0.005869305,-0.000326274,-0.304140180,0.001649495,0.000534753,-0.000130746,-0.014924963,-0.056246661,9.814332962
1784245493.883029,-0.005870041,-0.000325321,-0.304140180,0.001538559,0.000636631,-0.000068239,-0.010284768,-0.045368660,9.788402557
1784245493.885037,-0.005870041,-0.000325321,-0.304140180,0.001007229,0.000999487,0.000664158,0.019067895,-0.028866105,9.809161186
1784245493.887005,-0.005868694,-0.000326705,-0.304140180,0.000819614,0.001490681,0.002011614,0.008879169,-0.017970091,9.807427406
1784245493.888989,-0.005868694,-0.000326705,-0.304140180,0.000700591,0.001567196,0.001872470,0.022422796,-0.049407028,9.793340683
1784245493.890999,-0.005868694,-0.000326705,-0.304140180,0.000467239,0.001251846,0.000902317,0.017450752,-0.089246683,9.797115326
1784245493.892988,-0.005871082,-0.000327121,-0.304140180,0.000514106,0.001124564,0.000719989,0.044996221,-0.077276692,9.765386581
1784245493.894988,-0.005871082,-0.000327121,-0.304140180,0.000530233,0.001084704,0.000804052,-0.003637545,-0.015006875,9.791294098
1784245493.896996,-0.005868659,-0.000326383,-0.304140180,0.000374850,0.000626153,0.000754322,-0.001633072,-0.071938790,9.791828156
1784245493.898996,-0.005868659,-0.000326383,-0.304140180,0.000188951,0.000186884,0.000392460,0.017509054,-0.046738692,9.805008888
1784245493.900989,-0.005868659,-0.000326383,-0.304140180,-0.000523629,0.000086659,0.000526295,0.019429825,-0.035635784,9.815394402
1784245493.902996,-0.005866981,-0.000328006,-0.304140180,-0.001401376,0.000305057,0.000697053,0.019044636,-0.068260632,9.804425240
1784245493.905004,-0.005866981,-0.000328006,-0.304140180,-0.001350063,0.000676242,0.000246069,0.020488976,-0.058181453,9.833633423
1784245493.906996,-0.005866922,-0.000328759,-0.304140180,-0.000682202,0.000758971,0.000061903,0.020230567,-0.007330955,9.803023338
1784245493.909035,-0.005866922,-0.000328759,-0.304140180,-0.000957042,0.000717238,0.000286998,0.034564678,-0.048539136,9.775424957
1784245493.911008,-0.005866922,-0.000328759,-0.304140180,-0.001826154,0.000764163,0.000757227,0.019764056,-0.084671810,9.779662132
1784245493.913022,-0.005868751,-0.000329215,-0.304140180,-0.001951424,0.000867082,0.000739937,0.011607153,-0.054501496,9.773122787
1784245493.915010,-0.005868751,-0.000329215,-0.304140180,-0.001207023,0.001170800,0.000116182,0.008721383,-0.066937134,9.825943947
1784245493.917042,-0.005869525,-0.000329574,-0.304140180,-0.000268919,0.001260354,-0.000103648,0.019930819,-0.069171235,9.804868698
1784245493.919018,-0.005869525,-0.000329574,-0.304140180,0.000066401,0.000985147,0.000094794,0.001743887,-0.050257873,9.824251175
1784245493.921012,-0.005869525,-0.000329574,-0.304140180,0.000181132,0.000533406,0.000346062,-0.002344550,-0.053843874,9.831845284
1784245493.923007,-0.005869054,-0.000328706,-0.304140180,0.000478871,-0.000032644,0.000636440,0.027001770,-0.041849174,9.793394089
1784245493.925035,-0.005869054,-0.000328706,-0.304140180,0.000826874,-0.000049774,0.000742076,0.021802457,-0.026539968,9.792141914
1784245493.927038,-0.005867418,-0.000328832,-0.304140180,0.001026609,-0.000008007,0.000873403,-0.010736862,-0.045794979,9.786158562
1784245493.929115,-0.005867418,-0.000328832,-0.304140180,0.000370382,-0.000439903,0.001452623,-0.007650038,-0.050314832,9.786132812
1784245493.931042,-0.005867418,-0.000328832,-0.304140180,-0.000665380,-0.000478977,0.001947434,0.020341096,-0.035132546,9.805983543
1784245493.933036,-0.005866433,-0.000329581,-0.304140180,-0.001179558,-0.000146397,0.001714583,0.032853141,-0.040564131,9.791165352
1784245493.935035,-0.005866433,-0.000329581,-0.304140180,-0.001316521,0.000222416,0.001040586,0.002745328,-0.042558637,9.810850143
1784245493.937025,-0.005865837,-0.000329056,-0.304140180,-0.000801599,0.000484464,0.000550525,-0.001056339,-0.061612818,9.787860870
1784245493.939062,-0.005865837,-0.000329056,-0.304140180,-0.000520238,0.000405280,0.000372385,0.024182616,-0.053353559,9.778074265
1784245493.941034,-0.005865837,-0.000329056,-0.304140180,-0.000875751,0.000336081,0.000169451,0.036433898,-0.040680081,9.801032066
1784245493.943032,-0.005865910,-0.000330984,-0.304140180,-0.001138789,-0.000057157,0.000164113,0.007556405,-0.055358388,9.774906158
1784245493.945030,-0.005865910,-0.000330984,-0.304140180,-0.001063683,-0.000707925,0.000393292,0.027331473,-0.051710062,9.793330193
1784245493.947028,-0.005865525,-0.000332344,-0.304140180,-0.000603230,-0.000483414,0.000402317,0.018415384,-0.044653457,9.825199127
1784245493.949061,-0.005865525,-0.000332344,-0.304140180,-0.000533591,0.000169316,0.000357039,0.008997119,-0.045307823,9.808148384
1784245493.951043,-0.005865525,-0.000332344,-0.304140180,-0.000791200,0.000365583,-0.000562529,0.040269218,-0.056518566,9.816176414
1784245493.953033,-0.005865189,-0.000334018,-0.304140180,-0.000722524,0.000671554,-0.001844872,0.066049963,-0.077420086,9.810688019
1784245493.955040,-0.005865189,-0.000334018,-0.304140180,-0.000782665,0.000961325,-0.001749894,-0.000302377,-0.070456728,9.833086014
1784245493.957037,-0.005865435,-0.000333522,-0.304140180,-0.000836141,0.000412796,-0.001071189,0.002777027,-0.040687311,9.799654007
1784245493.959233,-0.005865435,-0.000333522,-0.304140180,-0.000554628,-0.000545466,-0.001030659,0.026142685,-0.039508838,9.780854225
1784245493.961118,-0.005865435,-0.000333522,-0.304140180,-0.000523669,-0.000664590,-0.001178702,0.010901664,-0.035548810,9.818525314
1784245493.963090,-0.005864623,-0.000333957,-0.304140180,-0.000997354,0.000277055,-0.000812262,0.003772598,-0.032629143,9.798810005
1784245493.965072,-0.005864623,-0.000333957,-0.304140180,-0.001413426,0.001124686,-0.000364008,0.008997349,-0.045711268,9.801869392
1784245493.967103,-0.005864235,-0.000334111,-0.304140180,-0.001270027,0.001250830,0.000050772,-0.010604983,-0.035838079,9.771876335
1784245493.969081,-0.005864235,-0.000334111,-0.304140180,-0.001005880,0.001053237,0.000315471,0.018515380,-0.039811376,9.774120331
1784245493.971058,-0.005864235,-0.000334111,-0.304140180,-0.001033327,0.000571670,0.000181139,0.034827989,-0.062571585,9.795062065
1784245493.973049,-0.005864570,-0.000335453,-0.304140180,-0.001218958,-0.000082351,-0.000081139,0.006548592,-0.026328593,9.789886475
1784245493.975062,-0.005864570,-0.000335453,-0.304140180,-0.000756769,-0.000545692,-0.000523909,0.010985442,-0.029213766,9.809597969
1784245493.977065,-0.005863568,-0.000336059,-0.304140180,0.000232564,-0.000710719,-0.000772257,0.022815276,-0.055124979,9.777612686
1784245493.979101,-0.005863568,-0.000336059,-0.304140180,0.000703614,-0.000451924,-0.000680684,0.016287288,-0.073198229,9.810667038
1784245493.981076,-0.005863568,-0.000336059,-0.304140180,0.001033696,0.000117054,-0.000990963,-0.000481327,-0.049679413,9.809905052
1784245493.983086,-0.005864041,-0.000334927,-0.304140180,0.001278642,0.000875478,-0.001540007,0.045488905,-0.034482278,9.795252800
1784245493.985069,-0.005864041,-0.000334927,-0.304140180,0.000967511,0.001324601,-0.001833023,0.012110761,-0.047184423,9.814415932
1784245493.987080,-0.005863755,-0.000335106,-0.304140180,0.000823754,0.001071704,-0.001526080,0.020223306,-0.044978157,9.804575920
1784245493.989101,-0.005863755,-0.000335106,-0.304140180,0.001091892,0.000341040,-0.000907787,-0.000398921,-0.040923703,9.838654518
1784245493.991078,-0.005863755,-0.000335106,-0.304140180,0.000907910,-0.000256270,-0.000927679,-0.005955117,-0.056800064,9.812993050
1784245493.993071,-0.005863294,-0.000335028,-0.304140180,0.000307136,-0.000485391,-0.001429164,-0.007966864,-0.075105324,9.807494164
1784245493.995077,-0.005863294,-0.000335028,-0.304140180,-0.000056905,-0.000509768,-0.001685267,0.022697605,-0.063753888,9.794145584
1784245493.997077,-0.005863323,-0.000336406,-0.304140180,-0.000282915,-0.000205182,-0.001671408,0.013144065,-0.074797213,9.789134026
1784245493.999084,-0.005863323,-0.000336406,-0.304140180,-0.000644875,0.000197829,-0.001498150,0.004420213,-0.053659845,9.793745041
1784245494.001076,-0.005863323,-0.000336406,-0.304140180,-0.000672923,0.000595434,-0.001136306,0.040367372,-0.051285755,9.773170471
1784245494.003088,-0.005862838,-0.000337306,-0.304140210,-0.000369271,0.000808154,-0.000637946,0.062056478,-0.038208727,9.785379410
1784245494.005086,-0.005862838,-0.000337306,-0.304140210,0.000030605,0.000815759,-0.000040760,0.031866949,-0.047332469,9.799640656
1784245494.007090,-0.005862820,-0.000338138,-0.304140210,0.000086706,0.000788391,0.000303467,0.009614763,-0.032227311,9.794782639
1784245494.009095,-0.005862820,-0.000338138,-0.304140210,-0.000470056,0.000544781,-0.000079775,0.014631338,-0.024357619,9.813220024
1784245494.011083,-0.005862820,-0.000338138,-0.304140210,-0.000588244,0.000149442,-0.000558291,-0.004876050,-0.041193336,9.821611404
1784245494.013083,-0.005861526,-0.000338227,-0.304140210,0.000010263,-0.000204587,-0.000147989,-0.011640299,-0.042994335,9.835043907
1784245494.015087,-0.005861526,-0.000338227,-0.304140210,0.000372500,-0.000552911,0.000348861,0.016596403,-0.047658082,9.809936523
1784245494.017088,-0.005861349,-0.000338644,-0.304140210,0.000223747,-0.000566562,0.000440716,0.038191073,-0.044242252,9.794734955
1784245494.019088,-0.005861349,-0.000338644,-0.304140210,-0.000078574,-0.000089323,0.000654452,0.008836246,-0.020740524,9.819066048
1784245494.021093,-0.005861349,-0.000338644,-0.304140210,-0.000515352,0.000279227,0.000719670,0.053351376,-0.052081682,9.798733711
1784245494.023092,-0.005861151,-0.000340427,-0.304140210,-0.000908368,0.000227079,0.000350083,0.040988822,-0.034933150,9.803763390
1784245494.025107,-0.005861151,-0.000340427,-0.304140210,-0.000873470,-0.000262694,-0.000191940,0.014444267,-0.040423807,9.804598808
1784245494.027101,-0.005860998,-0.000340755,-0.304140210,-0.000467818,-0.000552145,-0.000495561,0.012259262,-0.073470436,9.793176651
1784245494.029098,-0.005860998,-0.000340755,-0.304140210,-0.000477535,-0.000439272,-0.000137768,-0.021706762,-0.060617771,9.811159134
1784245494.031192,-0.005860998,-0.000340755,-0.304140210,-0.000830895,-0.000535406,0.000464320,-0.012691408,-0.057975035,9.801321983
1784245494.033133,-0.005862124,-0.000339249,-0.304140210,-0.000975916,-0.000334117,0.000489434,0.019915400,-0.070508756,9.803961754
1784245494.035121,-0.005862124,-0.000339249,-0.304140210,-0.000838364,0.000513306,0.000277346,0.010530975,-0.068059184,9.791416168
1784245494.037116,-0.005861920,-0.000340655,-0.304140210,-0.000221289,0.000528552,0.000535501,0.069317773,-0.030358247,9.802474976
1784245494.039114,-0.005861920,-0.000340655,-0.304140210,0.000490854,-0.000220137,0.000882215,0.046331007,-0.038982920,9.796568871
1784245494.041121,-0.005861920,-0.000340655,-0.304140210,0.000562664,-0.000310417,0.001082462,0.022323476,-0.058296289,9.783421516
1784245494.043114,-0.005861581,-0.000342245,-0.304140210,0.000056706,-0.000172065,0.001210538,-0.002050930,-0.069257997,9.793638229
1784245494.045121,-0.005861581,-0.000342245,-0.304140210,-0.000603596,-0.000301899,0.001265988,0.007981870,-0.054331861,9.818851471
1784245494.047116,-0.005861545,-0.000342121,-0.304140210,-0.000937926,-0.000235297,0.001181152,0.014798024,-0.048473775,9.801857948
1784245494.049113,-0.005861545,-0.000342121,-0.304140210,-0.000729673,-0.000192091,0.001192245,-0.006286769,-0.010175177,9.809704781
1784245494.051117,-0.005861545,-0.000342121,-0.304140210,-0.000689038,-0.000341072,0.001469921,0.025612283,-0.009042349,9.781946182
1784245494.053116,-0.005858961,-0.000342727,-0.304140210,-0.000892256,-0.000266436,0.001564545,0.040914305,-0.041195072,9.802377701
1784245494.055119,-0.005858961,-0.000342727,-0.304140210,-0.000807780,-0.000466007,0.001542173,-0.023211220,-0.037634287,9.795165062
1784245494.057123,-0.005856970,-0.000339723,-0.304140210,-0.000638129,-0.000701004,0.001272823,-0.016881406,-0.035309631,9.771873474
1784245494.059120,-0.005856970,-0.000339723,-0.304140210,-0.000438431,-0.000565812,0.000879862,0.002141941,-0.057958089,9.772195816
1784245494.061141,-0.005856970,-0.000339723,-0.304140210,-0.000200735,-0.000358666,0.000323569,0.027190723,-0.064573750,9.775315285
1784245494.063144,-0.005857255,-0.000340379,-0.304140210,-0.000131742,0.000171898,-0.000169994,0.034293786,-0.032540340,9.794357300
1784245494.065156,-0.005857255,-0.000340379,-0.304140210,-0.000027202,0.000662940,-0.000059534,0.013696126,-0.028291918,9.801089287
1784245494.067151,-0.005856091,-0.000340821,-0.304140210,0.000368296,0.000459130,0.000036366,0.018301958,-0.056490861,9.788808823
1784245494.069165,-0.005856091,-0.000340821,-0.304140210,0.000457606,0.000260463,-0.000165145,0.032884628,-0.035452511,9.828409195
1784245494.071153,-0.005856091,-0.000340821,-0.304140210,-0.000164586,0.000175040,0.000030279,0.004882443,-0.016374147,9.779189110
1784245494.073138,-0.005853960,-0.000341113,-0.304140210,-0.000891830,-0.000118889,0.000279228,0.013990034,-0.042082716,9.786655426
1784245494.075141,-0.005853960,-0.000341113,-0.304140210,-0.001347242,-0.000276054,-0.000152741,0.009258686,-0.098159663,9.805120468
1784245494.077142,-0.005855809,-0.000340735,-0.304140210,-0.001439726,-0.000102262,-0.000934786,0.014700075,-0.059783727,9.754262924
1784245494.079141,-0.005855809,-0.000340735,-0.304140210,-0.001358223,0.000523617,-0.000996029,0.042930294,-0.060851432,9.790596962
1784245494.081147,-0.005855809,-0.000340735,-0.304140210,-0.001483634,0.000866365,0.000131799,0.039501961,-0.047779597,9.785746574
1784245494.083151,-0.005855470,-0.000342665,-0.304140210,-0.001653420,0.000541256,0.000895928,0.040205341,-0.062291186,9.808966637
1784245494.085151,-0.005855470,-0.000342665,-0.304140210,-0.001668994,0.000074797,0.000548889,0.028312845,-0.007389924,9.796754837
1784245494.087152,-0.005852433,-0.000343709,-0.304140210,-0.001355170,-0.000304187,0.000242218,0.002705744,-0.009333817,9.801199913
1784245494.089182,-0.005852433,-0.000343709,-0.304140210,-0.000734117,-0.000930585,0.000685401,-0.008661302,-0.020907031,9.810977936
1784245494.091158,-0.005852433,-0.000343709,-0.304140210,0.000117447,-0.001317667,0.000756549,0.030375965,-0.021000592,9.816844940
1784245494.093182,-0.005850681,-0.000344672,-0.304140240,0.000536561,-0.000384784,-0.000286332,0.028063226,-0.028002499,9.797517776
1784245494.095163,-0.005850681,-0.000344672,-0.304140240,0.000667457,0.000837995,-0.001259932,-0.001307959,-0.044651318,9.797383308
1784245494.097157,-0.005850509,-0.000345291,-0.304140240,0.000864551,0.001202937,-0.001520663,0.037986286,-0.060448345,9.805837631
1784245494.099159,-0.005850509,-0.000345291,-0.304140240,0.000528753,0.000715117,-0.001246216,0.027817518,-0.084553093,9.811502457
1784245494.101167,-0.005850509,-0.000345291,-0.304140240,-0.000243489,0.000094451,-0.000886134,0.010040379,-0.071220964,9.795878410
1784245494.103174,-0.005851393,-0.000345737,-0.304140240,-0.000872980,0.000059329,-0.001000689,0.017230956,-0.034444030,9.777740479
1784245494.105172,-0.005851393,-0.000345737,-0.304140240,-0.000497763,0.000152739,-0.001407086,0.037514687,-0.026680779,9.783637047
1784245494.107167,-0.005850737,-0.000346738,-0.304140240,0.000101398,0.000183268,-0.002027766,0.005747045,-0.054639790,9.803154945
1784245494.109173,-0.005850737,-0.000346738,-0.304140240,0.000192358,0.000081579,-0.002210387,-0.012373433,-0.067118071,9.826370239
1784245494.111176,-0.005850737,-0.000346738,-0.304140240,0.000382660,-0.000070262,-0.001621589,-0.007730315,-0.092591077,9.808726311
1784245494.113171,-0.005851986,-0.000345172,-0.304140240,0.000936726,-0.000186351,-0.001029559,0.022453235,-0.046735153,9.795599937
1784245494.115174,-0.005851986,-0.000345172,-0.304140240,0.001905148,0.000119082,-0.000613253,0.034130946,-0.046388973,9.788887978
1784245494.117180,-0.005851186,-0.000347088,-0.304140240,0.002143455,0.000511494,-0.000779122,-0.010047405,-0.060011238,9.830900192
1784245494.119177,-0.005851186,-0.000347088,-0.304140240,0.001319338,0.000537025,-0.000722473,0.014852570,-0.044801056,9.789328575
1784245494.121182,-0.005851186,-0.000347088,-0.304140240,0.000661184,0.000372159,-0.000014402,0.044932827,-0.043429386,9.794297218
1784245494.123178,-0.005850895,-0.000349053,-0.304140240,0.000142924,0.000000706,0.000463855,0.049529523,-0.035731636,9.774623871
1784245494.125185,-0.005850895,-0.000349053,-0.304140240,-0.000231979,-0.000053157,0.000687109,0.004700326,-0.031185476,9.783128738
1784245494.127181,-0.005849101,-0.000349142,-0.304140240,-0.000032409,0.000171720,0.000978333,0.006829616,-0.040221140,9.789798737
1784245494.129235,-0.005849101,-0.000349142,-0.304140240,0.000255511,0.000101122,0.001008888,-0.024218297,-0.010624908,9.779197693
1784245494.131197,-0.005849101,-0.000349142,-0.304140240,-0.000187416,-0.000157933,0.000812332,0.013675981,-0.031287741,9.781344414
1784245494.133186,-0.005848365,-0.000348966,-0.304140240,-0.001070239,-0.000339837,0.000541929,0.044501159,-0.042073391,9.793408394
1784245494.135214,-0.005848365,-0.000348966,-0.304140240,-0.001643731,-0.000829988,-0.000162390,0.015090377,-0.063087359,9.777105331
1784245494.137195,-0.005848336,-0.000348677,-0.304140240,-0.001917875,-0.001331161,-0.000910727,0.023416929,-0.040954955,9.800121307
1784245494.139194,-0.005848336,-0.000348677,-0.304140240,-0.001948548,-0.001086885,-0.001325857,0.005172957,-0.065350130,9.798152924
1784245494.141205,-0.005848336,-0.000348677,-0.304140240,-0.001765479,-0.000299396,-0.001588448,0.001186942,-0.061238121,9.794140816
1784245494.143197,-0.005848444,-0.000347498,-0.304140240,-0.001704954,0.000273740,-0.001563240,0.010821604,-0.081065357,9.792677879
1784245494.145198,-0.005848444,-0.000347498,-0.304140240,-0.001846164,0.000401732,-0.000969126,-0.004682208,-0.064689830,9.786043167
1784245494.147213,-0.005848870,-0.000346749,-0.304140240,-0.001537000,0.000148324,-0.000501493,-0.017290004,-0.067308836,9.799015999
1784245494.149208,-0.005848870,-0.000346749,-0.304140240,-0.001094630,-0.000055625,-0.000323057,0.017025014,-0.051469728,9.778079033
1784245494.151206,-0.005848870,-0.000346749,-0.304140240,-0.001278480,-0.000180965,-0.000157639,0.024238488,-0.048454605,9.782140732
1784245494.153207,-0.005848359,-0.000349069,-0.304140240,-0.001178421,-0.000417464,-0.000254192,0.014451340,-0.040773198,9.790698051
1784245494.155213,-0.005848359,-0.000349069,-0.304140240,-0.000595127,-0.000217050,-0.000357747,0.012937048,-0.018272648,9.779632568
1784245494.157210,-0.005845235,-0.000349713,-0.304140240,-0.000418441,0.000451611,-0.000105735,0.016871225,-0.024414981,9.817256927
1784245494.159212,-0.005845235,-0.000349713,-0.304140240,-0.000345131,0.000761320,-0.000248156,0.026389427,-0.052861590,9.830982208
1784245494.161212,-0.005845235,-0.000349713,-0.304140240,-0.000444956,0.000039062,-0.001079505,0.000279633,-0.063736327,9.769017220
1784245494.163213,-0.005845161,-0.000350793,-0.304140240,-0.001099985,-0.000805467,-0.001579522,0.018180195,-0.067178339,9.779771805
1784245494.165220,-0.005845161,-0.000350793,-0.304140240,-0.001357145,-0.000925179,-0.000947820,-0.001034531,-0.059414349,9.793703079
1784245494.167216,-0.005845226,-0.000349995,-0.304140240,-0.001253134,-0.000835206,-0.000540336,0.000876794,-0.086381175,9.802049637
1784245494.169235,-0.005845226,-0.000349995,-0.304140240,-0.001522493,-0.000997605,-0.000624395,0.008331200,-0.062416803,9.821040154
1784245494.171222,-0.005845226,-0.000349995,-0.304140240,-0.001341808,-0.001214509,0.000054542,0.000785321,-0.054376602,9.838121414
1784245494.173220,-0.005845874,-0.000350200,-0.304140240,-0.000411593,-0.001075699,0.000642323,0.020289598,-0.039186463,9.809095383
1784245494.175228,-0.005845874,-0.000350200,-0.304140240,-0.000019114,-0.000698527,0.000584201,0.007679495,-0.043444674,9.800538063
1784245494.177234,-0.005845057,-0.000350352,-0.304140240,-0.000348220,-0.000435460,0.000594973,0.016208123,-0.041501708,9.827010155
1784245494.179227,-0.005845057,-0.000350352,-0.304140240,-0.000405770,-0.000049674,0.000911072,0.018119905,-0.034522302,9.787156105
1784245494.181228,-0.005845057,-0.000350352,-0.304140240,-0.000010994,0.000391308,0.000709688,0.025295330,-0.072639488,9.778847694
1784245494.183231,-0.005845865,-0.000350182,-0.304140240,0.000344084,0.000191957,0.000217204,0.055072192,-0.057146713,9.814842224
1784245494.185239,-0.005845865,-0.000350182,-0.304140240,0.000490313,-0.000224700,0.000289988,0.021587653,-0.043635618,9.802343369
1784245494.187235,-0.005845366,-0.000350945,-0.304140240,0.000238155,-0.000236929,0.000434322,0.010926214,-0.072944820,9.784659386
1784245494.189240,-0.005845366,-0.000350945,-0.304140240,-0.000650586,-0.000378134,-0.000130306,0.001236830,-0.057196930,9.792820930
1784245494.191251,-0.005845366,-0.000350945,-0.304140240,-0.001029345,-0.000805338,-0.000958204,0.040431593,-0.044699878,9.792041779
1784245494.193242,-0.005844488,-0.000352554,-0.304140240,-0.000996816,-0.000924544,-0.001126516,0.036157988,-0.062716022,9.812995911
1784245494.195265,-0.005844488,-0.000352554,-0.304140240,-0.001602759,-0.000524040,-0.000362875,-0.008808454,-0.072221629,9.781507492
1784245494.197256,-0.005845250,-0.000352228,-0.304140240,-0.002100609,-0.000394768,0.000372952,-0.005871684,-0.051278263,9.792404175
1784245494.199248,-0.005845250,-0.000352228,-0.304140240,-0.001886914,-0.000557359,0.000673806,0.032836858,-0.041097943,9.803266525
1784245494.201246,-0.005845250,-0.000352228,-0.304140240,-0.001598837,-0.000102255,0.001058847,0.043175478,-0.040273841,9.794763565
1784245494.203290,-0.005844798,-0.000354380,-0.304140240,-0.001694224,0.000465456,0.001520695,0.012701828,-0.034313772,9.830638885
1784245494.205332,-0.005844798,-0.000354380,-0.304140240,-0.001714564,0.000357960,0.001619647,0.015327001,-0.040956400,9.814908028
1784245494.207274,-0.005844076,-0.000354543,-0.304140240,-0.001370716,-0.000099212,0.001202793,-0.005344090,-0.044177052,9.800969124
1784245494.209274,-0.005844076,-0.000354543,-0.304140240,-0.001011231,-0.000327097,0.001170655,0.004587205,-0.038562711,9.812670708
1784245494.211263,-0.005844076,-0.000354543,-0.304140240,-0.000894960,-0.000546533,0.001309181,0.016964898,-0.018407065,9.791292191
1784245494.213264,-0.005841273,-0.000355840,-0.304140240,-0.000774420,-0.000830115,0.000976219,-0.018544322,-0.022492904,9.799751282
1784245494.215264,-0.005841273,-0.000355840,-0.304140240,-0.000423380,-0.000191142,0.000341650,-0.001595721,-0.032432970,9.780872345
1784245494.217265,-0.005839304,-0.000355300,-0.304140240,0.000361155,0.000735181,0.000117454,0.005488290,-0.039355673,9.796526909
1784245494.219270,-0.005839304,-0.000355300,-0.304140240,0.001068367,0.000668133,0.000347351,0.021212315,-0.038187563,9.792962074
1784245494.221270,-0.005839304,-0.000355300,-0.304140240,0.001148535,0.000446091,0.000170189,0.021694157,-0.071469009,9.809786797
1784245494.223280,-0.005839779,-0.000356026,-0.304140240,0.000922479,0.000649710,-0.000336377,0.021780754,-0.065111712,9.797722816
1784245494.225298,-0.005839779,-0.000356026,-0.304140240,0.000578649,0.001049198,-0.000252994,0.017154481,-0.041531909,9.766486168
1784245494.227281,-0.005838473,-0.000356741,-0.304140240,0.000433658,0.001121433,0.000077475,0.040284518,-0.056397740,9.799142838
1784245494.229305,-0.005838473,-0.000356741,-0.304140240,0.000576923,0.000723052,0.000045324,0.030617977,-0.038848471,9.805969238
1784245494.231275,-0.005838473,-0.000356741,-0.304140240,0.000412917,0.000687938,-0.000013207,0.020852061,-0.029378401,9.814987183
1784245494.233276,-0.005836619,-0.000357638,-0.304140240,-0.000264332,0.000885248,-0.000199905,0.004628637,-0.034588292,9.820767403
1784245494.235275,-0.005836619,-0.000357638,-0.304140240,-0.001069272,0.000619029,-0.000447002,-0.003661208,-0.054404579,9.787007332
1784245494.237283,-0.005836539,-0.000356709,-0.304140240,-0.002018073,0.000391894,-0.000447253,0.017078178,-0.082966305,9.796707153
1784245494.239343,-0.005836539,-0.000356709,-0.304140240,-0.001965630,0.000469513,-0.000300485,0.037415069,-0.071946494,9.785589218
1784245494.241295,-0.005836539,-0.000356709,-0.304140240,-0.001062521,0.000264301,-0.000121443,-0.015991371,-0.036595061,9.762002945
1784245494.243285,-0.005835660,-0.000355895,-0.304140240,-0.000892954,0.000172078,0.000333463,0.007302720,-0.037602719,9.798781395
1784245494.245290,-0.005835660,-0.000355895,-0.304140240,-0.000727962,0.000625538,0.000812238,0.034065757,-0.050550994,9.807242393
1784245494.247325,-0.005834823,-0.000357901,-0.304140240,-0.000390466,0.000919418,0.000854282,0.031742327,-0.019642159,9.812371254
1784245494.249303,-0.005834823,-0.000357901,-0.304140240,-0.000004600,0.000560118,0.000214022,0.017720634,-0.029668465,9.798394203
1784245494.251289,-0.005834823,-0.000357901,-0.304140240,0.000601585,0.000083966,-0.001083462,0.032327678,-0.046432752,9.798300743
1784245494.253289,-0.005833913,-0.000358746,-0.304140240,0.000465446,-0.000097118,-0.001631520,0.036187503,-0.026514089,9.762565613
1784245494.255296,-0.005833913,-0.000358746,-0.304140240,-0.000012663,-0.000048057,-0.001524918,0.006664933,-0.053679053,9.792401314
1784245494.257298,-0.005834176,-0.000358145,-0.304140240,0.000019662,-0.000013986,-0.001843804,-0.019983947,-0.068503752,9.782865524
1784245494.259320,-0.005834176,-0.000358145,-0.304140240,-0.000013714,-0.000240429,-0.002095651,0.013506919,-0.080343828,9.812412262
1784245494.261303,-0.005834176,-0.000358145,-0.304140240,-0.000218736,-0.000368219,-0.002152836,0.027664522,-0.060328830,9.807622910
1784245494.263295,-0.005834456,-0.000359536,-0.304140240,-0.000091636,-0.000083323,-0.002679349,0.031282499,-0.059745617,9.782075882
1784245494.265299,-0.005834456,-0.000359536,-0.304140240,0.000363989,0.000386531,-0.002447108,-0.001578221,-0.029052777,9.809587479
1784245494.267339,-0.005833248,-0.000358848,-0.304140240,0.000440496,0.000725703,-0.001321600,-0.018679425,-0.032475229,9.817620277
1784245494.269334,-0.005833248,-0.000358848,-0.304140240,0.000041090,0.000514585,-0.001299235,0.006360900,-0.039157677,9.830154419
1784245494.271310,-0.005833248,-0.000358848,-0.304140240,0.000145794,0.000106193,-0.001554509,0.043810673,-0.024623211,9.798004150
1784245494.273307,-0.005832499,-0.000360619,-0.304140240,0.000150379,-0.000066432,-0.001433011,0.024115533,-0.021561652,9.780967712
1784245494.275316,-0.005832499,-0.000360619,-0.304140240,-0.000403121,0.000120578,-0.001470006,-0.001277464,-0.042789519,9.787531853
1784245494.277318,-0.005832446,-0.000360523,-0.304140240,-0.000605390,0.000504975,-0.001224477,-0.003278096,-0.058575533,9.805810928
1784245494.279315,-0.005832446,-0.000360523,-0.304140240,-0.000200363,0.000110863,-0.000687454,0.016080942,-0.055473983,9.775811195
1784245494.281320,-0.005832446,-0.000360523,-0.304140240,0.000383596,-0.000232802,-0.000386354,0.026124848,-0.040865440,9.782638550
1784245494.283320,-0.005831813,-0.000360742,-0.304140240,0.000436316,0.000098716,-0.000471236,0.027470378,-0.041292500,9.777257919
1784245494.285325,-0.005831813,-0.000360742,-0.304140240,0.000256191,0.000076023,-0.001094498,-0.013112891,-0.055322859,9.807167053
1784245494.287363,-0.005831663,-0.000359418,-0.304140240,0.000411035,-0.000231801,-0.001513602,-0.014078652,-0.060308881,9.816997528
1784245494.289353,-0.005831663,-0.000359418,-0.304140240,0.000686483,-0.000300457,-0.001059613,0.004802236,-0.021870501,9.796190262
1784245494.291338,-0.005831663,-0.000359418,-0.304140240,0.000454214,-0.000220806,-0.000566387,0.039207432,0.004001434,9.813426971
1784245494.293359,-0.005829175,-0.000360348,-0.304140240,-0.000088785,0.000328777,-0.000457657,0.042689271,-0.005000602,9.812923431
1784245494.295339,-0.005829175,-0.000360348,-0.304140240,0.000024077,0.000939318,-0.000322314,0.029718317,-0.076039396,9.807971954
1784245494.297348,-0.005829707,-0.000362027,-0.304140240,0.000786617,0.000712113,-0.000443003,0.036620785,-0.062610485,9.797304153
1784245494.299337,-0.005829707,-0.000362027,-0.304140240,0.001178673,0.000336463,-0.001200271,0.043759674,-0.067884043,9.769929886
1784245494.301342,-0.005829707,-0.000362027,-0.304140240,0.001051360,0.000319689,-0.001823365,0.026308229,-0.061607767,9.800886154
1784245494.303426,-0.005829849,-0.000363744,-0.304140240,0.000792690,0.000196060,-0.001429731,-0.008574259,-0.052946582,9.779838562
1784245494.305358,-0.005829849,-0.000363744,-0.304140240,0.000440408,0.000104887,-0.000673893,-0.024178043,-0.082650036,9.763492584
1784245494.307349,-0.005830630,-0.000362323,-0.304140240,-0.000138596,0.000172256,-0.000827060,0.027624700,-0.064290524,9.797733307
1784245494.309348,-0.005830630,-0.000362323,-0.304140240,-0.000598111,0.000007743,-0.001264823,0.016572861,-0.051085968,9.787943840
1784245494.311345,-0.005830630,-0.000362323,-0.304140240,-0.000287210,-0.000377363,-0.000555228,-0.007996376,-0.041801002,9.786636353
1784245494.313349,-0.005829575,-0.000362159,-0.304140240,0.000229498,-0.000518594,0.000215667,0.001258750,-0.056618597,9.774444580
1784245494.315349,-0.005829575,-0.000362159,-0.304140240,0.000448035,-0.000309916,0.000146928,-0.006194830,-0.040149800,9.803235054
1784245494.317348,-0.005827389,-0.000361724,-0.304140240,0.000478862,-0.000266168,0.000366822,0.025389710,-0.027415112,9.782724380
1784245494.319360,-0.005827389,-0.000361724,-0.304140240,0.000262450,-0.000434030,0.001229541,0.027048033,-0.037836600,9.796109200
1784245494.321351,-0.005827389,-0.000361724,-0.304140240,0.000124373,-0.000500204,0.001479279,0.006314113,-0.044390123,9.809945107
1784245494.323355,-0.005825737,-0.000360581,-0.304140240,0.000029531,-0.000201286,0.000814718,0.021903079,-0.091604397,9.805622101
1784245494.325359,-0.005825737,-0.000360581,-0.304140240,-0.000457401,-0.000106677,0.000600019,0.006283150,-0.083035000,9.825839043
1784245494.327358,-0.005825725,-0.000360691,-0.304140240,-0.000711407,-0.000653691,0.000909689,0.006897626,-0.070789993,9.803948402
1784245494.329363,-0.005825725,-0.000360691,-0.304140240,-0.000642208,-0.001052049,0.000666338,-0.000031484,-0.051702395,9.778509140
1784245494.331367,-0.005825725,-0.000360691,-0.304140240,-0.000770446,-0.001107329,0.000652550,0.019518206,-0.028859138,9.807369232
1784245494.333361,-0.005824372,-0.000360634,-0.304140240,-0.000859319,-0.000680998,0.000861735,0.034919202,-0.018182714,9.790413857
1784245494.335366,-0.005824372,-0.000360634,-0.304140240,-0.000920399,-0.000098590,0.000708763,0.011702566,-0.044427320,9.805467606
1784245494.337362,-0.005824506,-0.000360350,-0.304140240,-0.001064631,-0.000414635,0.001152648,0.013376368,-0.054321356,9.807646751
1784245494.339364,-0.005824506,-0.000360350,-0.304140240,-0.001061119,-0.000593261,0.001675043,0.031703357,-0.061997544,9.782957077
1784245494.341369,-0.005824506,-0.000360350,-0.304140240,-0.000594576,0.000317333,0.001773309,0.012578740,-0.046227481,9.805008888
1784245494.343366,-0.005824100,-0.000360825,-0.304140240,0.000266801,0.000740414,0.001952696,0.016244929,-0.078395702,9.785527229
1784245494.345377,-0.005824100,-0.000360825,-0.304140240,0.000578572,0.000383070,0.002566566,0.012310131,-0.069016270,9.796792030
1784245494.347369,-0.005825581,-0.000361311,-0.304140240,-0.000019977,0.000636957,0.002798696,0.023799745,-0.046749219,9.795152664
1784245494.349371,-0.005825581,-0.000361311,-0.304140240,-0.000629245,0.001420630,0.002501513,0.025256848,-0.037784990,9.792072296
1784245494.351370,-0.005825581,-0.000361311,-0.304140240,-0.000604698,0.001929712,0.002736713,0.014417222,-0.042663608,9.804583549
1784245494.353382,-0.005825302,-0.000362052,-0.304140240,-0.000846881,0.001708076,0.003120962,-0.005166924,-0.030620575,9.784468651
1784245494.355384,-0.005825302,-0.000362052,-0.304140240,-0.001353718,0.001082420,0.003361668,0.018943315,-0.039575830,9.803263664
1784245494.357385,-0.005823221,-0.000362662,-0.304140240,-0.000907292,0.000763164,0.003322455,-0.002410476,-0.021232354,9.845502853
1784245494.359389,-0.005823221,-0.000362662,-0.304140240,-0.000091829,0.000618176,0.002825808,0.018320961,-0.016724680,9.804306984
1784245494.361385,-0.005823221,-0.000362662,-0.304140240,0.000356359,0.000388464,0.002408928,0.009082573,-0.036933292,9.827482224
1784245494.363390,-0.005821206,-0.000363609,-0.304140240,0.000430269,0.000260175,0.002050896,0.001118812,-0.066639088,9.797694206
1784245494.365392,-0.005821206,-0.000363609,-0.304140240,0.000180189,0.000353750,0.001176871,0.035260059,-0.063924402,9.795502663
1784245494.367399,-0.005821353,-0.000365441,-0.304140240,-0.000071079,0.000623421,0.000089871,0.052908137,-0.052438043,9.786625862
1784245494.369402,-0.005821353,-0.000365441,-0.304140240,0.000103560,0.000561039,-0.000215473,0.030679662,-0.033498373,9.809590340
1784245494.371395,-0.005821353,-0.000365441,-0.304140240,0.000426534,0.000295501,-0.000113895,0.003866096,-0.061780982,9.802658081
1784245494.373396,-0.005820971,-0.000365651,-0.304140240,0.000443850,-0.000055702,-0.000348002,-0.005322467,-0.079975180,9.794462204
1784245494.375403,-0.005820971,-0.000365651,-0.304140240,0.000289570,-0.000722957,-0.000647467,0.003027266,-0.058064975,9.785644531
1784245494.377399,-0.005821389,-0.000366322,-0.304140240,-0.000075631,-0.001065536,-0.000341724,-0.000856677,-0.081821330,9.794006348
1784245494.379399,-0.005821389,-0.000366322,-0.304140240,-0.000354885,-0.000794974,0.000208816,0.005257824,-0.060222238,9.769942284
1784245494.381438,-0.005821389,-0.000366322,-0.304140240,-0.000627796,-0.000362359,0.000484718,0.009172906,-0.032167509,9.787161827
1784245494.383421,-0.005820164,-0.000366000,-0.304140240,-0.000700726,-0.000067778,0.000884365,0.020258350,-0.007111561,9.772089005
1784245494.385407,-0.005820164,-0.000366000,-0.304140240,-0.000195320,-0.000196647,0.000434353,0.054734185,-0.049782813,9.787988663
1784245494.387440,-0.005820325,-0.000368081,-0.304140300,0.000479479,-0.000505730,-0.000562105,-0.002958337,-0.032546088,9.799252510
1784245494.389417,-0.005820325,-0.000368081,-0.304140300,0.000776603,-0.000052464,-0.000038968,-0.011431496,-0.064346418,9.812938690
1784245494.391414,-0.005820325,-0.000368081,-0.304140300,0.000019668,0.000750675,0.001245811,0.005403528,-0.046103694,9.800518036
1784245494.393409,-0.005819352,-0.000368243,-0.304140300,-0.000586267,0.001178112,0.001567032,0.018337112,-0.054997534,9.767745972
1784245494.395414,-0.005819352,-0.000368243,-0.304140300,-0.000237627,0.000854546,0.001221098,-0.003541515,-0.042922936,9.810393333
1784245494.397410,-0.005818823,-0.000367340,-0.304140240,-0.000025068,0.000098298,0.000803657,0.001436275,-0.039412033,9.811766624
1784245494.399410,-0.005818823,-0.000367340,-0.304140240,-0.000352731,0.000092005,0.000592082,0.003847868,-0.025550803,9.811408997
1784245494.401419,-0.005818823,-0.000367340,-0.304140240,-0.000789543,0.000143997,0.000365745,0.027963169,-0.034871351,9.818546295
1784245494.403424,-0.005816806,-0.000368433,-0.304140300,-0.000985356,-0.000320105,-0.000343296,0.034240775,-0.075817071,9.768525124
1784245494.405425,-0.005816806,-0.000368433,-0.304140300,-0.000875653,-0.000680357,-0.000624874,0.011283608,-0.043376204,9.784401894
1784245494.407423,-0.005816149,-0.000368620,-0.304140300,-0.000648155,-0.000656844,-0.000755965,-0.008467965,-0.005196596,9.806595802
1784245494.409428,-0.005816149,-0.000368620,-0.304140300,-0.000171458,-0.000336307,-0.000975642,0.000015773,-0.009686875,9.792676926
1784245494.411425,-0.005816149,-0.000368620,-0.304140300,0.000589186,-0.000271020,-0.000847126,-0.000827900,-0.043598987,9.774525642
1784245494.413427,-0.005815514,-0.000368100,-0.304140300,0.000906134,-0.000488897,-0.001080291,-0.024674207,-0.049076434,9.768639565
1784245494.415424,-0.005815514,-0.000368100,-0.304140300,0.000848993,-0.000553853,-0.001358396,0.009673738,-0.063272752,9.812966347
1784245494.417423,-0.005815910,-0.000368144,-0.304140300,0.000861625,-0.000549199,-0.001325943,0.043516874,-0.047205687,9.823861122
1784245494.419425,-0.005815910,-0.000368144,-0.304140300,0.000760769,-0.000671169,-0.001212916,0.017945154,-0.048059702,9.800966263
1784245494.421432,-0.005815910,-0.000368144,-0.304140300,0.000186338,-0.000268643,-0.001128635,0.004706887,-0.064671032,9.829541206
1784245494.423430,-0.005816920,-0.000367151,-0.304140300,-0.000626192,0.000388273,-0.000975578,0.013504396,-0.043989632,9.803679466
1784245494.425431,-0.005816920,-0.000367151,-0.304140300,-0.000646916,0.000159366,-0.000975422,0.027973637,-0.034788687,9.806889534
1784245494.427429,-0.005815837,-0.000368491,-0.304140300,0.000186157,-0.000195532,-0.001137476,0.059641380,-0.050881878,9.807712555
1784245494.429431,-0.005815837,-0.000368491,-0.304140300,0.000906346,0.000099582,-0.000746815,-0.006993145,-0.065598711,9.855077744
1784245494.431437,-0.005815837,-0.000368491,-0.304140300,0.000903684,0.000085048,-0.000265769,0.009820584,-0.051171426,9.812148094
1784245494.433436,-0.005816021,-0.000368531,-0.304140300,0.000322731,-0.000025521,-0.000205638,0.002981807,-0.027318060,9.746388435
1784245494.435440,-0.005816021,-0.000368531,-0.304140300,-0.000602027,0.000226313,-0.000648178,0.028364908,-0.040516179,9.792505264
1784245494.437445,-0.005815333,-0.000369524,-0.304140300,-0.001146396,0.000607917,-0.001221979,0.012168236,-0.045109596,9.774528503
1784245494.439439,-0.005815333,-0.000369524,-0.304140300,-0.000765924,0.000999100,-0.000916049,-0.007839646,-0.067616791,9.762259483
1784245494.441449,-0.005815333,-0.000369524,-0.304140300,-0.000184699,0.001027366,-0.000459456,0.013495754,-0.047299873,9.765101433
1784245494.443449,-0.005814951,-0.000369944,-0.304140300,-0.000121197,0.001073601,-0.000741024,0.000868282,-0.050884746,9.787931442
1784245494.445455,-0.005814951,-0.000369944,-0.304140300,-0.000182720,0.001145218,-0.001072465,0.025806025,-0.028081859,9.812758446
1784245494.447451,-0.005814146,-0.000370849,-0.304140300,0.000110162,0.000758890,-0.000846476,0.026014199,-0.049033668,9.797382355
1784245494.449454,-0.005814146,-0.000370849,-0.304140300,0.000410950,0.000311419,-0.000177181,0.016111044,-0.050778531,9.808569908
1784245494.451451,-0.005814146,-0.000370849,-0.304140300,0.000469071,0.000009051,-0.000321545,0.033096179,-0.093562230,9.808758736
1784245494.453459,-0.005815002,-0.000371275,-0.304140300,0.000385920,-0.000189656,-0.000787827,0.046276279,-0.080652229,9.796750069
1784245494.455454,-0.005815002,-0.000371275,-0.304140300,0.000358509,-0.000412411,-0.000207249,0.027770000,-0.050175168,9.828759193
1784245494.457454,-0.005814850,-0.000371461,-0.304140300,0.000389941,-0.000845007,0.000178169,0.033752102,-0.039752841,9.801483154
1784245494.459457,-0.005814850,-0.000371461,-0.304140300,0.000230317,-0.001442625,-0.000120580,0.038853422,-0.062725089,9.809411049
1784245494.461458,-0.005814850,-0.000371461,-0.304140300,-0.000138299,-0.001803267,-0.000338201,0.031205179,-0.063192956,9.825989723
1784245494.463461,-0.005815239,-0.000372791,-0.304140300,-0.000145231,-0.001277069,-0.000455820,0.005546915,-0.071214356,9.803047180
1784245494.465467,-0.005815239,-0.000372791,-0.304140300,0.000198469,-0.000429077,-0.000610569,0.015693644,-0.048904616,9.797821045
1784245494.467466,-0.005814795,-0.000373438,-0.304140300,0.000715601,-0.000263074,-0.000905913,0.043743413,-0.030827895,9.788549423
1784245494.469474,-0.005814795,-0.000373438,-0.304140300,0.001323632,-0.000469176,-0.001032264,0.023275383,-0.050988156,9.825162888
1784245494.471468,-0.005814795,-0.000373438,-0.304140300,0.001585349,-0.000618472,-0.000944074,0.007621487,-0.049576230,9.780772209
1784245494.473469,-0.005814482,-0.000373239,-0.304140300,0.001234147,-0.000685059,-0.000934610,0.026718598,-0.066779189,9.771265030
1784245494.475476,-0.005814482,-0.000373239,-0.304140300,0.000149529,-0.000349746,-0.000421443,-0.007138389,-0.045771014,9.776298523
1784245494.477470,-0.005814366,-0.000372483,-0.304140300,-0.000802950,-0.000050280,0.000042702,-0.019896198,-0.061326832,9.781567574
1784245494.479472,-0.005814366,-0.000372483,-0.304140300,-0.000665580,0.000000354,-0.000178392,-0.001001098,-0.056313597,9.798653603
1784245494.481473,-0.005814366,-0.000372483,-0.304140300,-0.000184934,0.000175470,-0.000067304,0.000185386,-0.070154049,9.789598465
1784245494.483475,-0.005815259,-0.000371967,-0.304140300,-0.000362383,0.000090304,0.000408738,0.025532587,-0.050908796,9.809922218
1784245494.485488,-0.005815259,-0.000371967,-0.304140300,-0.001003854,-0.000471521,0.000968553,0.032850090,-0.040182944,9.800582886
1784245494.487484,-0.005815065,-0.000373884,-0.304140300,-0.001219305,-0.000991738,0.001412259,0.019657394,-0.054408208,9.808548927
1784245494.489490,-0.005815065,-0.000373884,-0.304140300,-0.001173658,-0.001118361,0.001322029,0.015055464,-0.062147293,9.834050179
1784245494.491486,-0.005815065,-0.000373884,-0.304140300,-0.001568220,-0.000752913,0.000752718,0.013625622,-0.106865138,9.824346542
1784245494.493482,-0.005817450,-0.000373988,-0.304140300,-0.001437123,-0.000221766,0.000430381,0.025643060,-0.077900320,9.824993134
1784245494.495486,-0.005817450,-0.000373988,-0.304140300,-0.000620942,0.000028526,0.000665292,0.019764885,-0.044238646,9.827445030
1784245494.497485,-0.005816326,-0.000374348,-0.304140300,-0.000226403,0.000105023,0.000835515,0.034818269,-0.061837830,9.817931175
1784245494.499492,-0.005816326,-0.000374348,-0.304140300,-0.000064261,0.000182867,0.000508150,-0.017238723,-0.060014635,9.844345093
1784245494.501488,-0.005816326,-0.000374348,-0.304140300,0.000234804,0.000220511,0.000125434,-0.017619602,-0.059068080,9.774858475
1784245494.503512,-0.005815698,-0.000373217,-0.304140300,0.000595612,0.000207075,0.000388184,0.017363230,-0.062073912,9.756491661
1784245494.505503,-0.005815698,-0.000373217,-0.304140300,0.000528567,-0.000195582,0.000649088,0.027838938,-0.010014711,9.788667679
1784245494.507499,-0.005813780,-0.000373806,-0.304140300,-0.000011275,-0.000770942,0.000728492,0.039520618,-0.008826664,9.789582253
1784245494.509505,-0.005813780,-0.000373806,-0.304140300,-0.000995898,-0.000662729,0.000950802,0.013022609,-0.046271387,9.810388565
1784245494.511517,-0.005813780,-0.000373806,-0.304140300,-0.001766017,-0.000422220,0.001257984,0.003724767,-0.075054474,9.779259682
1784245494.513512,-0.005813971,-0.000373671,-0.304140300,-0.001861918,-0.000649669,0.001751035,0.022778055,-0.055824134,9.813026428
1784245494.515505,-0.005813971,-0.000373671,-0.304140300,-0.001599810,-0.000277196,0.001824915,0.027198507,-0.025706679,9.791255951
1784245494.517511,-0.005812884,-0.000374521,-0.304140300,-0.000981211,0.000894807,0.001017946,0.021993650,-0.049652092,9.765542030
1784245494.519511,-0.005812884,-0.000374521,-0.304140300,-0.000803923,0.001535999,0.000356251,-0.014501691,-0.058479492,9.812525749
1784245494.521512,-0.005812884,-0.000374521,-0.304140300,-0.000790937,0.001337165,0.000068889,0.009608090,-0.031874739,9.808235168
1784245494.523508,-0.005811916,-0.000374542,-0.304140300,-0.000148764,0.001167828,-0.000193738,0.042004701,-0.061062519,9.821978569
1784245494.525516,-0.005811916,-0.000374542,-0.304140300,0.000499410,0.001076418,-0.000041610,0.033557389,-0.018289478,9.807897568
1784245494.527521,-0.005810558,-0.000375153,-0.304140300,0.000500388,0.000889466,-0.000022465,0.008704459,-0.069907524,9.802610397
1784245494.529521,-0.005810558,-0.000375153,-0.304140300,-0.000203254,0.000762750,-0.000316465,-0.001850921,-0.088653259,9.811448097
1784245494.531545,-0.005810558,-0.000375153,-0.304140300,-0.000989078,0.000563175,-0.000170636,0.049179666,-0.063619688,9.790584564
1784245494.533522,-0.005811329,-0.000376364,-0.304140329,-0.001199762,0.000431885,-0.000063748,0.024976978,-0.023072837,9.802927017
1784245494.535528,-0.005811329,-0.000376364,-0.304140329,-0.001044810,0.000405687,-0.000111367,0.005289309,-0.055110615,9.807186127
1784245494.537526,-0.005811206,-0.000376494,-0.304140329,-0.000718943,0.000076659,0.000123332,-0.013736987,-0.071291097,9.785543442
1784245494.539560,-0.005811206,-0.000376494,-0.304140329,-0.000499199,-0.000091733,0.000439091,-0.002928194,-0.066250667,9.813382149
1784245494.541529,-0.005811206,-0.000376494,-0.304140329,-0.000698216,0.000093351,0.001013247,0.031424571,-0.048492528,9.774524689
1784245494.543523,-0.005811723,-0.000377017,-0.304140329,-0.000970814,0.000139341,0.001466919,0.028167315,-0.021101840,9.772006989
1784245494.545536,-0.005811723,-0.000377017,-0.304140329,-0.000462744,0.000239213,0.001473975,0.014919852,-0.001006410,9.805300713
1784245494.547540,-0.005809025,-0.000377428,-0.304140329,0.000578396,0.000450056,0.001264328,0.008674946,-0.036603212,9.781752586
1784245494.549530,-0.005809025,-0.000377428,-0.304140329,0.000957601,0.000696299,0.001346190,0.023127556,-0.028749332,9.785404205
1784245494.551529,-0.005809025,-0.000377428,-0.304140329,0.000822705,0.001242093,0.001082282,0.024668146,-0.049826499,9.785270691
1784245494.553532,-0.005807935,-0.000378726,-0.304140329,0.000690382,0.001627932,-0.000066839,0.007708488,-0.077968866,9.803902626
1784245494.555540,-0.005807935,-0.000378726,-0.304140329,0.000660954,0.001387088,-0.001033125,0.002369179,-0.071870081,9.838010788
1784245494.557539,-0.005808177,-0.000378796,-0.304140329,0.000761411,0.000900903,-0.001178986,0.013011215,-0.047577113,9.805000305
1784245494.559537,-0.005808177,-0.000378796,-0.304140329,0.000323780,0.000155474,-0.001161873,-0.004694857,-0.027605060,9.800628662
1784245494.561543,-0.005808177,-0.000378796,-0.304140329,-0.000449244,-0.000615881,-0.001277763,0.014094818,-0.033555552,9.784468651
1784245494.563541,-0.005807087,-0.000378786,-0.304140329,-0.000793268,-0.000859614,-0.000800460,0.017429128,-0.053448562,9.803622246
1784245494.565545,-0.005807087,-0.000378786,-0.304140329,-0.000583455,-0.000250502,-0.000393480,-0.000042128,-0.086944826,9.819978714
1784245494.567547,-0.005807805,-0.000378604,-0.304140329,-0.000137395,0.000445156,-0.000600581,0.001566013,-0.068277702,9.775266647
1784245494.569559,-0.005807805,-0.000378604,-0.304140329,-0.000234311,0.000328505,-0.001080528,0.042929444,-0.022457756,9.810122490
1784245494.571552,-0.005807805,-0.000378604,-0.304140329,-0.000744448,-0.000291158,-0.001524101,0.022873981,-0.012613794,9.785058022
1784245494.573553,-0.005805623,-0.000379755,-0.304140329,-0.000718008,-0.000623531,-0.001412699,0.010595944,-0.025903761,9.785858154
1784245494.575554,-0.005805623,-0.000379755,-0.304140329,-0.000621990,-0.000452618,-0.001311070,0.004915984,-0.049646661,9.795563698
1784245494.577556,-0.005805820,-0.000379859,-0.304140329,-0.000625420,-0.000452537,-0.001364206,0.000077045,-0.041929923,9.790227890
1784245494.579554,-0.005805820,-0.000379859,-0.304140329,0.000042876,-0.000139932,-0.000714140,0.009822314,-0.049942017,9.828294754
1784245494.581555,-0.005805820,-0.000379859,-0.304140329,0.000825163,0.000677921,-0.000128505,-0.007077682,-0.075587027,9.810629845
1784245494.583559,-0.005806834,-0.000379343,-0.304140329,0.000906848,0.001156309,-0.000244860,0.019351441,-0.079112828,9.817805290
1784245494.585564,-0.005806834,-0.000379343,-0.304140329,0.000566963,0.001329899,-0.000457596,0.029526372,-0.053743698,9.823357582
1784245494.587566,-0.005806575,-0.000379547,-0.304140329,0.000770910,0.001450382,-0.000431369,0.013206730,-0.069034122,9.797688484
1784245494.589563,-0.005806575,-0.000379547,-0.304140329,0.001241640,0.001228803,-0.000431526,0.036074948,-0.071071476,9.790972710
1784245494.591568,-0.005806575,-0.000379547,-0.304140329,0.000982985,0.000588668,-0.000561627,0.007529654,-0.055974875,9.798665047
1784245494.593565,-0.005806773,-0.000379751,-0.304140329,0.000255795,0.000434906,-0.000781881,0.005437310,-0.042189695,9.817132950
1784245494.595573,-0.005806773,-0.000379751,-0.304140329,0.000001957,0.000752009,-0.000957556,0.013081596,-0.039726853,9.835089684
1784245494.597569,-0.005805859,-0.000380063,-0.304140329,0.000103599,0.000815497,-0.000688872,-0.006661838,-0.078283727,9.811061859
1784245494.599573,-0.005805859,-0.000380063,-0.304140329,-0.000022724,0.000772584,-0.000277332,0.008274161,-0.105725333,9.799690247
1784245494.601570,-0.005805859,-0.000380063,-0.304140329,-0.000148178,0.000923667,-0.000301499,0.017756756,-0.065352127,9.775748253
1784245494.603578,-0.005807567,-0.000381009,-0.304140329,-0.000150495,0.000906884,-0.000337721,0.035829667,-0.017685842,9.781900406
1784245494.605577,-0.005807567,-0.000381009,-0.304140329,-0.000246521,0.000535581,-0.000348208,0.056056596,-0.016044604,9.766688347
1784245494.607577,-0.005806589,-0.000382741,-0.304140329,-0.000660716,0.000091908,-0.000862809,0.017772753,-0.063604794,9.782036781
1784245494.609596,-0.005806589,-0.000382741,-0.304140329,-0.000727312,-0.000251063,-0.001363790,-0.008107667,-0.052405804,9.765943527
1784245494.611601,-0.005806589,-0.000382741,-0.304140329,0.000274244,-0.000263457,-0.001202256,0.025580276,-0.050126970,9.762852669
1784245494.613592,-0.005806262,-0.000383414,-0.304140329,0.000928754,-0.000436326,-0.000652369,-0.004805810,-0.074986584,9.785080910
1784245494.615590,-0.005806262,-0.000383414,-0.304140329,0.000568905,-0.001003550,-0.000201414,-0.001406933,-0.052727334,9.799125671
1784245494.617589,-0.005805844,-0.000382794,-0.304140329,0.000238406,-0.001108383,-0.000142066,0.007531211,-0.055152077,9.808980942
1784245494.619598,-0.005805844,-0.000382794,-0.304140329,0.000167376,-0.000608616,-0.000420284,0.017016971,-0.048696481,9.829207420
1784245494.621599,-0.005805844,-0.000382794,-0.304140329,0.000060023,-0.000194924,0.000189556,0.022877658,-0.048148379,9.804557800
1784245494.623593,-0.005805970,-0.000383285,-0.304140329,0.000049431,-0.000168810,0.001372517,0.026025835,-0.010541422,9.803007126
1784245494.625601,-0.005805970,-0.000383285,-0.304140329,0.000279174,-0.000006139,0.001874432,0.013789287,-0.020667046,9.799794197
1784245494.627597,-0.005805364,-0.000382765,-0.304140329,0.000397609,0.000563980,0.002061992,-0.037012707,-0.064870119,9.806634903
1784245494.629598,-0.005805364,-0.000382765,-0.304140329,0.000822676,0.000473557,0.001889468,0.001107939,-0.031971816,9.774154663
1784245494.631598,-0.005805364,-0.000382765,-0.304140329,0.001250985,-0.000471350,0.001073108,0.017393051,-0.056164946,9.807640076
1784245494.633603,-0.005805275,-0.000383653,-0.304140329,0.000824588,-0.000846974,0.000677538,0.001172043,-0.061355766,9.810729027
1784245494.635610,-0.005805275,-0.000383653,-0.304140329,0.000102468,-0.000650078,0.000698217,0.001979846,-0.070990294,9.777939796
1784245494.637604,-0.005805837,-0.000383225,-0.304140329,-0.000109674,-0.000055729,0.000012272,0.025611870,-0.046635494,9.775877953
1784245494.639605,-0.005805837,-0.000383225,-0.304140329,-0.000473130,0.001012571,-0.000989674,0.042398628,-0.029584406,9.805143356
1784245494.641606,-0.005805837,-0.000383225,-0.304140329,-0.001088130,0.001322408,-0.001036779,0.014764298,-0.053197850,9.773134232
1784245494.643608,-0.005806034,-0.000384790,-0.304140329,-0.001146511,0.000963185,-0.000297507,-0.004663620,-0.062516794,9.795472145
1784245494.645610,-0.005806034,-0.000384790,-0.304140329,-0.001097885,0.000719950,0.000006620,0.015826331,-0.073694490,9.818285942
1784245494.647613,-0.005806601,-0.000385592,-0.304140359,-0.000973233,0.000363793,-0.000097615,0.015212595,-0.053206779,9.773583412
1784245494.649618,-0.005806601,-0.000385592,-0.304140359,-0.000772737,0.000246262,-0.000028170,0.010808961,-0.043980576,9.807262421
1784245494.651614,-0.005806601,-0.000385592,-0.304140359,0.000099567,0.000580698,0.000693832,-0.013421592,-0.043269854,9.813968658
1784245494.653619,-0.005805899,-0.000384129,-0.304140329,0.001420592,0.000795730,0.001744235,0.000164340,-0.033946116,9.801487923
1784245494.655619,-0.005805899,-0.000384129,-0.304140329,0.001585247,0.000710319,0.002290204,0.050706401,-0.047621623,9.806381226
1784245494.657623,-0.005806083,-0.000386508,-0.304140359,0.000386145,0.000594197,0.002053728,0.024209255,-0.085870065,9.814181328
1784245494.659620,-0.005806083,-0.000386508,-0.304140359,-0.000920641,0.000515934,0.001610027,-0.017066801,-0.049336333,9.791509628
1784245494.661625,-0.005806083,-0.000386508,-0.304140359,-0.001368826,0.000237276,0.001322465,0.007482237,-0.060807053,9.785181999
1784245494.663622,-0.005805578,-0.000386732,-0.304140359,-0.001206423,0.000083446,0.001041823,-0.003726047,-0.057753347,9.817023277
1784245494.665627,-0.005805578,-0.000386732,-0.304140359,-0.000710357,-0.000107566,0.001306885,0.007554580,-0.017377691,9.789496422
1784245494.667627,-0.005803268,-0.000387024,-0.304140359,0.000008971,-0.000609895,0.001390214,0.014582820,-0.030819485,9.776864052
1784245494.669630,-0.005803268,-0.000387024,-0.304140359,0.000353876,-0.001092153,0.000186360,0.021305528,-0.066125885,9.815198898
1784245494.671629,-0.005803268,-0.000387024,-0.304140359,-0.000006787,-0.001254779,-0.001033541,0.020983290,-0.059448048,9.758753777
1784245494.673630,-0.005803634,-0.000386695,-0.304140359,-0.000199880,-0.001363307,-0.000730641,0.057051815,-0.043552816,9.789825439
1784245494.675636,-0.005803634,-0.000386695,-0.304140359,-0.000127477,-0.001577080,0.000536612,-0.000604993,-0.062002935,9.778890610
1784245494.677634,-0.005803832,-0.000386372,-0.304140359,-0.000286460,-0.001384670,0.000829583,0.000629242,-0.107787922,9.788461685
1784245494.679635,-0.005803832,-0.000386372,-0.304140359,-0.000253523,-0.001060578,0.000141679,0.005712163,-0.094936594,9.799309731
1784245494.681668,-0.005803832,-0.000386372,-0.304140359,-0.000175075,-0.000789513,-0.000286963,0.005894391,-0.081745401,9.771148682
1784245494.683645,-0.005804815,-0.000386668,-0.304140359,-0.000298071,-0.000518437,-0.000544945,-0.031688351,-0.070276484,9.801224709
1784245494.685650,-0.005804815,-0.000386668,-0.304140359,-0.000154615,-0.000381014,-0.000155189,-0.017431539,-0.004998942,9.794932365
1784245494.687675,-0.005801585,-0.000386227,-0.304140359,0.000365237,-0.000181592,0.000815927,0.038489085,-0.018384513,9.812384605
1784245494.689658,-0.005801585,-0.000386227,-0.304140359,0.000422243,0.000291693,0.001434432,0.050144412,-0.020646608,9.794448853
1784245494.691649,-0.005801585,-0.000386227,-0.304140359,0.000033533,0.000807977,0.001090998,0.023769317,-0.011831122,9.799410820
1784245494.693655,-0.005798325,-0.000387762,-0.304140359,-0.000485765,0.000816284,-0.000407189,0.021790886,-0.063005447,9.816565514
1784245494.695655,-0.005798325,-0.000387762,-0.304140359,-0.001015051,0.000300216,-0.001212922,0.010571706,-0.065711267,9.776187897
1784245494.697657,-0.005798471,-0.000387519,-0.304140359,-0.000969982,-0.000158683,-0.000770715,0.013347537,-0.056980509,9.803595543
1784245494.699661,-0.005798471,-0.000387519,-0.304140359,-0.000989244,-0.000224429,-0.000122226,0.045960210,-0.069873154,9.793680191
1784245494.701657,-0.005798471,-0.000387519,-0.304140359,-0.001669701,0.000021299,0.000603494,0.002492194,-0.064819969,9.791429520
1784245494.703692,-0.005798318,-0.000387898,-0.304140359,-0.002146132,0.000185644,0.000554464,0.010288037,-0.051434364,9.785244942
1784245494.705673,-0.005798318,-0.000387898,-0.304140359,-0.001990448,-0.000163937,-0.000150986,0.006047639,-0.031193184,9.781785011
1784245494.707666,-0.005796288,-0.000388036,-0.304140359,-0.001607210,-0.000477503,-0.000339866,0.021928648,-0.015817516,9.796244621
1784245494.709670,-0.005796288,-0.000388036,-0.304140359,-0.000908801,-0.000334240,-0.000185897,0.008536285,-0.009834269,9.798064232
1784245494.711673,-0.005796288,-0.000388036,-0.304140359,-0.000312564,-0.000553365,-0.000310070,-0.004374936,-0.038758963,9.793383598
1784245494.713670,-0.005794389,-0.000387554,-0.304140329,-0.000279878,-0.001016199,-0.000150130,0.011697722,-0.082055442,9.804328918
1784245494.715670,-0.005794389,-0.000387554,-0.304140329,-0.000360495,-0.000869364,0.000474366,0.009297124,-0.059860997,9.774879456
1784245494.717668,-0.005794044,-0.000387979,-0.304140329,0.000051404,-0.000766032,0.000695358,-0.005651705,-0.033331208,9.788485527
1784245494.719673,-0.005794044,-0.000387979,-0.304140329,0.000333630,-0.000812462,0.000187726,-0.006987797,-0.067177519,9.825029373
1784245494.721672,-0.005794044,-0.000387979,-0.304140329,0.000057609,-0.000316903,-0.000540931,0.011510490,-0.060938288,9.796395302
1784245494.723675,-0.005793996,-0.000387884,-0.304140329,-0.000091507,-0.000119775,-0.000855959,0.027703995,-0.057180382,9.805849075
1784245494.725677,-0.005793996,-0.000387884,-0.304140329,0.000412050,-0.000269207,-0.001338839,-0.014167733,-0.068712033,9.801699638
1784245494.727683,-0.005794262,-0.000386659,-0.304140329,0.000909838,-0.000000721,-0.001814664,0.030360894,-0.021524861,9.827600479
1784245494.729716,-0.005794262,-0.000386659,-0.304140329,0.000893193,0.000339964,-0.001673693,0.036272660,-0.054516006,9.793769836
1784245494.731695,-0.005794262,-0.000386659,-0.304140329,0.000752410,0.000461660,-0.001265025,0.006494906,-0.030805029,9.789409637
1784245494.733690,-0.005792335,-0.000387688,-0.304140329,0.000251219,0.000464838,-0.001004528,0.006784089,-0.081007242,9.791777611
1784245494.735687,-0.005792335,-0.000387688,-0.304140329,-0.000579775,0.000815378,-0.001012129,0.004442696,-0.090261675,9.774230957
1784245494.737705,-0.005794059,-0.000387578,-0.304140329,-0.000968933,0.001101533,-0.000547804,0.026078405,-0.080037773,9.809735298
1784245494.739705,-0.005794059,-0.000387578,-0.304140329,-0.000447915,0.000473134,-0.000176829,0.002763379,-0.079195455,9.796268463
1784245494.741694,-0.005794059,-0.000387578,-0.304140329,0.000435244,-0.000364298,-0.000521654,-0.009116002,-0.059349019,9.799076080
1784245494.743737,-0.005795109,-0.000386997,-0.304140329,0.000536277,-0.000898395,-0.000466413,0.014775998,-0.012678831,9.808813095
1784245494.745702,-0.005795109,-0.000386997,-0.304140329,-0.000185810,-0.001156889,0.000223158,0.016778346,-0.033253375,9.800163269
1784245494.747708,-0.005794181,-0.000387436,-0.304140329,-0.000634848,-0.000844045,0.001053350,-0.003582758,-0.008900769,9.814647675
1784245494.749710,-0.005794181,-0.000387436,-0.304140329,-0.000721345,-0.000219433,0.001119175,0.023922203,0.000317884,9.791867256
1784245494.751698,-0.005794181,-0.000387436,-0.304140329,-0.000763760,0.000276790,0.000282851,0.005089408,-0.072088622,9.800800323
1784245494.753697,-0.005794035,-0.000387495,-0.304140329,-0.000743756,0.000314191,-0.000400335,0.016245104,-0.077989072,9.791357994
1784245494.755713,-0.005794035,-0.000387495,-0.304140329,-0.000516525,0.000118174,-0.000086602,0.027061135,-0.075728267,9.768966675
1784245494.757704,-0.005795137,-0.000389371,-0.304140329,-0.000097990,0.000059877,0.000594116,0.000390524,-0.053134702,9.790157318
1784245494.759702,-0.005795137,-0.000389371,-0.304140329,0.000058161,-0.000516536,0.000364729,0.016611530,-0.047943883,9.787068367
1784245494.761708,-0.005795137,-0.000389371,-0.304140329,-0.000642778,-0.001070551,0.000015063,0.031479184,-0.042793047,9.792046547
1784245494.763707,-0.005794341,-0.000390871,-0.304140329,-0.001907820,-0.001015920,-0.000256362,0.007135903,-0.052293219,9.785686493
1784245494.765717,-0.005794341,-0.000390871,-0.304140329,-0.002340292,-0.001013963,-0.001013133,-0.007888608,-0.070434928,9.780623436
1784245494.767710,-0.005795167,-0.000390453,-0.304140329,-0.002043832,-0.001219778,-0.001131371,0.015137285,-0.056638218,9.815255165
