time_sec,roll_rad,pitch_rad,yaw_rad,gyro_x,gyro_y,gyro_z,acc_x,acc_y,acc_z
1784245541.211177,-0.007735098,0.010007056,-0.531519890,0.000025616,0.001685581,0.000811659,-0.099909969,-0.070362121,9.810125351
1784245541.213063,-0.007733533,0.010014410,-0.531516731,0.000127239,0.002238476,0.000983576,-0.074325047,-0.109019905,9.781657219
1784245541.215064,-0.007731633,0.010014430,-0.531520069,0.000323322,0.002138396,0.000709068,-0.090681843,-0.088229597,9.785810471
1784245541.217049,-0.007730545,0.010012866,-0.531522870,0.000442415,0.001456208,0.000108519,-0.115257919,-0.078998670,9.792121887
1784245541.219057,-0.007729031,0.010012223,-0.531521082,0.000545451,0.000866967,0.000013522,-0.101258218,-0.071577467,9.794425011
1784245541.221097,-0.007728028,0.010006409,-0.531528950,0.000618219,0.000151851,-0.000400263,-0.091764219,-0.064651638,9.811514854
1784245541.223076,-0.007726468,0.010005031,-0.531526923,0.000598673,-0.000386431,-0.000683861,-0.101774402,-0.077372953,9.791248322
1784245541.225115,-0.007730145,0.010003261,-0.531525254,0.000260368,-0.000509066,-0.000239608,-0.085902326,-0.064094007,9.785521507
1784245541.227055,-0.007729821,0.010003040,-0.531525373,-0.000038999,-0.000506952,-0.000059963,-0.069665551,-0.056752410,9.794999123
1784245541.229063,-0.007724272,0.010001048,-0.531525731,0.000268538,-0.000420200,-0.000072198,-0.069889270,-0.075944781,9.785013199
1784245541.231050,-0.007725533,0.009999522,-0.531522036,0.000382517,-0.000447360,0.000170936,-0.096654475,-0.060582191,9.815123558
1784245541.233079,-0.007728127,0.010001264,-0.531523228,-0.000020317,-0.000263584,0.000294263,-0.096516728,-0.050984226,9.788284302
1784245541.235059,-0.007729706,0.009996820,-0.531522214,-0.000333567,-0.000326377,0.000202461,-0.085457928,-0.062918022,9.808393478
1784245541.237082,-0.007727239,0.009999485,-0.531524658,-0.000181688,-0.000357665,0.000046009,-0.114877053,-0.082782075,9.819446564
1784245541.239076,-0.007726057,0.010000059,-0.531526387,0.000167538,-0.000093937,-0.000246508,-0.121009275,-0.072604790,9.785432816
1784245541.241086,-0.007723616,0.009998486,-0.531526506,0.000418435,-0.000190760,-0.000298752,-0.102561496,-0.067169629,9.807004929
1784245541.243072,-0.007718650,0.010000664,-0.531527698,0.000765009,-0.000155286,-0.000299857,-0.125091150,-0.074923210,9.803795815
1784245541.245061,-0.007717515,0.010003081,-0.531529844,0.000930359,0.000142370,-0.000443700,-0.093071885,-0.061088867,9.816916466
1784245541.247053,-0.007717736,0.010007624,-0.531538367,0.000747022,0.000581574,-0.001053183,-0.091348499,-0.068565041,9.794005394
1784245541.249051,-0.007715730,0.010009673,-0.531538486,0.000577347,0.000937031,-0.001352630,-0.112593591,-0.080469266,9.805116653
1784245541.251092,-0.007713334,0.010006239,-0.531541467,0.000627774,0.000651801,-0.001194441,-0.074663408,-0.061232373,9.803932190
1784245541.253063,-0.007712655,0.010002465,-0.531546354,0.000552722,0.000069228,-0.001406400,-0.069926783,-0.078267254,9.796653748
1784245541.255066,-0.007716556,0.010007059,-0.531548262,0.000069819,0.000188980,-0.001486252,-0.073504433,-0.076505743,9.807421684
1784245541.257044,-0.007709758,0.010010486,-0.531543076,0.000245164,0.000680311,-0.000855366,-0.117297031,-0.059930179,9.823626518
1784245541.259038,-0.007704118,0.010012547,-0.531547189,0.000913094,0.000799311,-0.000540659,-0.120185874,-0.077658325,9.801541328
1784245541.261098,-0.007702217,0.010013097,-0.531550884,0.001073579,0.000695290,-0.000926740,-0.102968045,-0.102799848,9.777633667
1784245541.263048,-0.007701661,0.010009521,-0.531549215,0.001096018,0.000330108,-0.000812619,-0.084893130,-0.092707627,9.775026321
1784245541.265032,-0.007697916,0.010011105,-0.531557262,0.001240394,0.000136464,-0.001017706,-0.081500463,-0.070902713,9.789964676
1784245541.267058,-0.007701639,0.010008531,-0.531560779,0.000912925,0.000038272,-0.001528594,-0.068837076,-0.062171236,9.799447060
1784245541.269040,-0.007699804,0.010007094,-0.531561792,0.000491232,-0.000142269,-0.001414270,-0.089247443,-0.042260077,9.808523178
1784245541.271037,-0.007691191,0.010011549,-0.531564295,0.001020772,0.000202723,-0.001254794,-0.075100616,-0.061541043,9.785099030
1784245541.273124,-0.007692956,0.010010817,-0.531563699,0.001189563,0.000473830,-0.001048593,-0.095641099,-0.091594242,9.763814926
1784245541.275142,-0.007696845,0.010014087,-0.531562209,0.000461171,0.000588852,-0.000629413,-0.102164298,-0.071229294,9.810118675
1784245541.277062,-0.007699679,0.010015760,-0.531559944,-0.000123023,0.000762443,-0.000197267,-0.099474229,-0.110086344,9.787902832
1784245541.279052,-0.007702991,0.010018877,-0.531565011,-0.000348646,0.000889513,-0.000333427,-0.086903602,-0.074223451,9.762589455
1784245541.281086,-0.007705133,0.010021043,-0.531577587,-0.000455950,0.001023664,-0.001443198,-0.076038465,-0.065090969,9.781936646
1784245541.283054,-0.007702098,0.010021048,-0.531576633,-0.000302036,0.000936351,-0.001837124,-0.083895721,-0.085040197,9.766110420
1784245541.285048,-0.007696929,0.010022633,-0.531572640,0.000295148,0.000824653,-0.001004381,-0.110812619,-0.081817061,9.802419662
1784245541.287045,-0.007693143,0.010026340,-0.531578302,0.000824013,0.000961029,-0.000847669,-0.115199625,-0.074080639,9.793498039
1784245541.289044,-0.007698054,0.010033353,-0.531572938,0.000543641,0.001390986,-0.000642462,-0.102197058,-0.075540379,9.786328316
1784245541.291050,-0.007700575,0.010038472,-0.531569242,-0.000095056,0.001795013,0.000138657,-0.094745018,-0.089995131,9.789381027
1784245541.293051,-0.007698248,0.010037808,-0.531568229,-0.000058882,0.001581728,0.000416834,-0.090747990,-0.055214629,9.805747986
1784245541.295079,-0.007700047,0.010036815,-0.531565964,0.000017441,0.001012386,0.000526997,-0.106159575,-0.067190409,9.816415787
1784245541.297067,-0.007705498,0.010043022,-0.531563997,-0.000482327,0.001089149,0.000681313,-0.083968788,-0.088859171,9.799263000
1784245541.299057,-0.007704057,0.010047267,-0.531559169,-0.000643438,0.001555867,0.000958809,-0.095287390,-0.095997296,9.815345764
1784245541.301102,-0.007702388,0.010050207,-0.531561852,-0.000274221,0.001676622,0.000835580,-0.093636587,-0.070509374,9.819545746
1784245541.303079,-0.007701208,0.010051375,-0.531563222,-0.000006786,0.001533163,0.000329326,-0.098049521,-0.067029990,9.779213905
1784245541.305083,-0.007708299,0.010051506,-0.531557977,-0.000412027,0.001233813,0.000500040,-0.112717308,-0.054392740,9.792731285
1784245541.307071,-0.007715211,0.010048177,-0.531559169,-0.001253368,0.000679533,0.000639714,-0.106597230,-0.066692188,9.810143471
1784245541.309063,-0.007719756,0.010046674,-0.531556249,-0.001704536,0.000149003,0.000578551,-0.103426389,-0.065280445,9.794911385
1784245541.311056,-0.007728431,0.010049203,-0.531552553,-0.002156255,0.000157835,0.000860933,-0.106031552,-0.056858692,9.812447548
1784245541.313053,-0.007731682,0.010048303,-0.531556785,-0.002447607,0.000202849,0.000579521,-0.091672741,-0.059066258,9.781961441
1784245541.315073,-0.007732624,0.010052075,-0.531553924,-0.002134447,0.000320305,0.000321667,-0.085525259,-0.071149476,9.768887520
1784245541.317058,-0.007739655,0.010058828,-0.531550407,-0.002100597,0.000944731,0.000660019,-0.117104203,-0.045439623,9.801749229
1784245541.319058,-0.007735049,0.010059833,-0.531545103,-0.001789398,0.001179543,0.001068200,-0.111199379,-0.039274696,9.806279182
1784245541.321061,-0.007735044,0.010051401,-0.531540215,-0.001085923,0.000318842,0.001468876,-0.090012282,-0.068255141,9.811044693
1784245541.323064,-0.007738404,0.010052352,-0.531540573,-0.000987971,-0.000265378,0.001381256,-0.066593744,-0.062606603,9.793618202
1784245541.325061,-0.007737250,0.010053448,-0.531538546,-0.000836802,-0.000042648,0.001122594,-0.094724990,-0.088216007,9.791186333
1784245541.327060,-0.007739024,0.010056958,-0.531539559,-0.000652475,0.000281134,0.000881025,-0.109400213,-0.076042622,9.806941032
1784245541.329063,-0.007737315,0.010058521,-0.531542599,-0.000426974,0.000518125,0.000362211,-0.107904658,-0.063532852,9.809266090
1784245541.331067,-0.007736850,0.010063883,-0.531531990,-0.000118610,0.000810341,0.000779435,-0.094875216,-0.063159406,9.796278000
1784245541.333074,-0.007735705,0.010062805,-0.531531751,-0.000076843,0.000879868,0.001298910,-0.105742536,-0.072714411,9.773341179
1784245541.335076,-0.007738332,0.010060757,-0.531531990,-0.000249010,0.000433151,0.000952178,-0.121468693,-0.072278261,9.803367615
1784245541.337080,-0.007738223,0.010061606,-0.531526744,-0.000355813,0.000231414,0.001043290,-0.101033174,-0.091585658,9.772328377
1784245541.339078,-0.007741638,0.010061332,-0.531521440,-0.000433122,0.000208225,0.001471391,-0.108994380,-0.079628877,9.806470871
1784245541.341085,-0.007745076,0.010061407,-0.531525970,-0.000723451,0.000143954,0.001114705,-0.077003598,-0.070477262,9.785039902
1784245541.343079,-0.007745752,0.010062817,-0.531524181,-0.000823962,0.000277366,0.000621370,-0.106174842,-0.070958152,9.779180527
1784245541.345080,-0.007745344,0.010065258,-0.531517148,-0.000644229,0.000528950,0.001057522,-0.115188807,-0.073184721,9.793503761
1784245541.347085,-0.007746092,0.010065045,-0.531517744,-0.000496774,0.000533053,0.001211817,-0.104927354,-0.078238167,9.792585373
1784245541.349105,-0.007744414,0.010066931,-0.531516254,-0.000298242,0.000519384,0.000945182,-0.125382408,-0.061516788,9.809260368
1784245541.351093,-0.007742728,0.010067491,-0.531513393,0.000009121,0.000560231,0.000986157,-0.105451189,-0.046504095,9.804444313
1784245541.353089,-0.007737680,0.010066431,-0.531510293,0.000374288,0.000299813,0.001122925,-0.096410632,-0.041230831,9.802693367
1784245541.355084,-0.007732541,0.010068803,-0.531511366,0.000877355,0.000235201,0.000952856,-0.118772604,-0.069850743,9.835217476
1784245541.357090,-0.007730009,0.010073865,-0.531508505,0.001158745,0.000675138,0.000813489,-0.107627548,-0.041487362,9.795956612
1784245541.359088,-0.007725061,0.010074066,-0.531508565,0.001289295,0.000815996,0.000783049,-0.105144851,-0.059386253,9.788223267
1784245541.361089,-0.007727424,0.010068840,-0.531504512,0.001051151,0.000219680,0.000846710,-0.057400990,-0.081563972,9.796644211
1784245541.363091,-0.007727901,0.010060809,-0.531509399,0.000602579,-0.000641752,0.000565337,-0.072620742,-0.079462186,9.780504227
1784245541.365095,-0.007726093,0.010053666,-0.531514287,0.000565180,-0.001394649,-0.000253640,-0.114161767,-0.062851779,9.787744522
1784245541.367090,-0.007725562,0.010053428,-0.531522095,0.000579249,-0.001510373,-0.001046349,-0.102753073,-0.085297570,9.773264885
1784245541.369090,-0.007720009,0.010059496,-0.531524479,0.000923892,-0.000735317,-0.001456044,-0.102107614,-0.066323981,9.813287735
1784245541.371101,-0.007721471,0.010062220,-0.531518221,0.001030170,0.000022989,-0.000796908,-0.107566401,-0.074947111,9.775567055
1784245541.373096,-0.007731464,0.010059619,-0.531521499,-0.000001940,-0.000042268,-0.000376094,-0.113339290,-0.106718346,9.780289650
1784245541.375097,-0.007736535,0.010051768,-0.531519532,-0.000995956,-0.000805394,-0.000362735,-0.125793263,-0.058375310,9.809281349
1784245541.377097,-0.007735896,0.010050494,-0.531511724,-0.001033141,-0.001211386,0.000407099,-0.083320081,-0.073507071,9.781428337
1784245541.379100,-0.007734355,0.010048797,-0.531511784,-0.000584361,-0.001007415,0.000827041,-0.101882055,-0.047522325,9.815201759
1784245541.381103,-0.007734055,0.010048040,-0.531514347,-0.000273427,-0.000818338,0.000429144,-0.097917169,-0.055043146,9.794533730
1784245541.383106,-0.007738076,0.010049601,-0.531513512,-0.000515157,-0.000495888,0.000193720,-0.101922646,-0.089890428,9.787581444
1784245541.385099,-0.007742560,0.010047308,-0.531512320,-0.001018459,-0.000367004,0.000273832,-0.141511008,-0.059899163,9.799840927
1784245541.387100,-0.007740698,0.010042029,-0.531512976,-0.000920289,-0.000781549,0.000239839,-0.075191304,-0.069956906,9.771595001
1784245541.389104,-0.007741916,0.010045031,-0.531514585,-0.000609171,-0.000706924,0.000018984,-0.052281760,-0.066399708,9.797195435
1784245541.391107,-0.007740577,0.010041082,-0.531515837,-0.000417621,-0.000561964,-0.000177560,-0.081044391,-0.069634534,9.799837112
1784245541.393155,-0.007740259,0.010036841,-0.531520724,-0.000247052,-0.000977346,-0.000540216,-0.117117397,-0.081917822,9.827968597
1784245541.395237,-0.007740771,0.010033973,-0.531521916,-0.000248570,-0.001206594,-0.000804198,-0.104693487,-0.056939535,9.821415901
1784245541.397129,-0.007741820,0.010033489,-0.531526983,-0.000282867,-0.001103142,-0.001013104,-0.099881843,-0.069329470,9.790853500
1784245541.399146,-0.007745528,0.010033889,-0.531532288,-0.000557928,-0.000807321,-0.001453288,-0.115357265,-0.084241033,9.836473465
1784245541.401166,-0.007747066,0.010036332,-0.531535864,-0.000792582,-0.000394121,-0.001664600,-0.089820392,-0.127330735,9.801251411
1784245541.403159,-0.007747369,0.010038405,-0.531542301,-0.000563657,0.000083013,-0.001889128,-0.077461742,-0.070951268,9.789520264
1784245541.405133,-0.007748433,0.010035538,-0.531545699,-0.000364629,0.000070268,-0.002054652,-0.073922053,-0.036638413,9.809470177
1784245541.407131,-0.007746274,0.010034760,-0.531548738,-0.000186773,-0.000192799,-0.001941922,-0.093462765,-0.058195021,9.788689613
1784245541.409128,-0.007745804,0.010035120,-0.531559289,-0.000035269,-0.000129811,-0.002327693,-0.101824127,-0.081007518,9.798398018
1784245541.411129,-0.007744943,0.010038068,-0.531563342,-0.000012394,0.000169451,-0.002679657,-0.099718593,-0.093067624,9.789357185
1784245541.413136,-0.007749533,0.010035668,-0.531561852,-0.000235249,0.000151072,-0.002125426,-0.107561447,-0.073692262,9.788129807
1784245541.415180,-0.007759662,0.010027342,-0.531558692,-0.001148405,-0.000631175,-0.001239752,-0.100187100,-0.057654466,9.787789345
1784245541.417172,-0.007761864,0.010038024,-0.531556070,-0.001677499,-0.000302985,-0.000517121,-0.105405569,-0.044928100,9.771726608
1784245541.419139,-0.007757726,0.010050127,-0.531556249,-0.001161672,0.001295759,-0.000216358,-0.129249811,-0.048362888,9.793650627
1784245541.421154,-0.007757967,0.010046728,-0.531555891,-0.000651247,0.001505903,-0.000146774,-0.057850733,-0.083997972,9.761658669
1784245541.423148,-0.007758299,0.010040180,-0.531556487,-0.000471854,0.000581224,-0.000120445,-0.051987905,-0.079380430,9.794870377
1784245541.425140,-0.007761479,0.010036018,-0.531556070,-0.000540626,-0.000144243,-0.000101870,-0.102722503,-0.081409000,9.793462753
1784245541.427144,-0.007760621,0.010037639,-0.531558454,-0.000549975,-0.000276421,-0.000212429,-0.080402173,-0.053523216,9.801285744
1784245541.429139,-0.007755353,0.010041582,-0.531562507,0.000028730,0.000198832,-0.000595736,-0.098610297,-0.037208594,9.808096886
1784245541.431145,-0.007753516,0.010033917,-0.531562984,0.000515457,-0.000086512,-0.000733972,-0.078484178,-0.043252647,9.802698135
1784245541.433144,-0.007754217,0.010022164,-0.531556010,0.000314718,-0.001318997,-0.000083090,-0.086945862,-0.036967345,9.816181183
1784245541.435153,-0.007754446,0.010022735,-0.531559527,0.000030413,-0.001656058,0.000177354,-0.096346132,-0.073448442,9.796659470
1784245541.437149,-0.007758952,0.010025731,-0.531568825,-0.000290428,-0.000957556,-0.000747048,-0.104627401,-0.091981269,9.771426201
1784245541.439154,-0.007763763,0.010028566,-0.531570196,-0.000794524,-0.000338680,-0.001275868,-0.096186176,-0.096401960,9.810859680
1784245541.441154,-0.007774818,0.010030597,-0.531563461,-0.001617121,0.000038438,-0.000579133,-0.091133356,-0.088246100,9.788948059
1784245541.443149,-0.007782575,0.010030649,-0.531562805,-0.002453313,0.000170839,0.000071676,-0.097461976,-0.093398049,9.768733978
1784245541.445202,-0.007782782,0.010029376,-0.531561017,-0.002322775,0.000045319,0.000220789,-0.107112750,-0.073698007,9.788127899
1784245541.447167,-0.007785948,0.010026010,-0.531560123,-0.001922908,-0.000283508,0.000346630,-0.105930269,-0.049980294,9.790075302
1784245541.449156,-0.007784550,0.010027598,-0.531561255,-0.001628792,-0.000305878,0.000240949,-0.081262708,-0.050788980,9.796371460
1784245541.451161,-0.007785557,0.010028447,-0.531562865,-0.001266343,-0.000034678,-0.000014720,-0.074670203,-0.062096499,9.799443245
1784245541.453161,-0.007774536,0.010025843,-0.531561255,-0.000300026,-0.000061892,-0.000002538,-0.101298377,-0.073515572,9.815035820
1784245541.455161,-0.007763614,0.010020467,-0.531561494,0.001212752,-0.000505085,0.000113573,-0.109812669,-0.072913855,9.808753967
1784245541.457159,-0.007765880,0.010023725,-0.531556726,0.001467903,-0.000514045,0.000397132,-0.112807132,-0.060775481,9.808381081
1784245541.459168,-0.007767520,0.010028759,-0.531550646,0.000737557,0.000116733,0.001020988,-0.107645527,-0.078813791,9.815443993
1784245541.461163,-0.007763156,0.010034323,-0.531552851,0.000660374,0.000736215,0.001007728,-0.073416427,-0.108132295,9.781214714
1784245541.463177,-0.007753345,0.010034531,-0.531552136,0.001561855,0.001053392,0.000637806,-0.102342732,-0.086822078,9.797913551
1784245541.465191,-0.007743984,0.010034206,-0.531554699,0.002557835,0.000884922,0.000348583,-0.104624331,-0.051935647,9.810688019
1784245541.467183,-0.007741539,0.010034751,-0.531556964,0.002668007,0.000662051,-0.000062218,-0.082315408,-0.062945560,9.806603432
1784245541.469184,-0.007741430,0.010034058,-0.531557560,0.002097302,0.000523935,-0.000236019,-0.108202904,-0.051397178,9.804410934
1784245541.471184,-0.007745087,0.010032293,-0.531553328,0.001262928,0.000263183,0.000069055,-0.082110330,-0.047952984,9.777110100
1784245541.473182,-0.007740534,0.010027275,-0.531544924,0.000886507,-0.000131022,0.000904289,-0.097250171,-0.073894449,9.798001289
1784245541.475181,-0.007738548,0.010027579,-0.531537116,0.000992906,-0.000279857,0.001766849,-0.105089791,-0.092083625,9.786667824
1784245541.477192,-0.007734702,0.010029444,-0.531532347,0.001110691,-0.000063181,0.002144365,-0.100067116,-0.084976315,9.786271095
1784245541.479197,-0.007730876,0.010029281,-0.531530082,0.001378007,0.000077033,0.002040484,-0.076209083,-0.077379875,9.809205055
1784245541.481193,-0.007726383,0.010021585,-0.531531572,0.001620962,-0.000466768,0.001546094,-0.067975648,-0.066519260,9.779246330
1784245541.483188,-0.007726304,0.010015810,-0.531529784,0.001452388,-0.001056966,0.001148202,-0.084296413,-0.042202495,9.791490555
1784245541.485192,-0.007729947,0.010021455,-0.531534374,0.000779393,-0.000579700,0.000645900,-0.079283983,-0.035581298,9.796469688
1784245541.487191,-0.007730358,0.010026542,-0.531533539,0.000295146,0.000308337,0.000210792,-0.098397508,-0.057718806,9.793620110
1784245541.489193,-0.007728063,0.010028069,-0.531532586,0.000173768,0.000698454,0.000271845,-0.105436586,-0.082762912,9.799728394
1784245541.491199,-0.007721889,0.010026721,-0.531532407,0.000532737,0.000546067,0.000278496,-0.075896636,-0.091024414,9.774148941
1784245541.493197,-0.007716393,0.010021133,-0.531529903,0.001296109,0.000050995,0.000390310,-0.098004311,-0.100210294,9.782588005
1784245541.495237,-0.007714507,0.010017973,-0.531530559,0.001561713,-0.000432190,0.000416465,-0.111465484,-0.101254515,9.764634132
1784245541.497232,-0.007713660,0.010016683,-0.531530380,0.001323444,-0.000616542,0.000273301,-0.058099288,-0.064580821,9.803926468
1784245541.499235,-0.007715931,0.010014582,-0.531523287,0.000825520,-0.000534563,0.000693199,-0.090299286,-0.055220377,9.805747986
1784245541.501219,-0.007716102,0.010014902,-0.531519055,0.000390989,-0.000367734,0.001270351,-0.104847603,-0.071934916,9.788143158
1784245541.503280,-0.007716211,0.010020772,-0.531518042,0.000295897,0.000077944,0.001277766,-0.122033820,-0.043301918,9.825073242
1784245541.505275,-0.007722273,0.010024057,-0.531522274,-0.000167588,0.000608399,0.000706030,-0.108293533,-0.057786286,9.820958138
1784245541.507273,-0.007728879,0.010022054,-0.531520307,-0.000980537,0.000531533,0.000358397,-0.096230969,-0.025628505,9.813554764
1784245541.509274,-0.007731359,0.010013490,-0.531517029,-0.001437767,-0.000303094,0.000624529,-0.083672948,-0.025834000,9.819841385
1784245541.511273,-0.007733716,0.010013290,-0.531519234,-0.001479526,-0.000786487,0.000530732,-0.038766779,-0.062499203,9.791404724
1784245541.513276,-0.007734849,0.010005289,-0.531523168,-0.001361606,-0.000903257,-0.000023451,-0.103530824,-0.072994344,9.808759689
1784245541.515290,-0.007735968,0.009996593,-0.531525731,-0.001191500,-0.001565095,-0.000448298,-0.114025570,-0.088829726,9.786231995
1784245541.517299,-0.007733263,0.009993428,-0.531523705,-0.000760016,-0.001944994,-0.000359597,-0.100423127,-0.076538786,9.797533035
1784245541.519254,-0.007729624,0.010001586,-0.531521857,-0.000108281,-0.001057207,0.000000874,-0.093433075,-0.056339595,9.779735565
1784245541.521228,-0.007729582,0.010002684,-0.531525731,0.000189782,-0.000118136,-0.000132318,-0.114049442,-0.052644059,9.801259041
1784245541.523244,-0.007726948,0.010002919,-0.531531334,0.000238598,-0.000059090,-0.000738548,-0.112765029,-0.058011405,9.797638893
1784245541.525229,-0.007729265,0.010002729,-0.531528115,0.000109342,-0.000107172,-0.000711602,-0.082959637,-0.044319645,9.771752357
1784245541.527275,-0.007733156,0.010005206,-0.531525731,-0.000345368,0.000074358,-0.000149785,-0.081781544,-0.056200098,9.802164078
1784245541.529240,-0.007734003,0.010004462,-0.531531811,-0.000674710,0.000246452,-0.000372095,-0.097032703,-0.091936290,9.814472198
1784245541.531239,-0.007735837,0.010002141,-0.531532288,-0.000773072,0.000047416,-0.000716146,-0.072864950,-0.134379923,9.816914558
1784245541.533244,-0.007746651,0.010001838,-0.531534493,-0.001152339,-0.000059926,-0.000696286,-0.088576995,-0.099079356,9.795605659
1784245541.535259,-0.007751381,0.010002200,-0.531534255,-0.001625643,0.000043771,-0.000645014,-0.105094157,-0.092928670,9.779488564
1784245541.537236,-0.007749445,0.010001168,-0.531531453,-0.001376012,-0.000015194,-0.000264483,-0.087867461,-0.077573434,9.794399261
1784245541.539232,-0.007746355,0.010000367,-0.531533182,-0.000687632,-0.000062837,-0.000112854,-0.112568565,-0.078245364,9.807374001
1784245541.541232,-0.007750351,0.009998061,-0.531537771,-0.000583660,-0.000180155,-0.000508937,-0.096736841,-0.070147991,9.774263382
1784245541.543231,-0.007752562,0.009993192,-0.531537294,-0.000855670,-0.000622739,-0.000655607,-0.102243818,-0.077935986,9.808280945
1784245541.545232,-0.007753041,0.009991126,-0.531534910,-0.000819729,-0.000932560,-0.000292665,-0.118775375,-0.035929948,9.790601730
1784245541.547239,-0.007760155,0.009992310,-0.531534255,-0.001114533,-0.000740929,-0.000008399,-0.100632720,-0.020439945,9.784890175
1784245541.549232,-0.007759942,0.009992390,-0.531534612,-0.001471934,-0.000454690,0.000018759,-0.096776403,-0.034086324,9.806774139
1784245541.551236,-0.007761310,0.009986342,-0.531538725,-0.001339034,-0.000734394,-0.000288485,-0.084468223,-0.054500945,9.820105553
1784245541.553236,-0.007759023,0.009981981,-0.531542897,-0.000936990,-0.001191886,-0.000765964,-0.107568108,-0.073339693,9.801581383
1784245541.555240,-0.007760073,0.009980441,-0.531546474,-0.000622799,-0.001219629,-0.001075962,-0.126351207,-0.069768541,9.774237633
1784245541.557238,-0.007759515,0.009976769,-0.531545699,-0.000485092,-0.001240849,-0.000977010,-0.103491604,-0.072279304,9.771104813
1784245541.559243,-0.007757414,0.009978909,-0.531546891,-0.000165678,-0.001025676,-0.000740825,-0.091575198,-0.050596330,9.787842751
1784245541.561244,-0.007749888,0.009978875,-0.531545877,0.000539759,-0.000622144,-0.000548589,-0.111195438,-0.078859635,9.765226364
1784245541.563263,-0.007745910,0.009983115,-0.531548381,0.001181800,-0.000203009,-0.000497906,-0.097764336,-0.079674035,9.792582512
1784245541.565245,-0.007750356,0.009985329,-0.531548858,0.000837727,0.000255627,-0.000551678,-0.077820331,-0.062939458,9.797639847
1784245541.567286,-0.007746885,0.009980562,-0.531548858,0.000544286,0.000013229,-0.000431664,-0.083109640,-0.054419614,9.806207657
1784245541.569259,-0.007744773,0.009979447,-0.531551063,0.000672380,-0.000346259,-0.000471074,-0.060157247,-0.087708712,9.783600807
1784245541.571260,-0.007750046,0.009977696,-0.531549275,0.000170918,-0.000404513,-0.000373231,-0.098817050,-0.091830626,9.802814484
1784245541.573255,-0.007752068,0.009977212,-0.531547546,-0.000303715,-0.000465430,-0.000031453,-0.086824529,-0.063873015,9.819147110
1784245541.575258,-0.007756644,0.009983691,-0.531535923,-0.000608885,0.000043634,0.000888593,-0.089138269,-0.032887872,9.813514709
1784245541.577254,-0.007761116,0.009984048,-0.531536758,-0.001065014,0.000490106,0.001378369,-0.084492803,-0.057531744,9.805290222
1784245541.579259,-0.007754086,0.009976056,-0.531537533,-0.000700151,-0.000105028,0.000900763,-0.112211533,-0.049489994,9.795453072
1784245541.581280,-0.007741523,0.009975169,-0.531538665,0.000721946,-0.000623042,0.000554198,-0.085864455,-0.060958277,9.785541534
1784245541.583265,-0.007735580,0.009975165,-0.531538606,0.001745416,-0.000478520,0.000340720,-0.087802954,-0.109791048,9.788364410
1784245541.585261,-0.007737192,0.009973096,-0.531545401,0.001532780,-0.000450466,-0.000213889,-0.071171962,-0.069348022,9.804780960
1784245541.587259,-0.007742220,0.009969750,-0.531544268,0.000669641,-0.000692934,-0.000530246,-0.094833396,-0.096771769,9.797407150
1784245541.589260,-0.007744295,0.009970370,-0.531536520,0.000041043,-0.000641559,0.000215359,-0.104104921,-0.083704695,9.803759575
1784245541.591269,-0.007743391,0.009972529,-0.531533659,-0.000015306,-0.000231144,0.000869551,-0.110384107,-0.084008574,9.794784546
1784245541.593274,-0.007740726,0.009973245,-0.531527281,0.000232546,0.000011280,0.001256009,-0.098066673,-0.069596931,9.762160301
1784245541.595270,-0.007745244,0.009969623,-0.531528771,0.000047923,-0.000202391,0.001245955,-0.120567091,-0.074688181,9.762553215
1784245541.597270,-0.007746581,0.009969668,-0.531537414,-0.000355721,-0.000384945,0.000227152,-0.100234672,-0.062893279,9.768478394
1784245541.599272,-0.007742802,0.009975945,-0.531540692,-0.000117564,0.000179070,-0.000636669,-0.116571859,-0.040327016,9.774883270
1784245541.601342,-0.007748878,0.009972879,-0.531537294,-0.000273790,0.000372533,-0.000455357,-0.087926999,-0.044100966,9.812995911
1784245541.603390,-0.007749500,0.009971139,-0.531530499,-0.000720330,-0.000009126,0.000359256,-0.076502480,-0.065206043,9.798972130
1784245541.605366,-0.007746517,0.009972208,-0.531532943,-0.000426858,-0.000003411,0.000558116,-0.078933865,-0.081249855,9.791246414
1784245541.607352,-0.007747576,0.009971987,-0.531539679,-0.000174109,0.000059975,-0.000217266,-0.086132780,-0.082123734,9.801096916
1784245541.609359,-0.007756818,0.009971086,-0.531541228,-0.000841011,0.000007000,-0.000729873,-0.102469265,-0.060767815,9.788664818
1784245541.611360,-0.007758625,0.009972208,-0.531543136,-0.001380888,0.000056994,-0.000777962,-0.114875570,-0.086822897,9.757551193
1784245541.613343,-0.007756756,0.009979392,-0.531541288,-0.000974383,0.000533332,-0.000574599,-0.111957856,-0.067245677,9.771577835
1784245541.615332,-0.007759299,0.009983447,-0.531538904,-0.000731037,0.001077129,-0.000136609,-0.078077719,-0.084829144,9.788982391
1784245541.617324,-0.007760657,0.009979784,-0.531545043,-0.000794704,0.000813227,-0.000363153,-0.076943867,-0.100706264,9.814435959
1784245541.619306,-0.007759457,0.009973804,-0.531546533,-0.000521482,0.000025107,-0.000783726,-0.096408799,-0.079211533,9.788105011
1784245541.621299,-0.007765052,0.009965697,-0.531542957,-0.000616633,-0.000855940,-0.000424368,-0.059727989,-0.051493820,9.793697357
1784245541.623303,-0.007771443,0.009958893,-0.531543195,-0.001337606,-0.001545299,-0.000073622,-0.074588388,-0.056587428,9.780649185
1784245541.625298,-0.007768922,0.009960513,-0.531537116,-0.001313626,-0.001388437,0.000348904,-0.092837997,-0.081027113,9.784956932
1784245541.627299,-0.007764032,0.009961837,-0.531534374,-0.000459916,-0.000816420,0.000859159,-0.100068383,-0.084175773,9.799724579
1784245541.629310,-0.007769407,0.009961526,-0.531533837,-0.000381025,-0.000535526,0.000850167,-0.101121955,-0.098365493,9.780802727
1784245541.631310,-0.007777116,0.009958998,-0.531536102,-0.001175381,-0.000589598,0.000497837,-0.094441541,-0.064499505,9.794924736
1784245541.633304,-0.007776909,0.009958370,-0.531529725,-0.001393430,-0.000635312,0.000638846,-0.088586651,-0.061565701,9.812882423
1784245541.635302,-0.007773705,0.009954930,-0.531531751,-0.000811652,-0.000730708,0.000760452,-0.061344989,-0.035477772,9.812627792
1784245541.637311,-0.007773749,0.009951512,-0.531540632,-0.000369421,-0.000992085,-0.000180952,-0.094463035,-0.027484680,9.819371223
1784245541.639314,-0.007772786,0.009946398,-0.531539202,-0.000391916,-0.001234215,-0.000632917,-0.091105662,-0.048816592,9.788751602
1784245541.641308,-0.007766602,0.009945846,-0.531538546,0.000008102,-0.001221088,-0.000310587,-0.101999834,-0.057367932,9.813793182
1784245541.643314,-0.007758287,0.009945111,-0.531541824,0.000954073,-0.000946603,-0.000398189,-0.097131841,-0.062828958,9.816901207
1784245541.645320,-0.007759058,0.009947537,-0.531549692,0.001176674,-0.000540080,-0.001039254,-0.075431019,-0.088059776,9.797481537
1784245541.647321,-0.007763226,0.009948692,-0.531546772,0.000525243,-0.000147710,-0.001091829,-0.088173687,-0.101064555,9.822045326
1784245541.649319,-0.007764254,0.009947441,-0.531550825,0.000120636,-0.000026170,-0.000878207,-0.099774919,-0.059569716,9.804366112
1784245541.651322,-0.007762318,0.009950113,-0.531553030,0.000243704,0.000167964,-0.001064319,-0.069803067,-0.066753812,9.815558434
1784245541.653342,-0.007761529,0.009942769,-0.531555772,0.000329241,-0.000051106,-0.001111655,-0.111069582,-0.066113599,9.799829483
1784245541.655332,-0.007760489,0.009939875,-0.531562805,0.000334005,-0.000586067,-0.001473255,-0.116985008,-0.073577896,9.789016724
1784245541.657327,-0.007761170,0.009947082,-0.531565487,0.000274320,-0.000129137,-0.001732059,-0.101568341,-0.059130549,9.808851242
1784245541.659324,-0.007762553,0.009946132,-0.531554759,-0.000059582,0.000361440,-0.000710707,-0.086512201,-0.075897411,9.808310509
1784245541.661325,-0.007763990,0.009943043,-0.531536758,-0.000368054,0.000008921,0.001437320,-0.099156231,-0.081639417,9.819467545
1784245541.663333,-0.007762033,0.009944447,-0.531529605,-0.000229019,-0.000106265,0.002750776,-0.107124433,-0.073790222,9.801130295
1784245541.665331,-0.007763583,0.009945298,-0.531532645,-0.000121379,0.000088488,0.002283085,-0.096379794,-0.076145753,9.797986984
1784245541.667359,-0.007765182,0.009941643,-0.531535387,-0.000298368,-0.000122773,0.001272087,-0.092474684,-0.087380625,9.795676231
1784245541.669333,-0.007767203,0.009943023,-0.531526148,-0.000428715,-0.000227752,0.001366239,-0.091342397,-0.069327414,9.775170326
1784245541.671343,-0.007767916,0.009946255,-0.531527221,-0.000464625,0.000162450,0.001545832,-0.104470477,-0.079800464,9.759398460
1784245541.673333,-0.007766458,0.009949904,-0.531534672,-0.000234160,0.000522911,0.000540232,-0.076156661,-0.074939765,9.780978203
1784245541.675335,-0.007758916,0.009950138,-0.531531990,0.000491394,0.000579839,0.000078181,-0.092311211,-0.111522220,9.787899971
1784245541.677341,-0.007758590,0.009947533,-0.531528294,0.000887675,0.000258104,0.000497524,-0.104978509,-0.081478827,9.807359695
1784245541.679337,-0.007758989,0.009946800,-0.531523943,0.000705453,-0.000025860,0.000910297,-0.088423409,-0.050550718,9.775741577
1784245541.681339,-0.007757319,0.009945508,-0.531520545,0.000664121,-0.000143605,0.001193587,-0.087602869,-0.054816451,9.807099342
1784245541.683342,-0.007753590,0.009944374,-0.531523526,0.000779667,-0.000245851,0.000894651,-0.068983980,-0.073462471,9.812376976
1784245541.685342,-0.007748732,0.009947277,-0.531527221,0.001085085,-0.000031747,0.000191439,-0.088998429,-0.097237252,9.789339066
1784245541.687346,-0.007753230,0.009947627,-0.531531572,0.000820433,0.000202030,-0.000411443,-0.105517596,-0.091102459,9.775465965
1784245541.689347,-0.007762611,0.009943077,-0.531530619,-0.000319312,-0.000177424,-0.000530271,-0.107429810,-0.100921884,9.773607254
1784245541.691351,-0.007767625,0.009939467,-0.531527281,-0.001189947,-0.000726614,-0.000094917,-0.107669465,-0.082244858,9.793901443
1784245541.693374,-0.007771106,0.009938654,-0.531528771,-0.001405446,-0.000896223,0.000061716,-0.112414308,-0.065680191,9.804314613
1784245541.695355,-0.007776651,0.009939813,-0.531531751,-0.001594043,-0.000692798,-0.000255650,-0.111780725,-0.050042279,9.809348106
1784245541.697359,-0.007775514,0.009939583,-0.531529903,-0.001459595,-0.000440869,-0.000269216,-0.094628096,-0.079345807,9.803796768
1784245541.699352,-0.007775682,0.009940378,-0.531520367,-0.001002495,-0.000302414,0.000569656,-0.109387100,-0.076344311,9.786315918
1784245541.701373,-0.007775262,0.009942294,-0.531510651,-0.000723484,-0.000060296,0.001723021,-0.094229996,-0.046619218,9.800419807
1784245541.703372,-0.007777768,0.009939313,-0.531510711,-0.000773918,-0.000075187,0.001911901,-0.071734540,-0.042782813,9.787463188
1784245541.705365,-0.007779579,0.009940169,-0.531512916,-0.000954119,-0.000151505,0.001236574,-0.074411325,-0.041410796,9.788368225
1784245541.707404,-0.007777680,0.009942304,-0.531519115,-0.000683335,0.000097096,0.000331748,-0.093879119,-0.053881373,9.812926292
1784245541.709444,-0.007775948,0.009946921,-0.531521618,-0.000356548,0.000546900,-0.000343758,-0.104827397,-0.069749162,9.795778275
1784245541.711365,-0.007781171,0.009947562,-0.531516433,-0.000609666,0.000767120,-0.000061008,-0.090675049,-0.087365463,9.790297508
1784245541.713373,-0.007785645,0.009944127,-0.531520426,-0.001034679,0.000390830,0.000033289,-0.104424149,-0.073761120,9.792165756
1784245541.715371,-0.007778964,0.009943827,-0.531525075,-0.000529705,0.000058021,-0.000564966,-0.106995538,-0.064262219,9.784154892
1784245541.717370,-0.007772714,0.009950167,-0.531525970,0.000495516,0.000455129,-0.000779559,-0.107912615,-0.065216579,9.794010162
1784245541.719367,-0.007768894,0.009954947,-0.531522572,0.001045517,0.001049206,-0.000392949,-0.114708766,-0.072132386,9.770646095
1784245541.721371,-0.007767503,0.009954977,-0.531522870,0.001115993,0.001053343,-0.000078116,-0.077350318,-0.059129775,9.828152657
1784245541.723379,-0.007763999,0.009952200,-0.531529427,0.001110025,0.000629089,-0.000519152,-0.081955373,-0.071351282,9.790858269
1784245541.725368,-0.007763376,0.009953303,-0.531527042,0.001051785,0.000391496,-0.000659612,-0.091000423,-0.075849451,9.809651375
1784245541.727382,-0.007768072,0.009957111,-0.531527340,0.000488348,0.000617465,-0.000345348,-0.078429401,-0.074736498,9.819532394
1784245541.729376,-0.007766229,0.009958182,-0.531527162,0.000133840,0.000908357,-0.000260032,-0.085615911,-0.115128554,9.778917313
1784245541.731374,-0.007767514,0.009950038,-0.531517267,0.000100150,0.000303567,0.000501947,-0.077278353,-0.091693595,9.807769775
1784245541.733378,-0.007768458,0.009946399,-0.531510293,-0.000037702,-0.000480658,0.001524293,-0.089564450,-0.070294037,9.781890869
1784245541.735379,-0.007763565,0.009947987,-0.531507432,0.000286084,-0.000387574,0.001786038,-0.093601607,-0.031832710,9.799171448
1784245541.737377,-0.007762705,0.009946436,-0.531505167,0.000595448,-0.000282564,0.001652108,-0.095757931,-0.022200007,9.834648132
1784245541.739379,-0.007762904,0.009940607,-0.531500995,0.000272763,-0.000704688,0.001641151,-0.103509821,-0.033212263,9.822015762
1784245541.741380,-0.007761533,0.009939043,-0.531501651,0.000074327,-0.001011377,0.001434662,-0.086739242,-0.055905107,9.832647324
1784245541.743381,-0.007754439,0.009939129,-0.531507075,0.000623219,-0.000788311,0.000637962,-0.059940770,-0.068573572,9.801656723
1784245541.745422,-0.007750174,0.009937001,-0.531511188,0.001222128,-0.000662515,-0.000176988,-0.075337507,-0.042031676,9.814365387
1784245541.747393,-0.007747156,0.009941777,-0.531514406,0.001389815,-0.000298875,-0.000625167,-0.088619329,-0.063850023,9.819145203
1784245541.749386,-0.007745835,0.009944043,-0.531517386,0.001262003,0.000274271,-0.000878134,-0.101437114,-0.086363368,9.794776917
1784245541.751388,-0.007748784,0.009942512,-0.531525671,0.000767294,0.000266255,-0.001408410,-0.068173639,-0.081861228,9.794838905
1784245541.753402,-0.007749664,0.009937003,-0.531528413,0.000329475,-0.000206840,-0.001779386,-0.096418120,-0.081311435,9.768363953
1784245541.755390,-0.007747016,0.009932770,-0.531532347,0.000387506,-0.000737424,-0.001743194,-0.104400679,-0.072360009,9.784105301
1784245541.757391,-0.007747770,0.009933346,-0.531535149,0.000415406,-0.000781808,-0.001714945,-0.119585186,-0.063901290,9.819114685
1784245541.759391,-0.007749180,0.009940062,-0.531531632,0.000062107,-0.000147131,-0.001203845,-0.095107049,-0.081605308,9.807369232
1784245541.761400,-0.007752233,0.009945183,-0.531528056,-0.000355710,0.000620285,-0.000396825,-0.096191213,-0.058446702,9.829035759
1784245541.763404,-0.007748175,0.009941576,-0.531525195,-0.000251387,0.000509184,0.000151892,-0.101619110,-0.065204866,9.781015396
1784245541.765395,-0.007746511,0.009939224,-0.531521082,0.000144495,-0.000079400,0.000585410,-0.063003615,-0.099022694,9.804596901
1784245541.767419,-0.007748534,0.009941947,-0.531518698,0.000076459,-0.000036134,0.000867183,-0.106257401,-0.074446820,9.828922272
1784245541.769407,-0.007749248,0.009942983,-0.531516552,-0.000150821,0.000250176,0.000929175,-0.114176534,-0.061752733,9.822272301
1784245541.771412,-0.007753427,0.009943345,-0.531513989,-0.000462824,0.000298225,0.000991260,-0.113066114,-0.045087919,9.808032990
1784245541.773417,-0.007754681,0.009942499,-0.531512558,-0.000818727,0.000136845,0.000999087,-0.097341634,-0.044726707,9.791911125
1784245541.775421,-0.007755644,0.009942565,-0.531507075,-0.000861719,-0.000002267,0.001203582,-0.082736388,-0.061910339,9.787780762
1784245541.777416,-0.007758241,0.009944756,-0.531509221,-0.000871622,0.000149699,0.001101274,-0.106167242,-0.070087671,9.782773972
1784245541.779422,-0.007759860,0.009947759,-0.531507432,-0.000948401,0.000460696,0.000775024,-0.077040486,-0.073200002,9.789954185
1784245541.781423,-0.007758096,0.009957859,-0.531507969,-0.000709476,0.001223386,0.000649121,-0.073715203,-0.055979624,9.819658279
1784245541.783420,-0.007757977,0.009958019,-0.531511188,-0.000409601,0.001635750,0.000213819,-0.074993767,-0.053808048,9.768560410
1784245541.785422,-0.007755560,0.009954059,-0.531510830,-0.000147413,0.000981281,-0.000036337,-0.086814702,-0.100980058,9.807700157
1784245541.787418,-0.007752566,0.009955926,-0.531513035,0.000261146,0.000573715,-0.000145635,-0.101219147,-0.106022172,9.786582947
1784245541.789419,-0.007754515,0.009955826,-0.531518519,0.000364172,0.000587327,-0.000620976,-0.145790040,-0.081200108,9.778628349
1784245541.791445,-0.007759518,0.009956191,-0.531519055,-0.000104584,0.000494448,-0.000860383,-0.117571853,-0.048420154,9.780659676
1784245541.793430,-0.007759659,0.009957075,-0.531517029,-0.000519795,0.000406483,-0.000529568,-0.087157354,-0.058494549,9.756413460
1784245541.795427,-0.007759095,0.009954994,-0.531517982,-0.000444317,0.000176444,-0.000306949,-0.084269263,-0.076335959,9.802928925
1784245541.797433,-0.007758781,0.009953974,-0.531518102,-0.000263404,-0.000081604,-0.000289491,-0.098597474,-0.073886737,9.799343109
1784245541.799425,-0.007761780,0.009955434,-0.531514645,-0.000347308,-0.000089043,0.000012718,-0.090759099,-0.057733867,9.781970024
1784245541.801464,-0.007761144,0.009957599,-0.531511784,-0.000388490,0.000120096,0.000432672,-0.083448790,-0.082628451,9.804234505
1784245541.803437,-0.007758077,0.009961106,-0.531515062,0.000019032,0.000504490,0.000289296,-0.097845070,-0.086390279,9.792092323
1784245541.805430,-0.007754235,0.009967208,-0.531516612,0.000536522,0.001054008,-0.000120180,-0.076260157,-0.043840643,9.818389893
1784245541.807442,-0.007749308,0.009969598,-0.531510592,0.000983136,0.001341706,0.000212817,-0.098761395,-0.048938252,9.819679260
1784245541.809433,-0.007748539,0.009968339,-0.531510413,0.001067696,0.001049135,0.000578585,-0.089899093,-0.058851153,9.811553955
1784245541.811434,-0.007749246,0.009973161,-0.531513095,0.000752819,0.001005705,0.000249680,-0.087583937,-0.051830169,9.828189850
1784245541.813437,-0.007747630,0.009975804,-0.531512380,0.000526856,0.001297794,0.000047989,-0.096332148,-0.071717024,9.805189133
1784245541.815442,-0.007748131,0.009978229,-0.531519651,0.000379309,0.001350282,-0.000406687,-0.110968880,-0.056808166,9.814236641
1784245541.817464,-0.007752581,0.009979383,-0.531518936,-0.000055360,0.001230053,-0.000739317,-0.076923452,-0.064170837,9.780149460
1784245541.819450,-0.007754301,0.009977267,-0.531514704,-0.000502968,0.000905131,-0.000206937,-0.105083585,-0.091629304,9.785774231
1784245541.821446,-0.007751080,0.009977004,-0.531519055,-0.000304895,0.000574883,-0.000161776,-0.103742294,-0.091684707,9.791154861
1784245541.823450,-0.007753824,0.009979363,-0.531524837,-0.000120648,0.000536068,-0.000813659,-0.108925849,-0.077061556,9.760309219
1784245541.825448,-0.007748743,0.009978018,-0.531528234,0.000139175,0.000433998,-0.001216552,-0.110086434,-0.058964081,9.800774574
1784245541.827442,-0.007749504,0.009976479,-0.531528831,0.000397368,0.000122695,-0.001150230,-0.092158489,-0.062189873,9.781044006
1784245541.829443,-0.007754890,0.009974154,-0.531534255,-0.000192383,-0.000166811,-0.001247916,-0.101335600,-0.077051565,9.808288574
1784245541.831453,-0.007761286,0.009971344,-0.531538367,-0.001002087,-0.000462171,-0.001554826,-0.109319478,-0.069326386,9.807433128
1784245541.833453,-0.007763796,0.009972077,-0.531532228,-0.001338950,-0.000522833,-0.001000917,-0.083133534,-0.093413889,9.808201790
1784245541.835452,-0.007762604,0.009976886,-0.531530082,-0.001073476,-0.000053101,-0.000178533,-0.113463432,-0.076998092,9.822624207
1784245541.837456,-0.007754429,0.009983748,-0.531523764,-0.000151882,0.000749110,0.000442337,-0.113317229,-0.064496510,9.828532219
1784245541.839452,-0.007751342,0.009988935,-0.531522691,0.000627944,0.001314788,0.000822495,-0.135155976,-0.054943968,9.784635544
1784245541.841456,-0.007752938,0.009985808,-0.531525791,0.000539296,0.001053863,0.000462830,-0.104004383,-0.037215911,9.818852425
1784245541.843459,-0.007751756,0.009978014,-0.531522453,0.000284565,0.000036873,0.000358374,-0.077750765,-0.057932395,9.786465645
1784245541.845460,-0.007754136,0.009972257,-0.531519890,0.000041898,-0.000885694,0.000660264,-0.105044149,-0.050080817,9.802629471
1784245541.847458,-0.007756670,0.009976578,-0.531516910,-0.000306816,-0.000745736,0.000848336,-0.066209018,-0.032011710,9.774984360
1784245541.849462,-0.007755466,0.009975987,-0.531508803,-0.000484570,-0.000196945,0.001367043,-0.056451619,-0.040738482,9.787491798
1784245541.851463,-0.007756426,0.009976847,-0.531504035,-0.000508424,-0.000033060,0.001870131,-0.080356888,-0.049923625,9.799065590
1784245541.853470,-0.007750945,0.009979824,-0.531513155,-0.000141363,0.000269369,0.001064889,-0.107938051,-0.067443669,9.792201996
1784245541.855512,-0.007748580,0.009980087,-0.531525671,0.000363501,0.000458321,-0.000694887,-0.098513819,-0.103521511,9.808120728
1784245541.857472,-0.007751014,0.009974318,-0.531530082,0.000271701,-0.000031038,-0.001656156,-0.102518372,-0.102392606,9.782569885
1784245541.859474,-0.007755902,0.009970937,-0.531535745,-0.000251796,-0.000709470,-0.001889602,-0.099121369,-0.078932568,9.816796303
1784245541.861475,-0.007751897,0.009973572,-0.531546295,-0.000192017,-0.000629937,-0.002470960,-0.098006822,-0.098609239,9.809498787
1784245541.863474,-0.007749168,0.009978307,-0.531546354,0.000417901,0.000049543,-0.002511022,-0.071510658,-0.098363742,9.790246010
1784245541.865478,-0.007752288,0.009979977,-0.531546474,0.000371604,0.000473513,-0.001837361,-0.119041398,-0.095882997,9.779007912
1784245541.867482,-0.007755733,0.009978465,-0.531549752,-0.000172502,0.000357221,-0.001566408,-0.094322659,-0.090614185,9.812690735
1784245541.869478,-0.007758223,0.009983518,-0.531549811,-0.000403630,0.000504712,-0.001367465,-0.090920441,-0.069949642,9.798928261
1784245541.871480,-0.007755967,0.009985934,-0.531544626,-0.000190804,0.000874493,-0.000642812,-0.134844050,-0.064134695,9.816409111
1784245541.873478,-0.007758289,0.009989390,-0.531535923,-0.000238602,0.000908420,0.000479166,-0.112482078,-0.070267908,9.819528580
1784245541.875477,-0.007757078,0.009993672,-0.531530857,-0.000344330,0.001060007,0.001279058,-0.064625144,-0.046668347,9.817035675
1784245541.877482,-0.007752978,0.009995535,-0.531527698,0.000104055,0.001185094,0.001483598,-0.087415986,-0.076746844,9.803372383
1784245541.879481,-0.007747871,0.009996192,-0.531527042,0.000682359,0.001077284,0.001343067,-0.082316846,-0.062551655,9.814228058
1784245541.881494,-0.007739754,0.010001189,-0.531525493,0.001377438,0.001212448,0.001134006,-0.094938122,-0.068519041,9.794002533
1784245541.883491,-0.007739312,0.010003444,-0.531527162,0.001541264,0.001369601,0.000819024,-0.087317131,-0.069887526,9.783688545
1784245541.885487,-0.007738218,0.010001354,-0.531528413,0.001185719,0.001004335,0.000405617,-0.092096761,-0.057649851,9.772554398
1784245541.887492,-0.007737418,0.009997938,-0.531531155,0.000995105,0.000359964,0.000030248,-0.103707828,-0.054227918,9.753287315
1784245541.889497,-0.007732100,0.009995950,-0.531533122,0.001091406,-0.000111657,-0.000296998,-0.098675162,-0.080984168,9.789435387
1784245541.891493,-0.007727268,0.009999640,-0.531541467,0.001438926,0.000030084,-0.000911337,-0.067786224,-0.087213889,9.790769577
1784245541.893502,-0.007724403,0.010000275,-0.531542897,0.001659354,0.000457457,-0.001321019,-0.078753136,-0.104444653,9.776302338
1784245541.895505,-0.007723029,0.010000831,-0.531545877,0.001581694,0.000553158,-0.001260012,-0.101232298,-0.067320429,9.825835228
1784245541.897500,-0.007716619,0.009998945,-0.531548977,0.001684779,0.000315831,-0.001325336,-0.089481078,-0.098715290,9.809057236
1784245541.899504,-0.007716297,0.009999136,-0.531554341,0.001778930,0.000197728,-0.001535056,-0.100555979,-0.086908668,9.806879997
1784245541.901505,-0.007723633,0.010003772,-0.531552792,0.000911333,0.000551885,-0.001379988,-0.070942491,-0.086484410,9.819912910
1784245541.903497,-0.007727279,0.010001045,-0.531548619,-0.000031563,0.000629260,-0.000618658,-0.110356420,-0.079332188,9.830231667
1784245541.905509,-0.007724268,0.009999475,-0.531543612,-0.000018408,0.000262657,0.000169392,-0.090170853,-0.079638608,9.836975098
1784245541.907507,-0.007718822,0.010000268,-0.531536877,0.000552760,0.000132422,0.000925651,-0.108160786,-0.048633099,9.793669701
1784245541.909504,-0.007713162,0.010003521,-0.531529665,0.001098177,0.000323255,0.001622790,-0.083195031,-0.060767386,9.816927910
1784245541.911507,-0.007711439,0.010005943,-0.531524658,0.001243871,0.000573758,0.002004507,-0.061032027,-0.047902428,9.795063972
1784245541.913515,-0.007709208,0.010005907,-0.531526148,0.001061154,0.000672906,0.001704002,-0.079003140,-0.049880464,9.790550232
1784245541.915544,-0.007704153,0.010002180,-0.531529427,0.001159940,0.000332084,0.000923549,-0.093482845,-0.059164081,9.798995018
1784245541.917522,-0.007704674,0.009999044,-0.531531394,0.001156362,-0.000221152,0.000317074,-0.081748284,-0.053505968,9.801283836
1784245541.919519,-0.007704722,0.009997206,-0.531531453,0.000721084,-0.000458850,0.000092119,-0.111906514,-0.060761545,9.804796219
1784245541.921519,-0.007704408,0.009999360,-0.531536341,0.000462604,-0.000271440,-0.000268226,-0.106882118,-0.055261657,9.778383255
1784245541.923525,-0.007705369,0.010007405,-0.531538188,0.000245272,0.000496146,-0.000653627,-0.112616114,-0.084294237,9.775950432
1784245541.925521,-0.007712244,0.010007520,-0.531539559,-0.000403317,0.000915178,-0.000701274,-0.132784545,-0.081420884,9.786260605
1784245541.927526,-0.007712443,0.010006512,-0.531537235,-0.000774654,0.000605603,-0.000450420,-0.081888802,-0.066773094,9.776989937
1784245541.929527,-0.007710750,0.010007296,-0.531535506,-0.000465982,0.000480503,-0.000049573,-0.093497910,-0.059688356,9.809751511
1784245541.931525,-0.007712525,0.010011338,-0.531537294,-0.000345196,0.000734247,-0.000044634,-0.091378525,-0.071233727,9.791297913
1784245541.933528,-0.007712587,0.010015653,-0.531534731,-0.000418098,0.001100491,0.000013874,-0.096231274,-0.062004957,9.825426102
1784245541.935531,-0.007710908,0.010015949,-0.531532407,-0.000239599,0.001111040,0.000344267,-0.083978854,-0.088938668,9.810470581
1784245541.937526,-0.007707357,0.010016490,-0.531529546,0.000176931,0.000863535,0.000602039,-0.083039962,-0.085785821,9.806456566
1784245541.939535,-0.007702707,0.010015652,-0.531527221,0.000733675,0.000698497,0.000790311,-0.106228098,-0.072594561,9.820416451
1784245541.941540,-0.007706616,0.010016012,-0.531524181,0.000632797,0.000565620,0.000944642,-0.100207120,-0.059433598,9.785984993
1784245541.943534,-0.007710446,0.010010687,-0.531522930,-0.000149899,0.000080928,0.000981575,-0.113108180,-0.048662063,9.806665421
1784245541.945565,-0.007716506,0.010010799,-0.531522155,-0.000864524,-0.000287610,0.000845699,-0.122589968,-0.054275792,9.794067383
1784245541.947562,-0.007715343,0.010014014,-0.531521738,-0.000962928,0.000015667,0.000696415,-0.093659386,-0.075957678,9.766608238
1784245541.949561,-0.007711944,0.010017805,-0.531523168,-0.000362797,0.000464233,0.000445585,-0.092644602,-0.066126741,9.768465042
1784245541.951545,-0.007719647,0.010017131,-0.531527460,-0.000524369,0.000529469,-0.000064484,-0.092035763,-0.088679388,9.788496017
1784245541.953548,-0.007726429,0.010014748,-0.531529486,-0.001315404,0.000170493,-0.000475501,-0.115962505,-0.064496621,9.770245552
1784245541.955546,-0.007726048,0.010018241,-0.531527460,-0.001347209,0.000188443,-0.000339258,-0.080432214,-0.056191906,9.798579216
1784245541.957545,-0.007724063,0.010020658,-0.531522691,-0.000825379,0.000534860,0.000214012,-0.103238650,-0.050424594,9.784695625
1784245541.959557,-0.007724135,0.010022976,-0.531517744,-0.000591318,0.000697584,0.000814903,-0.076856859,-0.056755807,9.808441162
1784245541.961558,-0.007730487,0.010019647,-0.531515718,-0.000985120,0.000427335,0.001069064,-0.098515660,-0.068377659,9.780549049
1784245541.963553,-0.007733847,0.010015592,-0.531516254,-0.001402323,-0.000197789,0.000872536,-0.083201140,-0.100431830,9.787083626
1784245541.965554,-0.007738390,0.010011171,-0.531519890,-0.001579564,-0.000724224,0.000350086,-0.096059293,-0.086889848,9.796124458
1784245541.967555,-0.007738062,0.010009891,-0.531517863,-0.001435781,-0.000913784,0.000151518,-0.118565276,-0.055245720,9.797203064
1784245541.969554,-0.007734596,0.010013356,-0.531515241,-0.000875178,-0.000609357,0.000425245,-0.099487513,-0.072601311,9.809214592
1784245541.971570,-0.007731030,0.010014695,-0.531511486,-0.000248144,-0.000210615,0.000734297,-0.115149617,-0.068822756,9.810120583
1784245541.973564,-0.007731851,0.010018042,-0.531513631,-0.000078869,0.000174953,0.000634578,-0.085527569,-0.069951870,9.789518356
1784245541.975569,-0.007736071,0.010019717,-0.531518519,-0.000478269,0.000483012,-0.000016403,-0.080051288,-0.060785372,9.813793182
1784245541.977567,-0.007740765,0.010021407,-0.531515419,-0.000952255,0.000581195,-0.000130594,-0.074091874,-0.089347780,9.787163734
1784245541.979567,-0.007743705,0.010020622,-0.531515539,-0.001136006,0.000612987,0.000111187,-0.085857734,-0.096874036,9.795622826
1784245541.981565,-0.007750379,0.010019665,-0.531524122,-0.001396462,0.000462390,-0.000508127,-0.102607548,-0.071585655,9.798010826
1784245541.983569,-0.007749315,0.010010757,-0.531532228,-0.001430371,-0.000401644,-0.001504800,-0.117315464,-0.064533420,9.777865410
1784245541.985568,-0.007747469,0.010004153,-0.531532943,-0.000881932,-0.001418567,-0.001690560,-0.103492416,-0.072285660,9.772001266
1784245541.987567,-0.007744729,0.010003907,-0.531530380,-0.000332289,-0.001499459,-0.001099896,-0.142152026,-0.076000936,9.797047615
1784245541.989575,-0.007737753,0.010006361,-0.531530201,0.000380603,-0.001076111,-0.000612265,-0.122960739,-0.085976109,9.779068947
1784245541.991572,-0.007731287,0.010007662,-0.531530559,0.001154694,-0.000661240,-0.000454603,-0.063868962,-0.061573476,9.769418716
1784245541.993581,-0.007732943,0.010011774,-0.531531155,0.001089865,0.000008084,-0.000392857,-0.090897024,-0.067738466,9.802977562
1784245541.995574,-0.007735293,0.010012370,-0.531533897,0.000445826,0.000449112,-0.000511549,-0.088681713,-0.070826620,9.792201042
1784245541.997572,-0.007735730,0.010014807,-0.531532526,0.000136527,0.000533908,-0.000472717,-0.079414383,-0.084332131,9.784500122
1784245541.999576,-0.007734464,0.010013764,-0.531532049,0.000181289,0.000537443,-0.000227701,-0.070501953,-0.087770447,9.810938835
1784245542.001586,-0.007732820,0.010010084,-0.531528771,0.000353701,0.000123643,0.000093107,-0.094069935,-0.071192861,9.790399551
1784245542.003590,-0.007732831,0.010007726,-0.531530619,0.000279651,-0.000282652,0.000163445,-0.107074410,-0.068532333,9.817750931
1784245542.005586,-0.007732309,0.010005367,-0.531536520,0.000155884,-0.000484011,-0.000416712,-0.122661799,-0.058895312,9.813764572
1784245542.007585,-0.007730670,0.010005124,-0.531538725,0.000265806,-0.000524750,-0.000856494,-0.133547261,-0.067783333,9.823111534
1784245542.009598,-0.007730578,0.010009391,-0.531539679,0.000330098,-0.000268372,-0.000832317,-0.094619103,-0.078059152,9.811874390
1784245542.011592,-0.007735607,0.010007632,-0.531540751,-0.000076392,-0.000185153,-0.000743794,-0.080606058,-0.071343094,9.787272453
1784245542.013593,-0.007737997,0.010008203,-0.531541705,-0.000608132,-0.000175987,-0.000679968,-0.058898948,-0.094092809,9.797011375
1784245542.015597,-0.007735492,0.010011405,-0.531540096,-0.000486008,0.000166075,-0.000450275,-0.083091930,-0.091869690,9.779966354
1784245542.017614,-0.007737801,0.010011482,-0.531536520,-0.000344321,0.000340816,0.000023604,-0.098405287,-0.058995917,9.784195900
1784245542.019603,-0.007742260,0.010004276,-0.531534970,-0.000790891,-0.000209928,0.000364169,-0.106675699,-0.036206003,9.807646751
1784245542.021600,-0.007741134,0.010002458,-0.531532109,-0.000882415,-0.000739323,0.000557768,-0.121375695,-0.065060012,9.796241760
1784245542.023603,-0.007742367,0.010004488,-0.531528413,-0.000708752,-0.000606481,0.000846489,-0.094797246,-0.057275500,9.787796974
1784245542.025601,-0.007742048,0.010002147,-0.531526148,-0.000636781,-0.000544895,0.001020432,-0.052519292,-0.049326926,9.791028976
1784245542.027596,-0.007738584,0.009996322,-0.531525612,-0.000209082,-0.000952841,0.000946652,-0.058933891,-0.098826423,9.769632339
1784245542.029596,-0.007737480,0.009990757,-0.531529009,0.000193022,-0.001320674,0.000513566,-0.077573314,-0.080342561,9.787218094
1784245542.031600,-0.007739830,0.009994266,-0.531535745,0.000096243,-0.000951364,-0.000304452,-0.087402135,-0.079068959,9.751798630
1784245542.033607,-0.007735533,0.009990883,-0.531537235,0.000261443,-0.000595646,-0.000773150,-0.080178522,-0.071110740,9.816864967
1784245542.035603,-0.007726183,0.009987114,-0.531536341,0.001170757,-0.000834205,-0.000592608,-0.108366616,-0.064442106,9.811947823
1784245542.037604,-0.007726143,0.009986097,-0.531537414,0.001490411,-0.000932410,-0.000443157,-0.113407031,-0.074526168,9.789910316
1784245542.039606,-0.007727324,0.009985060,-0.531535447,0.000982630,-0.000924410,-0.000262809,-0.107003875,-0.063112289,9.811511040
1784245542.041611,-0.007726172,0.009984042,-0.531530440,0.000684036,-0.000921898,0.000283858,-0.072272897,-0.086343154,9.802427292
1784245542.043609,-0.007727189,0.009981195,-0.531529188,0.000558014,-0.000830726,0.000628588,-0.080869079,-0.093277283,9.784889221
1784245542.045639,-0.007733273,0.009979979,-0.531529844,-0.000021217,-0.000774729,0.000499799,-0.073440053,-0.072350077,9.789962769
1784245542.047609,-0.007736969,0.009979792,-0.531533003,-0.000676693,-0.000657538,0.000099151,-0.124685943,-0.043356083,9.774408340
1784245542.049617,-0.007733609,0.009978554,-0.531535566,-0.000612686,-0.000685225,-0.000318848,-0.113684274,-0.021798337,9.810424805
1784245542.051616,-0.007736158,0.009984723,-0.531537175,-0.000489322,-0.000274905,-0.000512525,-0.099791840,-0.062540099,9.781033516
1784245542.053616,-0.007741857,0.009986182,-0.531529307,-0.000904248,0.000313123,0.000051212,-0.104949109,-0.081246704,9.774633408
1784245542.055619,-0.007736704,0.009983005,-0.531520545,-0.000690734,0.000101644,0.001163164,-0.086773507,-0.099439017,9.779912949
1784245542.057615,-0.007733395,0.009985936,-0.531517744,0.000063422,0.000051228,0.001631754,-0.077199750,-0.048619993,9.799078941
1784245542.059625,-0.007738860,0.009987822,-0.531516254,-0.000177017,0.000439986,0.001486833,-0.086983152,-0.039693266,9.821543694
1784245542.061627,-0.007744949,0.009983959,-0.531513870,-0.000989932,0.000262311,0.001341575,-0.106123611,-0.065690733,9.794458389
1784245542.063622,-0.007745935,0.009979771,-0.531515121,-0.001207881,-0.000410028,0.001052808,-0.100720547,-0.101986721,9.785263062
1784245542.065651,-0.007745930,0.009978745,-0.531520963,-0.000947339,-0.000702918,0.000284602,-0.108590178,-0.086064689,9.765630722
1784245542.067680,-0.007745067,0.009979839,-0.531522155,-0.000626498,-0.000503717,-0.000272522,-0.108263835,-0.058767684,9.769842148
1784245542.069665,-0.007745055,0.009984893,-0.531523049,-0.000443542,0.000035826,-0.000333279,-0.132631347,-0.070485406,9.760328293
1784245542.071665,-0.007745466,0.009989453,-0.531521201,-0.000398601,0.000662602,-0.000177809,-0.112114429,-0.078613214,9.795266151
1784245542.073660,-0.007744079,0.009993215,-0.531519353,-0.000204167,0.001062354,0.000115908,-0.105346918,-0.073949948,9.820409775
1784245542.075642,-0.007745948,0.009987977,-0.531520247,-0.000159700,0.000689753,0.000145507,-0.090492398,-0.071334258,9.803852081
1784245542.077637,-0.007747054,0.009981928,-0.531524658,-0.000314507,-0.000261088,-0.000252205,-0.106910199,-0.057104368,9.785545349
1784245542.079638,-0.007744569,0.009983884,-0.531526327,-0.000223796,-0.000541645,-0.000593470,-0.105830967,-0.078680992,9.793478012
1784245542.081644,-0.007746046,0.009989777,-0.531526625,-0.000185751,0.000062578,-0.000566840,-0.113031887,-0.079570770,9.805570602
1784245542.083642,-0.007746170,0.009992793,-0.531524301,-0.000248109,0.000592055,-0.000276309,-0.112991944,-0.074392386,9.833399773
1784245542.085652,-0.007753081,0.009987877,-0.531523287,-0.000663333,0.000243241,0.000020919,-0.093440652,-0.054373238,9.818305016
1784245542.087646,-0.007754908,0.009986877,-0.531525016,-0.001075982,-0.000224009,-0.000034693,-0.076445445,-0.059487481,9.813804626
1784245542.089645,-0.007745399,0.009991611,-0.531524241,-0.000320736,0.000090301,-0.000087933,-0.083166324,-0.062161773,9.760877609
1784245542.091652,-0.007742646,0.009992954,-0.531522512,0.000537992,0.000476499,0.000109322,-0.083024204,-0.086471893,9.776861191
1784245542.093652,-0.007748026,0.009987827,-0.531513572,0.000233742,0.000170462,0.000807877,-0.092507258,-0.053695116,9.784235954
1784245542.095658,-0.007751648,0.009987923,-0.531507194,-0.000423519,-0.000139665,0.001622470,-0.115447246,-0.097514160,9.749859810
1784245542.097689,-0.007748952,0.009984493,-0.531506062,-0.000376376,-0.000332051,0.001693412,-0.123553552,-0.058839299,9.807487488
1784245542.099658,-0.007746781,0.009985811,-0.531506121,0.000020401,-0.000491452,0.001312318,-0.099871002,-0.030843576,9.797377586
1784245542.101659,-0.007746661,0.009993273,-0.531509042,0.000137342,0.000134019,0.000749724,-0.096477903,-0.047435515,9.793238640
1784245542.103654,-0.007747808,0.009996085,-0.531504929,-0.000047012,0.000806795,0.000629491,-0.068687521,-0.048427530,9.819711685
1784245542.105661,-0.007756757,0.009997561,-0.531500697,-0.000801664,0.000886623,0.001026029,-0.064141415,-0.081150599,9.813676834
1784245542.107663,-0.007761178,0.009997926,-0.531494915,-0.001498265,0.000765704,0.001421983,-0.078860603,-0.074187398,9.806085587
1784245542.109660,-0.007757043,0.009997302,-0.531491816,-0.001120451,0.000596516,0.001639179,-0.086650535,-0.088742025,9.787604332
1784245542.111668,-0.007750433,0.009992488,-0.531499445,-0.000087418,0.000128643,0.000894098,-0.092803471,-0.079133511,9.770623207
1784245542.113668,-0.007745433,0.009995925,-0.531511009,0.000760454,0.000026851,-0.000640053,-0.097240672,-0.074224763,9.781410217
1784245542.115684,-0.007741357,0.010002278,-0.531517386,0.001205341,0.000710084,-0.001681512,-0.080513477,-0.064128019,9.780594826
1784245542.117677,-0.007743149,0.009999434,-0.531511664,0.001033598,0.000755983,-0.001270143,-0.091663249,-0.094149686,9.801014900
1784245542.119671,-0.007747244,0.009991373,-0.531505704,0.000353343,-0.000199751,-0.000128422,-0.075858139,-0.085452117,9.809604645
1784245542.121681,-0.007746702,0.009986639,-0.531505585,0.000020046,-0.001021414,0.000323780,-0.100977018,-0.085063376,9.800167084
1784245542.123678,-0.007743784,0.009992531,-0.531508088,0.000276910,-0.000685873,0.000081545,-0.092015512,-0.087303706,9.784021378
1784245542.125681,-0.007740756,0.009994930,-0.531506538,0.000631793,0.000042180,-0.000001700,-0.091937080,-0.082226694,9.762983322
1784245542.127716,-0.007743603,0.009993955,-0.531501830,0.000468452,0.000124140,0.000421886,-0.100081846,-0.047097359,9.815204620
1784245542.129686,-0.007742228,0.009995125,-0.531500220,0.000113260,0.000078399,0.000729502,-0.093884371,-0.056759551,9.776594162
1784245542.131682,-0.007738408,0.009999103,-0.531501949,0.000311235,0.000384794,0.000522972,-0.103626229,-0.045478549,9.782933235
1784245542.133689,-0.007728343,0.009996309,-0.531497598,0.001049065,0.000366391,0.000570684,-0.112051383,-0.034446917,9.822000504
1784245542.135695,-0.007720043,0.009995202,-0.531498671,0.001890081,0.000007396,0.000658154,-0.105060779,-0.051427886,9.803068161
1784245542.137702,-0.007720471,0.009998436,-0.531497300,0.001910945,0.000149563,0.000506562,-0.077510059,-0.036579698,9.807674408
1784245542.139699,-0.007719760,0.009999273,-0.531500340,0.001295471,0.000422808,0.000251657,-0.098220803,-0.043355435,9.789677620
1784245542.141693,-0.007713350,0.009998444,-0.531504750,0.001315154,0.000349154,-0.000313902,-0.091724515,-0.061906651,9.803462982
1784245542.143692,-0.007712948,0.009997445,-0.531506598,0.001436236,0.000149911,-0.000654340,-0.067646272,-0.074356563,9.809680939
1784245542.145688,-0.007710257,0.009993486,-0.531505525,0.001268081,-0.000210786,-0.000524865,-0.066357769,-0.080502190,9.789468765
1784245542.147692,-0.007704839,0.009995065,-0.531503439,0.001472113,-0.000316739,-0.000158375,-0.084625319,-0.067088366,9.826300621
1784245542.149707,-0.007708449,0.009997369,-0.531505108,0.001156427,0.000098277,-0.000087956,-0.109068327,-0.085480981,9.810467720
1784245542.151700,-0.007713504,0.009996396,-0.531510830,0.000220670,0.000231440,-0.000562223,-0.083622277,-0.096966393,9.804591179
1784245542.153696,-0.007715904,0.009999172,-0.531515360,-0.000207043,0.000362925,-0.001105696,-0.077513874,-0.074604914,9.799360275
1784245542.155700,-0.007716611,0.010002671,-0.531516254,-0.000226826,0.000759558,-0.001174538,-0.112829365,-0.100567110,9.796469688
1784245542.157706,-0.007712604,0.010001338,-0.531520844,0.000062407,0.000703241,-0.001226130,-0.077227846,-0.088052683,9.799722672
1784245542.159708,-0.007711396,0.009999139,-0.531524420,0.000414670,0.000337810,-0.001445814,-0.100412831,-0.076862745,9.780045509
1784245542.161712,-0.007716396,0.010002147,-0.531528771,0.000059668,0.000366068,-0.001587132,-0.098659553,-0.079240009,9.796171188
1784245542.163704,-0.007716723,0.009999605,-0.531521380,-0.000274215,0.000274932,-0.000950698,-0.097772792,-0.079740815,9.801996231
1784245542.165708,-0.007717715,0.009996223,-0.531514645,-0.000252757,-0.000230942,0.000269086,-0.080998778,-0.068058528,9.767119408
1784245542.167711,-0.007715529,0.009998891,-0.531519115,-0.000104522,-0.000217933,0.000347690,-0.090584636,-0.077736080,9.822191238
1784245542.169710,-0.007712746,0.009996705,-0.531524658,0.000259742,-0.000098132,-0.000424408,-0.115113236,-0.029729923,9.794231415
1784245542.171709,-0.007715933,0.009990953,-0.531523168,0.000156282,-0.000585402,-0.000575470,-0.116907366,-0.030917266,9.775393486
1784245542.173712,-0.007720553,0.009991711,-0.531527221,-0.000550910,-0.000826118,-0.000595625,-0.109709971,-0.066429362,9.778758049
1784245542.175730,-0.007719456,0.009992003,-0.531531334,-0.000771427,-0.000588348,-0.000986625,-0.076166272,-0.075826138,9.779626846
1784245542.177724,-0.007715979,0.009991850,-0.531533003,-0.000010113,-0.000425298,-0.001233953,-0.095078580,-0.079759412,9.799758911
1784245542.179717,-0.007702788,0.009998454,-0.531561077,0.000688407,-0.000392448,-0.001258374,-0.092343785,-0.052776743,9.780805588
1784245542.181724,-0.007706964,0.010000939,-0.531562150,0.000440061,-0.000180780,-0.001114300,-0.082009286,-0.075424269,9.796661377
1784245542.183719,-0.007714592,0.010005701,-0.531564832,-0.000440594,0.000461347,-0.001073926,-0.100243524,-0.060126390,9.820502281
1784245542.185721,-0.007717365,0.010016122,-0.531568050,-0.000985549,0.001468949,-0.001185767,-0.079599433,-0.059955612,9.822317123
1784245542.187721,-0.007717257,0.010016448,-0.531563342,-0.000899906,0.001798691,-0.000763278,-0.104818247,-0.068055891,9.809687614
1784245542.189730,-0.007723598,0.010015952,-0.531558871,-0.001135646,0.001336940,0.000063619,-0.110976018,-0.096075512,9.791568756
1784245542.191728,-0.007731183,0.010019807,-0.531555176,-0.001828974,0.001240616,0.000594307,-0.101550862,-0.096177168,9.788886070
1784245542.193724,-0.007740137,0.010020189,-0.531554341,-0.002369606,0.001172378,0.000728136,-0.103012614,-0.067182958,9.809695244
1784245542.195730,-0.007746512,0.010018446,-0.531558454,-0.002675890,0.000746950,0.000300172,-0.059381820,-0.060414277,9.787363052
1784245542.197736,-0.007749054,0.010021186,-0.531555533,-0.002553905,0.000612414,0.000134345,-0.074595690,-0.055834576,9.800827980
1784245542.199737,-0.007746198,0.010019629,-0.531547189,-0.001922751,0.000683348,0.000863780,-0.084616922,-0.069048360,9.786835670
1784245542.201849,-0.007746893,0.010020760,-0.531543911,-0.001337620,0.000625565,0.001412807,-0.105602808,-0.059453636,9.798533440
1784245542.203848,-0.007750198,0.010024421,-0.531548738,-0.001341726,0.000719640,0.000910251,-0.087275758,-0.065103047,9.803894997
1784245542.205799,-0.007749578,0.010025265,-0.531547546,-0.001254210,0.000769973,0.000417825,-0.076444104,-0.099498130,9.769610405
1784245542.207765,-0.007746277,0.010024762,-0.531542063,-0.000652110,0.000580528,0.000762713,-0.083307944,-0.108974874,9.791511536
1784245542.209808,-0.007745073,0.010020261,-0.531542957,-0.000107782,0.000154277,0.000868108,-0.093772866,-0.084148161,9.784487724
1784245542.211785,-0.007748257,0.010016371,-0.531544387,-0.000146554,-0.000382660,0.000473587,-0.088620476,-0.064669639,9.808379173
1784245542.213757,-0.007751295,0.010016909,-0.531549573,-0.000586419,-0.000443619,-0.000101460,-0.085067131,-0.105428599,9.800050735
1784245542.215748,-0.007747758,0.010019043,-0.531551659,-0.000450259,-0.000078636,-0.000571525,-0.101058088,-0.092592873,9.788013458
1784245542.217787,-0.007745205,0.010022792,-0.531545639,0.000082767,0.000339915,-0.000154247,-0.089218743,-0.078407601,9.788116455
1784245542.219758,-0.007743526,0.010022165,-0.531541228,0.000378028,0.000499068,0.000600071,-0.069938235,-0.044009794,9.767731667
1784245542.221749,-0.007745586,0.010021713,-0.531540155,0.000283481,0.000332464,0.000804533,-0.078579642,-0.052516744,9.782464027
1784245542.223783,-0.007743128,0.010023294,-0.531537712,0.000144345,0.000374619,0.000827919,-0.115162738,-0.071357906,9.788584709
1784245542.225763,-0.007742244,0.010024928,-0.531537950,0.000243636,0.000547712,0.000755808,-0.107943855,-0.067894809,9.792649269
1784245542.227795,-0.007744366,0.010021552,-0.531540751,0.000095597,0.000282416,0.000339709,-0.104913585,-0.076103292,9.807393074
1784245542.229780,-0.007739244,0.010016184,-0.531543314,0.000290184,-0.000399203,-0.000110070,-0.093876831,-0.055078991,9.792295456
1784245542.231756,-0.007730664,0.010014555,-0.531542778,0.001155912,-0.000779007,-0.000201254,-0.084995531,-0.025225708,9.799669266
1784245542.233762,-0.007728130,0.010013618,-0.531537116,0.001391394,-0.000694876,0.000293307,-0.070637472,-0.065839663,9.751451492
1784245542.235765,-0.007728039,0.010013145,-0.531533480,0.000984705,-0.000556573,0.000851670,-0.092685804,-0.067667767,9.796250343
1784245542.237763,-0.007730579,0.010014826,-0.531528711,0.000545342,-0.000327841,0.001186710,-0.103653379,-0.046098217,9.807139397
1784245542.239759,-0.007730512,0.010012939,-0.531533062,0.000025752,-0.000335731,0.000887940,-0.073881380,-0.071070403,9.799834251
1784245542.241762,-0.007732335,0.010010890,-0.531533659,-0.000300387,-0.000591819,0.000307941,-0.079702199,-0.071303718,9.780099869
1784245542.243760,-0.007732108,0.010011173,-0.531532347,-0.000319011,-0.000513074,0.000266332,-0.093168333,-0.070765950,9.791748047
1784245542.245767,-0.007726138,0.010013817,-0.531530619,0.000194840,-0.000138407,0.000401092,-0.101302877,-0.075577326,9.789916039
1784245542.247764,-0.007721532,0.010017261,-0.531534433,0.000861218,0.000313480,0.000157740,-0.072614573,-0.078197785,9.791719437
1784245542.249769,-0.007715663,0.010021984,-0.531543851,0.001404873,0.000844687,-0.000776497,-0.073120870,-0.081483588,9.813666344
1784245542.251836,-0.007715858,0.010023362,-0.531545460,0.001473586,0.001090316,-0.001313972,-0.076517791,-0.102916844,9.809491158
1784245542.253781,-0.007715897,0.010018594,-0.531538665,0.001171052,0.000672330,-0.000608243,-0.093671925,-0.075246178,9.792614937
1784245542.255780,-0.007720328,0.010021081,-0.531538486,0.000661866,0.000442166,0.000032192,-0.077032082,-0.072323158,9.792651176
1784245542.257805,-0.007726327,0.010023857,-0.531534791,-0.000228562,0.000677407,0.000283539,-0.079051711,-0.090285391,9.801948547
1784245542.259815,-0.007723805,0.010027106,-0.531539142,-0.000386985,0.000971366,0.000161224,-0.072412431,-0.061607335,9.789585114
1784245542.261781,-0.007720041,0.010023670,-0.531538725,0.000162578,0.000765689,-0.000145785,-0.093975969,-0.063561633,9.788207054
1784245542.263804,-0.007719594,0.010021063,-0.531531870,0.000357165,0.000145446,0.000385790,-0.104114853,-0.047814347,9.797264099
1784245542.265784,-0.007723463,0.010023022,-0.531526923,-0.000022220,0.000057328,0.001081116,-0.096835285,-0.077004127,9.793498039
1784245542.267787,-0.007718865,0.010023290,-0.531527221,0.000030146,0.000190569,0.001101877,-0.092010744,-0.086455464,9.790752411
1784245542.269790,-0.007711887,0.010021961,-0.531530440,0.000862942,0.000084394,0.000575578,-0.078080364,-0.084444761,9.797950745
1784245542.271793,-0.007710981,0.010022013,-0.531525433,0.001215452,-0.000010425,0.000552709,-0.088858925,-0.045983061,9.827329636
1784245542.273791,-0.007713056,0.010022556,-0.531524003,0.000713546,0.000052794,0.000842462,-0.073232256,-0.052878264,9.823713303
1784245542.275788,-0.007719379,0.010024530,-0.531526625,-0.000137604,0.000233288,0.000530018,-0.091140531,-0.051523440,9.791424751
1784245542.277811,-0.007714509,0.010029824,-0.531533062,-0.000192582,0.000667989,-0.000236560,-0.103253372,-0.087725587,9.800596237
1784245542.279793,-0.007701226,0.010027985,-0.531535506,0.001029520,0.000664848,-0.000758677,-0.083302587,-0.107716843,9.803626060
1784245542.281826,-0.007695605,0.010026379,-0.531538546,0.001968413,0.000192618,-0.000906902,-0.126269236,-0.025452793,9.779901505
1784245542.283805,-0.007700997,0.010030478,-0.531534910,0.001280523,0.000148949,-0.000618248,-0.122654833,-0.060461406,9.781921387
1784245542.285836,-0.007701379,0.010034787,-0.531530142,0.000366608,0.000514361,0.000117092,-0.123220585,-0.069484830,9.791727066
1784245542.287811,-0.007698921,0.010035871,-0.531532884,0.000406577,0.000739607,0.000220430,-0.092289403,-0.071733788,9.800260544
1784245542.289808,-0.007696465,0.010041096,-0.531535089,0.000654944,0.001012206,-0.000172684,-0.110006116,-0.052251022,9.801712990
1784245542.291809,-0.007695001,0.010045379,-0.531533003,0.000765117,0.001425552,-0.000133046,-0.104365095,-0.030436696,9.811273575
1784245542.293806,-0.007692723,0.010041899,-0.531531513,0.000621190,0.001115565,0.000144794,-0.092305556,-0.036297768,9.794658661
1784245542.295818,-0.007694286,0.010039316,-0.531532168,0.000312835,0.000425065,0.000163767,-0.060028698,-0.076157115,9.797124863
1784245542.297843,-0.007696101,0.010039120,-0.531534553,0.000000601,0.000122639,-0.000092210,-0.107135646,-0.074689329,9.801571846
1784245542.299820,-0.007696691,0.010033035,-0.531540692,-0.000120049,-0.000330603,-0.000640851,-0.099873319,-0.070072770,9.769329071
1784245542.301818,-0.007693994,0.010029085,-0.531539619,0.000096114,-0.000917491,-0.000806804,-0.114814200,-0.041859243,9.798190117
1784245542.303816,-0.007690096,0.010031455,-0.531538665,0.000384667,-0.000827347,-0.000455259,-0.087485448,-0.045784097,9.796845436
1784245542.305815,-0.007691939,0.010028872,-0.531541228,0.000289066,-0.000666946,-0.000433794,-0.118373975,-0.077141151,9.788544655
1784245542.307817,-0.007689720,0.010031815,-0.531542659,0.000238866,-0.000459312,-0.000580086,-0.111212403,-0.078183107,9.796166420
1784245542.309811,-0.007687429,0.010034381,-0.531543612,0.000530388,-0.000042266,-0.000576346,-0.114436746,-0.083664663,9.816751480
1784245542.311819,-0.007690353,0.010030749,-0.531546593,0.000394638,-0.000184015,-0.000684967,-0.095608808,-0.086476251,9.800163269
1784245542.313825,-0.007688479,0.010030137,-0.531545043,0.000203788,-0.000395277,-0.000602379,-0.104708284,-0.058677316,9.813783646
1784245542.315828,-0.007683861,0.010032791,-0.531545997,0.000575309,-0.000123590,-0.000394617,-0.096158653,-0.057379078,9.804832458
1784245542.317830,-0.007688594,0.010034217,-0.531549037,0.000413962,0.000188868,-0.000550193,-0.126249507,-0.060050115,9.793579102
1784245542.319821,-0.007692100,0.010036573,-0.531549573,-0.000338151,0.000261229,-0.000647351,-0.100609608,-0.054605205,9.800810814
1784245542.321832,-0.007694118,0.010039037,-0.531547308,-0.000705353,0.000381778,-0.000356428,-0.085799426,-0.054366045,9.803517342
1784245542.323826,-0.007696430,0.010041305,-0.531549454,-0.000862170,0.000649060,-0.000251628,-0.103241690,-0.087633364,9.787594795
1784245542.325824,-0.007700103,0.010042189,-0.531552494,-0.001085186,0.000739162,-0.000537075,-0.097926259,-0.092299625,9.804158211
1784245542.327824,-0.007702432,0.010042531,-0.531552851,-0.001195667,0.000623473,-0.000619585,-0.086296082,-0.095165491,9.808184624
1784245542.329837,-0.007702627,0.010043760,-0.531550765,-0.000914416,0.000623187,-0.000335665,-0.078976966,-0.084426910,9.797053337
1784245542.331834,-0.007702803,0.010046730,-0.531552196,-0.000562769,0.000801831,-0.000199811,-0.095422357,-0.032419834,9.822031021
1784245542.333842,-0.007706104,0.010048166,-0.531556845,-0.000777135,0.000795819,-0.000553643,-0.112826653,-0.064171575,9.781908035
1784245542.335837,-0.007704412,0.010047412,-0.531552434,-0.000810426,0.000535691,-0.000415497,-0.114172690,-0.062127557,9.811957359
1784245542.337838,-0.007699990,0.010056962,-0.531553984,-0.000177281,0.000985856,-0.000111680,-0.118078329,-0.052112564,9.796775818
1784245542.339839,-0.007698883,0.010068144,-0.531556904,0.000167001,0.002092123,-0.000391652,-0.114555620,-0.057549994,9.798985481
1784245542.341846,-0.007698526,0.010065023,-0.531549573,0.000135784,0.002033343,0.000012886,-0.093587570,-0.068501309,9.789072037
1784245542.343850,-0.007694809,0.010059041,-0.531549752,0.000335510,0.000870955,0.000500274,-0.106745869,-0.082049683,9.764762878
1784245542.345956,-0.007689695,0.010060621,-0.531553984,0.000811856,0.000349456,0.000063390,-0.105898924,-0.083675332,9.802861214
1784245542.347871,-0.007691521,0.010060424,-0.531557500,0.000820020,0.000352625,-0.000487954,-0.106183521,-0.070621490,9.794875145
1784245542.349871,-0.007691796,0.010059687,-0.531560302,0.000444871,0.000250383,-0.000782479,-0.106067970,-0.060388323,9.804803848
1784245542.351885,-0.007693322,0.010057641,-0.531556904,0.000187165,0.000046861,-0.000528385,-0.116139382,-0.076429784,9.810519218
1784245542.353863,-0.007700664,0.010057779,-0.531560898,-0.000435427,-0.000204155,-0.000434802,-0.110166647,-0.064460449,9.817775726
1784245542.355857,-0.007704382,0.010053627,-0.531562626,-0.001034349,-0.000527340,-0.000710625,-0.107182756,-0.040308218,9.818381310
1784245542.357856,-0.007696318,0.010052800,-0.531560838,-0.000458585,-0.000722128,-0.000512585,-0.102412701,-0.091832325,9.809535980
1784245542.359853,-0.007690503,0.010052127,-0.531559348,0.000631996,-0.000620604,-0.000149271,-0.110236794,-0.107467279,9.817050934
1784245542.361861,-0.007693320,0.010051161,-0.531552017,0.000684113,-0.000558964,0.000493240,-0.094921015,-0.102732003,9.816648483
1784245542.363862,-0.007700413,0.010053641,-0.531548321,-0.000035455,-0.000308787,0.001105657,-0.099690184,-0.093248494,9.751695633
1784245542.365905,-0.007701388,0.010055825,-0.531548679,-0.000429501,0.000091262,0.001029714,-0.092618354,-0.063893296,9.769374847
1784245542.367863,-0.007700738,0.010059586,-0.531547666,-0.000335483,0.000469687,0.000794962,-0.075769573,-0.040678859,9.813925743
1784245542.369858,-0.007696146,0.010063041,-0.531544268,0.000023034,0.000866683,0.000877810,-0.088404804,-0.045540851,9.827331543
1784245542.371870,-0.007696306,0.010061251,-0.531536937,0.000224836,0.000775891,0.001369196,-0.086920269,-0.071923599,9.817300797
1784245542.373941,-0.007701408,0.010059787,-0.531535685,-0.000210438,0.000338931,0.001579760,-0.117490940,-0.076050416,9.822625160
1784245542.375917,-0.007701654,0.010055863,-0.531536639,-0.000527744,-0.000119950,0.001172763,-0.100667320,-0.093866564,9.840460777
1784245542.377876,-0.007692739,0.010059006,-0.531533778,0.000202555,-0.000141286,0.000987853,-0.091042489,-0.079423591,9.808282852
1784245542.379908,-0.007689293,0.010058970,-0.531534612,0.001008878,0.000128201,0.000855172,-0.099124372,-0.079361454,9.814104080
1784245542.381883,-0.007687657,0.010057148,-0.531536102,0.001105126,-0.000010399,0.000467039,-0.086592875,-0.083423704,9.795708656
1784245542.383876,-0.007686225,0.010053616,-0.531534612,0.001027681,-0.000344763,0.000345221,-0.099745229,-0.057714276,9.795413017
1784245542.385878,-0.007687788,0.010049713,-0.531533420,0.000752318,-0.000731083,0.000435852,-0.093821637,-0.048969690,9.815198898
1784245542.387882,-0.007686307,0.010055587,-0.531531155,0.000540137,-0.000400748,0.000559421,-0.064009182,-0.070380442,9.811057091
1784245542.389880,-0.007678608,0.010059993,-0.531528234,0.001007215,0.000498501,0.000762408,-0.063272662,-0.083414614,9.815457344
1784245542.391885,-0.007673942,0.010060539,-0.531519830,0.001559531,0.000788777,0.001323778,-0.077940196,-0.071990892,9.810585022
1784245542.393887,-0.007671175,0.010052957,-0.531513512,0.001608653,0.000156648,0.001962142,-0.084243380,-0.112505741,9.785659790
1784245542.395896,-0.007668703,0.010051132,-0.531510234,0.001498875,-0.000462172,0.002083086,-0.107874818,-0.064107627,9.763978958
1784245542.397885,-0.007666728,0.010054613,-0.531509757,0.001391107,-0.000226272,0.001777835,-0.106763542,-0.045409694,9.778895378
1784245542.399984,-0.007668547,0.010059689,-0.531502068,0.000937113,0.000397837,0.001846214,-0.100839742,-0.036258489,9.804514885
1784245542.401920,-0.007671067,0.010061374,-0.531494439,0.000296497,0.000726852,0.002382234,-0.132496521,-0.056452710,9.803009987
1784245542.403906,-0.007669249,0.010060614,-0.531494260,0.000133311,0.000498385,0.002265143,-0.103953764,-0.072785117,9.780068398
1784245542.405904,-0.007670779,0.010059625,-0.531492829,0.000085799,0.000153733,0.001763772,-0.122309394,-0.067361452,9.806536674
1784245542.407928,-0.007672354,0.010057569,-0.531495929,-0.000147164,-0.000093876,0.001181610,-0.088458218,-0.051230796,9.808465958
1784245542.409902,-0.007673114,0.010057488,-0.531495392,-0.000369380,-0.000129254,0.000686029,-0.106972404,-0.060837504,9.806592941
1784245542.411941,-0.007672806,0.010058326,-0.531500101,-0.000402301,0.000042238,0.000217997,-0.089693859,-0.081041917,9.781373978
1784245542.413907,-0.007667289,0.010049603,-0.531501651,0.000109187,-0.000503801,-0.000252210,-0.103369936,-0.059971675,9.804360390
1784245542.415915,-0.007666478,0.010040907,-0.531496823,0.000509378,-0.001553838,0.000051524,-0.087053299,-0.082700111,9.820818901
1784245542.417935,-0.007665370,0.010040678,-0.531499803,0.000500063,-0.001738896,0.000167233,-0.114371039,-0.078282781,9.815890312
1784245542.419914,-0.007668684,0.010043317,-0.531501651,0.000267172,-0.001148425,-0.000214140,-0.121190131,-0.085379817,9.818078995
1784245542.421910,-0.007673128,0.010044214,-0.531500876,-0.000281980,-0.000643734,-0.000239428,-0.113730267,-0.061777558,9.824961662
1784245542.423913,-0.007673895,0.010043742,-0.531500697,-0.000612206,-0.000475701,-0.000114437,-0.068888463,-0.067845292,9.778339386
1784245542.425919,-0.007671897,0.010046964,-0.531496823,-0.000417635,-0.000197318,0.000194800,-0.072420478,-0.061670922,9.798550606
1784245542.427917,-0.007668298,0.010050431,-0.531492710,0.000070278,0.000306074,0.000693077,-0.070064500,-0.091512144,9.769220352
1784245542.429910,-0.007666315,0.010050500,-0.531491756,0.000443105,0.000565824,0.000856929,-0.089831322,-0.091853395,9.789822578
1784245542.431929,-0.007663250,0.010051327,-0.531484127,0.000676033,0.000574035,0.001209897,-0.064840011,-0.065790772,9.797185898
1784245542.433928,-0.007665979,0.010051469,-0.531484663,0.000484588,0.000602574,0.001358271,-0.059634823,-0.043868944,9.792401314
1784245542.435932,-0.007671521,0.010054753,-0.531491637,-0.000229274,0.000797636,0.000473569,-0.061666004,-0.025953546,9.796997070
1784245542.437923,-0.007672156,0.010061182,-0.531488121,-0.000583938,0.001242281,0.000101799,-0.116957083,-0.034551825,9.782543182
1784245542.439962,-0.007666999,0.010064602,-0.531484187,-0.000175151,0.001554468,0.000572087,-0.136966959,-0.016648119,9.821195602
1784245542.441935,-0.007668348,0.010062268,-0.531492054,0.000081877,0.001193008,0.000153165,-0.094329081,-0.053075086,9.826380730
1784245542.443932,-0.007671382,0.010061027,-0.531498253,-0.000256455,0.000669573,-0.000840269,-0.085602142,-0.075403713,9.800243378
1784245542.445923,-0.007671588,0.010061875,-0.531500340,-0.000429181,0.000501127,-0.001183583,-0.087018341,-0.081613407,9.793926239
1784245542.447934,-0.007670204,0.010059528,-0.531499147,-0.000231968,0.000263838,-0.000928359,-0.111847475,-0.092617042,9.810866356
1784245542.449928,-0.007670050,0.010055969,-0.531496882,-0.000002152,-0.000235821,-0.000437233,-0.079687588,-0.067135707,9.824064255
1784245542.451935,-0.007668996,0.010052818,-0.531502783,0.000147775,-0.000650637,-0.000567164,-0.088686958,-0.070867956,9.798027992
1784245542.453932,-0.007669681,0.010053746,-0.531506360,0.000116631,-0.000642891,-0.001057452,-0.099205382,-0.050111044,9.796358109
1784245542.455940,-0.007673626,0.010051193,-0.531505108,-0.000250348,-0.000600526,-0.000927566,-0.094652891,-0.081973165,9.795262337
1784245542.457932,-0.007675471,0.010051253,-0.531511605,-0.000571838,-0.000603861,-0.001031792,-0.112353906,-0.099956378,9.772712708
1784245542.459938,-0.007675520,0.010052800,-0.531517029,-0.000458524,-0.000337282,-0.001556964,-0.108486705,-0.075926922,9.789010048
1784245542.461942,-0.007674642,0.010051258,-0.531513393,-0.000198003,-0.000257202,-0.001253930,-0.107786141,-0.055707660,9.779726028
1784245542.463943,-0.007672367,0.010054462,-0.531506598,-0.000045786,-0.000149553,-0.000202575,-0.117114298,-0.048355948,9.770796776
1784245542.465941,-0.007675233,0.010056130,-0.531509578,-0.000184583,0.000150318,0.000112868,-0.099010430,-0.034387890,9.790182114
1784245542.467942,-0.007678149,0.010052765,-0.531511784,-0.000523343,-0.000002887,-0.000273545,-0.077461854,-0.072167970,9.771579742
1784245542.469939,-0.007678023,0.010051790,-0.531513691,-0.000572403,-0.000207066,-0.000483037,-0.078278460,-0.063413464,9.802120209
1784245542.471953,-0.007680095,0.010054244,-0.531518638,-0.000549181,0.000040645,-0.000813865,-0.078808427,-0.071343832,9.784136772
1784245542.473948,-0.007681296,0.010055977,-0.531517684,-0.000639464,0.000383030,-0.000855568,-0.089628160,-0.075660028,9.780511856
1784245542.475948,-0.007682336,0.010059735,-0.531528533,-0.000630942,0.000724195,-0.001300511,-0.066085316,-0.058088236,9.787371635
1784245542.477946,-0.007688446,0.010061164,-0.531537652,-0.000931408,0.000890246,-0.002311563,-0.067362659,-0.087823406,9.812734604
1784245542.479952,-0.007696390,0.010060971,-0.531540930,-0.001569328,0.000832528,-0.002526263,-0.096127130,-0.090667501,9.823449135
1784245542.481956,-0.007700345,0.010058945,-0.531541467,-0.001893335,0.000551433,-0.002106119,-0.126990974,-0.083023936,9.812258720
1784245542.483958,-0.007701262,0.010056893,-0.531539738,-0.001681527,0.000033740,-0.001458097,-0.110256366,-0.072463326,9.809204102
1784245542.485959,-0.007697225,0.010052133,-0.531536698,-0.000987404,-0.000530756,-0.000733480,-0.153669715,-0.100110687,9.805847168
1784245542.487961,-0.007693430,0.010051617,-0.531536341,-0.000190113,-0.000746584,-0.000294311,-0.104137495,-0.087609157,9.785800934
1784245542.489961,-0.007687936,0.010053922,-0.531534791,0.000557968,-0.000508969,-0.000080226,-0.091800883,-0.067777835,9.810149193
1784245542.491967,-0.007682293,0.010051002,-0.531533003,0.001227521,-0.000499759,0.000165276,-0.090220056,-0.050136998,9.783813477
1784245542.493967,-0.007683598,0.010046221,-0.531534493,0.001078891,-0.000862953,0.000142480,-0.114706419,-0.032903198,9.798694611
1784245542.495998,-0.007688044,0.010048972,-0.531536639,0.000288347,-0.000740537,-0.000143832,-0.104952089,-0.044085622,9.778458595
1784245542.498015,-0.007689252,0.010051166,-0.531532466,-0.000175118,-0.000204914,0.000029347,-0.094108000,-0.074735224,9.784547806
1784245542.499986,-0.007694396,0.010055152,-0.531532288,-0.000585845,0.000149077,0.000317654,-0.103310518,-0.057070874,9.774341583
1784245542.501985,-0.007694871,0.010057588,-0.531537235,-0.000829146,0.000428114,-0.000085872,-0.113585033,-0.052525807,9.783776283
1784245542.503976,-0.007688313,0.010062518,-0.531539917,-0.000299647,0.000732983,-0.000576717,-0.105685912,-0.066999026,9.788621902
1784245542.505975,-0.007690932,0.010059948,-0.531539261,-0.000063162,0.000612378,-0.000557351,-0.105484009,-0.087595083,9.786248207
1784245542.507982,-0.007691393,0.010056569,-0.531534016,-0.000259039,0.000039189,-0.000004978,-0.094130993,-0.111696362,9.815693855
1784245542.509978,-0.007695805,0.010059591,-0.531531334,-0.000307743,-0.000020178,0.000525928,-0.095701620,-0.093287878,9.813121796
1784245542.511983,-0.007698034,0.010068685,-0.531531334,-0.000459749,0.000786007,0.000556198,-0.107109867,-0.106402107,9.850685120
1784245542.513984,-0.007697324,0.010075118,-0.531529725,-0.000351018,0.001587371,0.000507584,-0.095594525,-0.083121493,9.832465172
1784245542.515986,-0.007699355,0.010078640,-0.531530619,-0.000257694,0.001793353,0.000415931,-0.077272832,-0.055275809,9.790068626
1784245542.517981,-0.007698701,0.010077109,-0.531521678,-0.000286779,0.001437379,0.000851640,-0.078585044,-0.052964706,9.782461166
1784245542.519990,-0.007698711,0.010075612,-0.531515956,-0.000203501,0.000904173,0.001618985,-0.068597354,-0.041231535,9.815723419
1784245542.522001,-0.007695972,0.010073257,-0.531511784,0.000001998,0.000462171,0.001852987,-0.103129730,-0.078238912,9.789447784
1784245542.523992,-0.007693112,0.010071136,-0.531502366,0.000420919,0.000009731,0.002275881,-0.094315700,-0.092180282,9.780849457
1784245542.525991,-0.007691117,0.010072504,-0.531496286,0.000674286,-0.000068094,0.002711638,-0.082289815,-0.063148685,9.772079468
1784245542.527993,-0.007691577,0.010075208,-0.531499505,0.000593459,0.000225370,0.002164125,-0.112410992,-0.067274891,9.776508331
1784245542.529998,-0.007696359,0.010082616,-0.531503797,0.000052028,0.000808660,0.001062538,-0.076164708,-0.037413388,9.796462059
1784245542.532002,-0.007701025,0.010083526,-0.531497300,-0.000634640,0.001106642,0.000926790,-0.085618235,-0.040777773,9.782531738
1784245542.533998,-0.007704838,0.010083593,-0.531496465,-0.001140177,0.000907692,0.001168556,-0.074609958,-0.056352496,9.810688019
1784245542.536008,-0.007703127,0.010088664,-0.531497836,-0.001070130,0.001049339,0.000805419,-0.059918672,-0.067588620,9.789110184
1784245542.538047,-0.007699267,0.010093185,-0.531496048,-0.000401654,0.001415416,0.000615531,-0.110177547,-0.067383133,9.787717819
1784245542.540018,-0.007696027,0.010094072,-0.531492651,0.000207393,0.001336806,0.000800402,-0.099297613,-0.056512859,9.814697266
1784245542.542016,-0.007689012,0.010093788,-0.531489551,0.000864304,0.000952702,0.001023856,-0.137422517,-0.057123233,9.780136108
1784245542.544075,-0.007695933,0.010090997,-0.531488776,0.000543901,0.000322624,0.001002900,-0.121623047,-0.083223298,9.830645561
1784245542.546020,-0.007704450,0.010086369,-0.531490207,-0.000740684,-0.000429150,0.000677452,-0.109395079,-0.074381143,9.825334549
1784245542.548013,-0.007705158,0.010086698,-0.531487823,-0.001166437,-0.000604991,0.000551560,-0.082800940,-0.066472620,9.799407005
1784245542.550018,-0.007703060,0.010087602,-0.531482279,-0.000768145,-0.000329624,0.000932569,-0.100291520,-0.065368377,9.801638603
1784245542.552024,-0.007704264,0.010092707,-0.531481564,-0.000510383,0.000195977,0.001103578,-0.102722324,-0.043412406,9.805812836
1784245542.554018,-0.007701991,0.010094162,-0.531487465,-0.000393055,0.000584391,0.000451848,-0.101592638,-0.060538024,9.817808151
1784245542.556019,-0.007699293,0.010092855,-0.531490207,-0.000040550,0.000433814,-0.000241543,-0.086211726,-0.088420630,9.804643631
1784245542.558024,-0.007696872,0.010087847,-0.531488955,0.000318870,-0.000111955,-0.000261540,-0.083859682,-0.078676902,9.816363335
1784245542.560023,-0.007694684,0.010086781,-0.531488836,0.000580855,-0.000456654,-0.000095294,-0.099026307,-0.069671653,9.837478638
1784245542.562023,-0.007698896,0.010088197,-0.531493425,0.000325359,-0.000268534,-0.000369587,-0.126404703,-0.073838346,9.779591560
1784245542.564022,-0.007695897,0.010089957,-0.531491935,0.000139990,-0.000042057,-0.000478648,-0.148898572,-0.115251996,9.784235954
1784245542.566031,-0.007689156,0.010090469,-0.531490922,0.000744707,0.000058632,-0.000178193,-0.102671824,-0.114951417,9.784729958
1784245542.568032,-0.007688526,0.010093168,-0.531491041,0.001042227,0.000260183,-0.000067138,-0.082954176,-0.079434879,9.795289040
1784245542.570034,-0.007699746,0.010097496,-0.531489849,0.000068656,0.000689833,0.000013448,-0.104350902,-0.066698670,9.807004929
1784245542.572041,-0.007704129,0.010102111,-0.531486452,-0.000983288,0.001131080,0.000306998,-0.098610416,-0.038425289,9.790156364
1784245542.574032,-0.007697116,0.010107652,-0.531488359,-0.000663990,0.001478034,0.000324143,-0.103727393,-0.051140249,9.823246956
1784245542.576037,-0.007692514,0.010110833,-0.531492114,0.000183511,0.001637148,-0.000150310,-0.091140024,-0.087893531,9.802400589
1784245542.578040,-0.007690292,0.010117744,-0.531499147,0.000604223,0.001883280,-0.000838516,-0.097750768,-0.115535758,9.795042992
1784245542.580039,-0.007687996,0.010119208,-0.531500518,0.000891066,0.001953804,-0.001178037,-0.079501562,-0.091099240,9.791181564
1784245542.582043,-0.007688541,0.010112370,-0.531501412,0.000908099,0.001068746,-0.001015706,-0.073493391,-0.076013252,9.801148415
1784245542.584036,-0.007689092,0.010109959,-0.531505525,0.000576071,0.000302816,-0.001079190,-0.056515995,-0.044894140,9.804949760
1784245542.586047,-0.007690533,0.010117189,-0.531504214,0.000271859,0.000698587,-0.000975808,-0.104064882,-0.045393307,9.771724701
1784245542.588044,-0.007694924,0.010121802,-0.531501651,-0.000200443,0.001310824,-0.000447793,-0.123606369,-0.064119436,9.794002533
1784245542.590044,-0.007696585,0.010122178,-0.531505406,-0.000658399,0.001184190,-0.000409496,-0.102995649,-0.065022647,9.820916176
1784245542.592049,-0.007700021,0.010120937,-0.531509221,-0.000922944,0.000697868,-0.000816926,-0.109248720,-0.101899743,9.788394928
1784245542.594048,-0.007704014,0.010122823,-0.531511366,-0.001077620,0.000540504,-0.001004267,-0.094683848,-0.085864902,9.775509834
1784245542.596047,-0.007711134,0.010125865,-0.531515121,-0.001440293,0.000716549,-0.001139520,-0.079301372,-0.075334750,9.779177666
1784245542.598047,-0.007714520,0.010127016,-0.531515419,-0.001759427,0.000808615,-0.001111976,-0.092630662,-0.063585244,9.789103508
1784245542.600054,-0.007717219,0.010127934,-0.531518400,-0.001758181,0.000764836,-0.001038002,-0.079257242,-0.069717929,9.808355331
1784245542.602054,-0.007723862,0.010125664,-0.531522155,-0.001976195,0.000502754,-0.001220417,-0.078230157,-0.097785041,9.783967972
1784245542.604058,-0.007724515,0.010121470,-0.531520426,-0.001886976,-0.000088820,-0.001030209,-0.095460407,-0.073552154,9.809661865
1784245542.606058,-0.007721000,0.010118308,-0.531518161,-0.001136551,-0.000583709,-0.000475720,-0.097035475,-0.058015492,9.769857407
1784245542.608061,-0.007729320,0.010110485,-0.531524181,-0.001151608,-0.001168953,-0.000597428,-0.110321857,-0.078248657,9.803788185
1784245542.610057,-0.007727321,0.010110829,-0.531529367,-0.001177492,-0.001412044,-0.001190544,-0.089838728,-0.054727286,9.798579216
1784245542.612063,-0.007717317,0.010117671,-0.531528950,0.000042921,-0.000597198,-0.001181884,-0.065698467,-0.098603822,9.813563347
1784245542.614065,-0.007717059,0.010114359,-0.531531394,0.000840563,-0.000057710,-0.000995504,-0.085709274,-0.081923179,9.835172653
1784245542.616083,-0.007714333,0.010112794,-0.531529844,0.000927082,-0.000235785,-0.000791489,-0.092735738,-0.070898883,9.809680939
1784245542.618075,-0.007708660,0.010114641,-0.531531036,0.001245343,-0.000152825,-0.000551016,-0.129229471,-0.082550399,9.812708855
1784245542.620067,-0.007704408,0.010113739,-0.531533837,0.001604053,-0.000127984,-0.000664660,-0.112573117,-0.079497032,9.794363022
1784245542.622074,-0.007701360,0.010118004,-0.531533420,0.001686070,0.000053374,-0.000638513,-0.105308548,-0.072431177,9.795760155
1784245542.624067,-0.007703980,0.010121526,-0.531530201,0.001242346,0.000530470,-0.000221203,-0.120828934,-0.055375956,9.819616318
1784245542.626072,-0.007700168,0.010120486,-0.531526923,0.000968959,0.000516291,0.000279437,-0.080750130,-0.047858950,9.761419296
1784245542.628071,-0.007693406,0.010118884,-0.531520128,0.001416734,0.000191450,0.000896149,-0.099290878,-0.057675511,9.789136887
1784245542.630077,-0.007686899,0.010116960,-0.531518877,0.001832898,-0.000117274,0.001200743,-0.086071670,-0.077183448,9.799335480
1784245542.632080,-0.007686317,0.010120177,-0.531525970,0.001726012,-0.000008014,0.000485154,-0.061345745,-0.073884159,9.794896126
1784245542.634082,-0.007690186,0.010117888,-0.531528473,0.001016953,0.000169931,-0.000289326,-0.081589758,-0.076065578,9.823107719
1784245542.636078,-0.007690622,0.010116629,-0.531523228,0.000422782,-0.000010679,-0.000024995,-0.102171607,-0.073313296,9.788136482
1784245542.638084,-0.007688926,0.010115084,-0.531517148,0.000385706,-0.000204058,0.000745509,-0.096833155,-0.075771526,9.809197426
1784245542.640079,-0.007690003,0.010116766,-0.531522512,0.000272376,-0.000123585,0.000585838,-0.096947029,-0.083965197,9.827525139
1784245542.642082,-0.007686189,0.010119691,-0.531524479,0.000339068,0.000242737,-0.000070084,-0.105436295,-0.081139587,9.823500633
1784245542.644088,-0.007681667,0.010115612,-0.531528831,0.000852862,0.000072159,-0.000477407,-0.083346300,-0.072903670,9.822678566
1784245542.646122,-0.007684767,0.010115968,-0.531525731,0.000754319,-0.000229102,-0.000432891,-0.080430038,-0.093359351,9.795650482
1784245542.648096,-0.007688167,0.010112090,-0.531520784,0.000102862,-0.000410192,0.000230645,-0.094343387,-0.094019808,9.787562370
1784245542.650133,-0.007685956,0.010110442,-0.531527817,0.000080941,-0.000632786,0.000028269,-0.104189955,-0.089239202,9.826140404
1784245542.652112,-0.007685331,0.010116577,-0.531533480,0.000345306,-0.000109569,-0.000836968,-0.108449645,-0.072797559,9.789926529
1784245542.654099,-0.007688358,0.010122759,-0.531522453,0.000105954,0.000718811,-0.000256008,-0.088238604,-0.071686953,9.786367416
1784245542.656105,-0.007691673,0.010123658,-0.531513333,-0.000345933,0.000959087,0.001175653,-0.112024151,-0.073037364,9.767056465
1784245542.658098,-0.007694265,0.010122946,-0.531512022,-0.000660163,0.000705969,0.001566376,-0.097630262,-0.069294624,9.781888962
1784245542.660094,-0.007696922,0.010122768,-0.531510592,-0.000834749,0.000416203,0.001327010,-0.095809951,-0.065063760,9.813749313
1784245542.662098,-0.007696322,0.010122815,-0.531510890,-0.000744136,0.000257426,0.001044961,-0.103374735,-0.060819909,9.797631264
1784245542.664096,-0.007695423,0.010121121,-0.531515777,-0.000478990,0.000070271,0.000406166,-0.072426811,-0.063341945,9.781504631
1784245542.666105,-0.007692488,0.010119013,-0.531521261,-0.000123855,-0.000209707,-0.000402716,-0.092484646,-0.089080252,9.782665253
1784245542.668102,-0.007695363,0.010116184,-0.531518936,-0.000084047,-0.000486293,-0.000505333,-0.101184741,-0.102508426,9.796467781
1784245542.670102,-0.007702075,0.010115199,-0.531513631,-0.000580111,-0.000596553,0.000141659,-0.120844655,-0.058336806,9.794939995
1784245542.672106,-0.007700686,0.010117351,-0.531518161,-0.000647386,-0.000335185,0.000146010,-0.081597641,-0.078559384,9.795742989
1784245542.674111,-0.007699199,0.010111652,-0.531520486,-0.000281889,-0.000380141,-0.000356924,-0.091523804,-0.044922277,9.808951378
1784245542.676105,-0.007695114,0.010111929,-0.531517982,0.000162628,-0.000543797,-0.000236354,-0.095655590,-0.054118734,9.786473274
1784245542.678110,-0.007697927,0.010114138,-0.531514823,0.000200995,-0.000230174,0.000214475,-0.103360169,-0.058678672,9.811542511
1784245542.680113,-0.007703558,0.010115437,-0.531509638,-0.000493492,0.000112975,0.000722908,-0.098341025,-0.053220116,9.790957451
1784245542.682110,-0.007703996,0.010114178,-0.531504393,-0.000839586,0.000126357,0.001236646,-0.081996001,-0.072482497,9.824027061
1784245542.684110,-0.007707793,0.010114592,-0.531506836,-0.000910245,0.000083361,0.001087391,-0.077459261,-0.068905421,9.816881180
1784245542.686125,-0.007711719,0.010117334,-0.531510293,-0.001192393,0.000328166,0.000384123,-0.059341904,-0.095662698,9.766514778
1784245542.688116,-0.007711951,0.010118176,-0.531516016,-0.001144498,0.000487100,-0.000344528,-0.086381018,-0.105156988,9.764185905
1784245542.690120,-0.007709473,0.010115824,-0.531519055,-0.000588319,0.000327051,-0.000839947,-0.093878157,-0.056305230,9.775700569
1784245542.692128,-0.007707776,0.010115070,-0.531513870,-0.000059542,0.000096591,-0.000461169,-0.104362749,-0.067197517,9.814176559
1784245542.694121,-0.007712671,0.010115012,-0.531500638,-0.000291095,-0.000017400,0.000915248,-0.076260574,-0.081433780,9.812318802
1784245542.696131,-0.007716785,0.010121210,-0.531499028,-0.000851848,0.000373315,0.001667244,-0.105519325,-0.089495040,9.801479340
1784245542.698136,-0.007713545,0.010122809,-0.531504750,-0.000677169,0.000803511,0.000935125,-0.123629048,-0.065514192,9.801167488
1784245542.700135,-0.007709478,0.010120050,-0.531502187,-0.000051082,0.000445113,0.000471040,-0.120240420,-0.081331044,9.814070702
1784245542.702131,-0.007709715,0.010114541,-0.531499624,0.000163375,-0.000302781,0.000689470,-0.099970624,-0.076109298,9.799327850
1784245542.704134,-0.007712671,0.010109604,-0.531501055,-0.000096349,-0.000913465,0.000576788,-0.077987432,-0.076416440,9.802934647
1784245542.706128,-0.007714464,0.010112586,-0.531504929,-0.000386750,-0.000778620,0.000064527,-0.060971968,-0.080155015,9.793960571
1784245542.708133,-0.007713322,0.010112894,-0.531504214,-0.000323758,-0.000342248,-0.000161916,-0.070585668,-0.057325605,9.814271927
1784245542.710216,-0.007710264,0.010105808,-0.531505048,0.000004685,-0.000604595,-0.000131091,-0.074889496,-0.043663938,9.791043282
1784245542.712153,-0.007709416,0.010102939,-0.531503618,0.000223403,-0.001011813,-0.000055716,-0.115937456,-0.059435870,9.814663887
1784245542.714146,-0.007714363,0.010108755,-0.531503141,-0.000170336,-0.000601088,0.000092515,-0.131018028,-0.082883157,9.799703598
1784245542.716153,-0.007714540,0.010114634,-0.531508744,-0.000521882,0.000295781,-0.000283672,-0.115931563,-0.098194845,9.783479691
1784245542.718146,-0.007712379,0.010114656,-0.531513810,-0.000238198,0.000621660,-0.000937776,-0.090587176,-0.078971848,9.806941032
1784245542.720141,-0.007715748,0.010116725,-0.531516075,-0.000251977,0.000590009,-0.001181459,-0.068004526,-0.068368345,9.787303925
1784245542.722152,-0.007719393,0.010117349,-0.531515062,-0.000660369,0.000604699,-0.000944210,-0.084011525,-0.053633027,9.823248863
1784245542.724154,-0.007719495,0.010117894,-0.531513989,-0.000813569,0.000630515,-0.000554442,-0.088949673,-0.056425702,9.783774376
1784245542.726150,-0.007715418,0.010122403,-0.531518698,-0.000397037,0.000915939,-0.000647263,-0.109689765,-0.064243622,9.786393166
1784245542.728152,-0.007710587,0.010120017,-0.531519532,0.000319217,0.000814205,-0.000842315,-0.134531900,-0.076565713,9.799740791
1784245542.730154,-0.007710303,0.010120542,-0.531515121,0.000546161,0.000361527,-0.000373224,-0.094398096,-0.098099157,9.794260979
1784245542.732160,-0.007710707,0.010123524,-0.531511426,0.000353062,0.000393722,0.000276832,-0.093567722,-0.101881936,9.820689201
1784245542.734159,-0.007704003,0.010128401,-0.531521916,0.000869966,0.000812266,-0.000257265,-0.100287370,-0.064119890,9.815095901
1784245542.736156,-0.007699927,0.010134233,-0.531528711,0.001557711,0.001316124,-0.001348766,-0.094237961,-0.048302948,9.785165787
1784245542.738155,-0.007702220,0.010131937,-0.531520724,0.001254976,0.001198230,-0.000902317,-0.089332551,-0.049821362,9.800852776
1784245542.740160,-0.007700746,0.010127812,-0.531517923,0.000719094,0.000517786,0.000068968,-0.101177536,-0.064051144,9.807026863
1784245542.742166,-0.007699650,0.010125727,-0.531519949,0.000565541,0.000041631,0.000109106,-0.111614622,-0.074568242,9.792601585
1784245542.744163,-0.007702439,0.010125128,-0.531516612,0.000310323,-0.000177924,0.000174932,-0.127885044,-0.081770301,9.826613426
1784245542.746159,-0.007702324,0.010127041,-0.531513512,0.000054181,-0.000069225,0.000567256,-0.102979705,-0.065302081,9.797153473
1784245542.748164,-0.007708653,0.010130070,-0.531518400,-0.000381255,0.000286063,0.000294596,-0.095131211,-0.047042962,9.798623085
1784245542.750169,-0.007711589,0.010131293,-0.531517148,-0.001005900,0.000512978,-0.000031063,-0.080246821,-0.042165209,9.778941154
1784245542.752181,-0.007710721,0.010131601,-0.531517506,-0.000975493,0.000491175,0.000038307,-0.086999148,-0.041440599,9.815255165
1784245542.754172,-0.007707318,0.010135169,-0.531524718,-0.000515709,0.000690105,-0.000486923,-0.095441125,-0.072589464,9.800251961
1784245542.756174,-0.007708058,0.010136286,-0.531527460,-0.000288260,0.000891176,-0.001031871,-0.094003141,-0.067018136,9.770251274
1784245542.758170,-0.007705353,0.010135775,-0.531530142,-0.000072770,0.000693251,-0.001123820,-0.095600910,-0.049229320,9.791883469
1784245542.760177,-0.007704662,0.010131946,-0.531532466,0.000116775,0.000224506,-0.001156456,-0.103890754,-0.066208772,9.800285339
1784245542.762178,-0.007710215,0.010132846,-0.531537235,-0.000304280,-0.000020059,-0.001324994,-0.085610420,-0.075063854,9.815488815
1784245542.764182,-0.007708136,0.010135668,-0.531535983,-0.000461291,0.000320701,-0.001209970,-0.084544204,-0.100795761,9.777664185
1784245542.766180,-0.007712372,0.010134170,-0.531539559,-0.000487246,0.000405440,-0.001036688,-0.064659521,-0.088582128,9.788522720
1784245542.768200,-0.007717121,0.010131095,-0.531538069,-0.000963445,-0.000013987,-0.000895809,-0.069145508,-0.123674847,9.816987038
1784245542.770187,-0.007722141,0.010125691,-0.531536341,-0.001222384,-0.000466691,-0.000432824,-0.095344879,-0.138498932,9.806553841
1784245542.772189,-0.007724454,0.010126301,-0.531535029,-0.001245531,-0.000546167,-0.000111938,-0.082262531,-0.096065454,9.801459312
1784245542.774190,-0.007725409,0.010124101,-0.531535625,-0.001097340,-0.000424856,-0.000039382,-0.099055566,-0.075170815,9.791713715
1784245542.776192,-0.007729053,0.010121814,-0.531530440,-0.001082576,-0.000535129,0.000282997,-0.113772847,-0.066571586,9.806100845
1784245542.778185,-0.007731807,0.010124833,-0.531520724,-0.001233304,-0.000348050,0.001223100,-0.101404294,-0.045272373,9.812974930
1784245542.780193,-0.007732384,0.010127732,-0.531513333,-0.001230884,0.000164123,0.002054643,-0.093046166,-0.060075298,9.800335884
1784245542.782192,-0.007733863,0.010129929,-0.531509817,-0.001138268,0.000484915,0.002227022,-0.085374378,-0.056179542,9.805746078
1784245542.784188,-0.007729763,0.010133994,-0.531514764,-0.000742202,0.000828152,0.001523348,-0.119166769,-0.069009118,9.780525208
1784245542.786195,-0.007723248,0.010136369,-0.531511307,0.000088902,0.001090344,0.001011658,-0.094522782,-0.069598779,9.819101334
1784245542.788196,-0.007719936,0.010136395,-0.531505346,0.000725223,0.000952493,0.001377239,-0.087253220,-0.064924985,9.778790474
1784245542.790195,-0.007723079,0.010137063,-0.531498015,0.000536099,0.000749451,0.001912729,-0.097072981,-0.060337972,9.781499863
1784245542.792199,-0.007729672,0.010139038,-0.531500995,-0.000267770,0.000738477,0.001688771,-0.097650409,-0.069453605,9.804305077
1784245542.794194,-0.007727900,0.010140610,-0.531506598,-0.000543124,0.000804558,0.000641986,-0.095824711,-0.105201595,9.787489891
1784245542.796203,-0.007721675,0.010141129,-0.531503677,0.000122162,0.000750929,0.000277364,-0.083124891,-0.092940487,9.804615974
1784245542.798213,-0.007720273,0.010140905,-0.531503081,0.000604214,0.000565239,0.000444162,-0.096781880,-0.071314186,9.812362671
1784245542.800208,-0.007727553,0.010144990,-0.531510532,0.000019291,0.000660367,-0.000138551,-0.073274262,-0.057262480,9.810235023
1784245542.802208,-0.007733307,0.010149345,-0.531511784,-0.000891299,0.001041762,-0.000706497,-0.082443781,-0.074090533,9.798910141
1784245542.804208,-0.007733565,0.010151026,-0.531509757,-0.001033087,0.001202001,-0.000470201,-0.093823962,-0.088198885,9.787152290
1784245542.806210,-0.007730257,0.010150522,-0.531503439,-0.000526449,0.000984961,0.000224551,-0.088629931,-0.102739356,9.806342125
1784245542.808209,-0.007727817,0.010145518,-0.531499922,-0.000000179,0.000338512,0.000836509,-0.105938561,-0.087230399,9.798803329
1784245542.810205,-0.007725223,0.010144991,-0.531495214,0.000383269,-0.000149755,0.001173908,-0.115443148,-0.057865620,9.781946182
1784245542.812214,-0.007720826,0.010147656,-0.531490564,0.000794641,0.000014658,0.001495013,-0.135348067,-0.068618089,9.817723274
1784245542.814219,-0.007719563,0.010151621,-0.531485617,0.000933709,0.000334045,0.001747844,-0.107377939,-0.058464766,9.788675308
1784245542.816225,-0.007723458,0.010154369,-0.531485379,0.000475297,0.000574632,0.001624303,-0.088264026,-0.036324076,9.791076660
1784245542.818218,-0.007722000,0.010157857,-0.531482995,0.000178918,0.000840594,0.001354352,-0.070222996,-0.028525723,9.796076775
1784245542.820217,-0.007716234,0.010157508,-0.531476915,0.000377295,0.000973444,0.001555153,-0.093324199,-0.045753870,9.803115845
1784245542.822221,-0.007714546,0.010157548,-0.531474113,0.000537269,0.000835846,0.001736258,-0.109442964,-0.081243262,9.782249451
1784245542.824223,-0.007717009,0.010158196,-0.531472683,0.000382576,0.000668417,0.001560504,-0.099336661,-0.100895017,9.755234718
1784245542.826221,-0.007717149,0.010163291,-0.531472445,0.000147466,0.000890858,0.001253676,-0.097281575,-0.076979302,9.790806770
1784245542.828222,-0.007719197,0.010167338,-0.531476200,-0.000038680,0.001271269,0.000670312,-0.105654709,-0.063510723,9.802094460
1784245542.830222,-0.007724682,0.010173282,-0.531478643,-0.000571986,0.001517791,0.000064016,-0.083074369,-0.051709592,9.803087234
1784245542.832233,-0.007731598,0.010169693,-0.531481326,-0.001291749,0.001178533,-0.000308873,-0.075047098,-0.092224360,9.815388680
1784245542.834233,-0.007733475,0.010161957,-0.531482756,-0.001443420,0.000296952,-0.000511255,-0.057756700,-0.074339971,9.789517403
1784245542.836229,-0.007731584,0.010160127,-0.531485498,-0.000955928,-0.000225725,-0.000657071,-0.076381929,-0.054528117,9.809352875
1784245542.838232,-0.007733432,0.010160984,-0.531493306,-0.000686056,-0.000224930,-0.001194550,-0.077906519,-0.069293573,9.809255600
1784245542.840234,-0.007728082,0.010163264,-0.531491578,-0.000360131,0.000096357,-0.001277225,-0.076842204,-0.093824677,9.791615486
1784245542.842232,-0.007731673,0.010167604,-0.531488717,-0.000248455,0.000561330,-0.000614294,-0.083360575,-0.076258421,9.790377617
1784245542.844234,-0.007734577,0.010165791,-0.531485856,-0.000676419,0.000635119,-0.000061433,-0.111196853,-0.075628892,9.815011978
1784245542.846244,-0.007728971,0.010161011,-0.531486332,-0.000361517,0.000071471,0.000122254,-0.119662195,-0.072209045,9.790368080
1784245542.848240,-0.007730284,0.010154192,-0.531483293,0.000026268,-0.000736940,0.000272156,-0.139435753,-0.074224502,9.794370651
1784245542.850236,-0.007734890,0.010158142,-0.531480134,-0.000356836,-0.000960135,0.000617011,-0.121189490,-0.051026948,9.775708199
1784245542.852244,-0.007736212,0.010156609,-0.531485558,-0.000630635,-0.000759262,0.000292610,-0.082892939,-0.038524769,9.775824547
1784245542.854245,-0.007739658,0.010150600,-0.531487763,-0.000887362,-0.000970081,-0.000306830,-0.078053206,-0.083825104,9.773744583
1784245542.856241,-0.007736470,0.010146632,-0.531492233,-0.000768964,-0.001289390,-0.000671747,-0.055356279,-0.062187914,9.777492523
1784245542.858250,-0.007737269,0.010145091,-0.531498909,-0.000390366,-0.001307285,-0.001242804,-0.070317388,-0.073750101,9.792199135
1784245542.860254,-0.007744184,0.010143063,-0.531499326,-0.000835461,-0.001044221,-0.001387644,-0.058163464,-0.106729887,9.808588028
1784245542.862247,-0.007750879,0.010139463,-0.531507671,-0.001558752,-0.000991608,-0.001602878,-0.111256361,-0.080556467,9.814981461
1784245542.864247,-0.007754467,0.010136216,-0.531517327,-0.001816072,-0.001240300,-0.002392657,-0.103124313,-0.077790953,9.789450645
1784245542.866250,-0.007756791,0.010135237,-0.531515539,-0.001713958,-0.001248805,-0.002280612,-0.082620896,-0.088457085,9.803300858
1784245542.868252,-0.007757254,0.010134241,-0.531513810,-0.001440224,-0.001045921,-0.001421280,-0.072514042,-0.069298975,9.800294876
1784245542.870250,-0.007750523,0.010130349,-0.531513035,-0.000644800,-0.000976102,-0.000866959,-0.096624754,-0.097126797,9.787539482
1784245542.872250,-0.007748924,0.010124285,-0.531513512,0.000075937,-0.001267863,-0.000609242,-0.095990412,-0.080672443,9.803786278
1784245542.874252,-0.007749554,0.010122176,-0.531516016,0.000149133,-0.001510206,-0.000639003,-0.091759734,-0.065426737,9.794473648
1784245542.876260,-0.007744388,0.010120860,-0.531509459,0.000439867,-0.001368202,-0.000189184,-0.097926140,-0.091082931,9.822099686
1784245542.878256,-0.007740827,0.010122204,-0.531507492,0.000906960,-0.000999399,0.000447268,-0.134565353,-0.082503304,9.752628326
1784245542.880265,-0.007736703,0.010124796,-0.531509161,0.001214564,-0.000528956,0.000352384,-0.126085997,-0.085001782,9.773690224
1784245542.882292,-0.007734570,0.010122694,-0.531514764,0.001346979,-0.000416034,-0.000241667,-0.073556803,-0.045002807,9.787897110
1784245542.884270,-0.007734020,0.010122990,-0.531512797,0.001063363,-0.000313224,-0.000422191,-0.075019307,-0.054415002,9.790972710
1784245542.886267,-0.007734673,0.010128622,-0.531510711,0.000662274,0.000282535,-0.000027606,-0.093542270,-0.062064890,9.829014778
1784245542.888269,-0.007735394,0.010131597,-0.531513572,0.000389770,0.000790428,-0.000082695,-0.123679325,-0.069558576,9.802934647
1784245542.890266,-0.007739302,0.010135576,-0.531520784,-0.000062677,0.000951044,-0.000756211,-0.107499592,-0.067935549,9.797579765
1784245542.892275,-0.007736567,0.010139041,-0.531525433,-0.000156598,0.001102173,-0.001354607,-0.086654030,-0.087553933,9.809579849
1784245542.894274,-0.007733770,0.010137218,-0.531518877,0.000294295,0.000948924,-0.000852479,-0.097034544,-0.056792434,9.786901474
1784245542.896282,-0.007737461,0.010134129,-0.531518459,0.000183163,0.000389941,-0.000146892,-0.119856738,-0.050339054,9.802613258
1784245542.898282,-0.007736370,0.010135749,-0.531526268,-0.000037941,0.000188208,-0.000606754,-0.099565595,-0.079701915,9.799754143
1784245542.900299,-0.007733181,0.010137225,-0.531530321,0.000256243,0.000272210,-0.001246629,-0.085180245,-0.078052714,9.793950081
1784245542.902283,-0.007735831,0.010135442,-0.531534970,0.000214386,0.000100849,-0.001497852,-0.081984788,-0.074420236,9.781423569
1784245542.904284,-0.007737685,0.010135282,-0.531527936,-0.000161241,-0.000006914,-0.000923143,-0.096914187,-0.084111087,9.784933090
1784245542.906285,-0.007736508,0.010137713,-0.531525910,-0.000179738,0.000197050,-0.000051199,-0.100085348,-0.048746124,9.795021057
1784245542.908285,-0.007743637,0.010136518,-0.531524897,-0.000537085,0.000225895,0.000167597,-0.077421457,-0.067796469,9.786850929
1784245542.910281,-0.007743870,0.010134118,-0.531521797,-0.000981299,-0.000021540,0.000397408,-0.073356733,-0.102798104,9.787077904
1784245542.912283,-0.007741952,0.010128063,-0.531515360,-0.000694628,-0.000534685,0.000943026,-0.090469405,-0.071963087,9.766187668
1784245542.914286,-0.007737624,0.010125879,-0.531512260,-0.000124789,-0.000966395,0.001340753,-0.105225354,-0.063669093,9.823613167
1784245542.916310,-0.007737841,0.010124872,-0.531513453,0.000150661,-0.000934190,0.001108701,-0.099561445,-0.078453422,9.813210487
1784245542.918288,-0.007736419,0.010126502,-0.531513035,0.000191968,-0.000637917,0.000760402,-0.098422252,-0.061156228,9.772974968
1784245542.920295,-0.007735575,0.010129169,-0.531507254,0.000259819,-0.000173381,0.000977463,-0.090021379,-0.070758499,9.785026550
1784245542.922299,-0.007732017,0.010128660,-0.531503141,0.000451715,0.000017950,0.001387721,-0.099193364,-0.086795546,9.788499832
1784245542.924296,-0.007727630,0.010129577,-0.531505764,0.000898687,0.000013568,0.001108620,-0.094627000,-0.080552973,9.784509659
1784245542.926299,-0.007726736,0.010130950,-0.531504273,0.001045307,0.000139407,0.000725213,-0.081916764,-0.067399129,9.802091599
1784245542.928299,-0.007728016,0.010131279,-0.531507015,0.000736100,0.000217567,0.000445169,-0.117246330,-0.055882625,9.821410179
1784245542.930301,-0.007729413,0.010131911,-0.531512976,0.000276445,0.000226134,-0.000264932,-0.123897180,-0.086273044,9.822553635
1784245542.932306,-0.007735983,0.010132038,-0.531510651,-0.000421015,0.000216183,-0.000439916,-0.080649264,-0.072900005,9.817300797
1784245542.934307,-0.007732197,0.010130337,-0.531507969,-0.000533964,0.000093025,0.000028303,-0.075640798,-0.067120679,9.814653397
1784245542.936304,-0.007726801,0.010134036,-0.531513095,0.000201268,0.000249578,-0.000133385,-0.097317308,-0.078882433,9.806487083
1784245542.938317,-0.007722472,0.010131131,-0.531509042,0.000807613,0.000236315,-0.000161511,-0.083634600,-0.099495173,9.782156944
1784245542.940306,-0.007721497,0.010126541,-0.531506419,0.001025658,-0.000278124,0.000338335,-0.086165003,-0.085214950,9.794799805
1784245542.942312,-0.007713420,0.010125716,-0.531503201,0.001439302,-0.000511308,0.000649505,-0.109778903,-0.071836695,9.783206940
1784245542.944308,-0.007712608,0.010122515,-0.531501174,0.001632444,-0.000661793,0.000840022,-0.132058278,-0.060188051,9.760395050
1784245542.946348,-0.007712806,0.010120190,-0.531497777,0.001211516,-0.000873360,0.000977351,-0.128891021,-0.055968076,9.791359901
1784245542.948329,-0.007712090,0.010123964,-0.531488299,0.000908924,-0.000544648,0.001585542,-0.083728887,-0.032759722,9.785723686
1784245542.950314,-0.007708480,0.010125494,-0.531479001,0.000871835,0.000014388,0.002427813,-0.090925202,-0.033207908,9.798716545
1784245542.952315,-0.007702241,0.010128137,-0.531477034,0.001224918,0.000348644,0.002536146,-0.064440005,-0.107418135,9.790643692
1784245542.954320,-0.007700220,0.010129995,-0.531480014,0.001556840,0.000632429,0.001785025,-0.085968733,-0.105855525,9.798703194
1784245542.956325,-0.007699378,0.010127916,-0.531480432,0.001433936,0.000520107,0.001073018,-0.096302293,-0.069454953,9.802064896
1784245542.958322,-0.007699616,0.010127170,-0.531484485,0.001088736,0.000189492,0.000480329,-0.094528034,-0.072476946,9.782768250
1784245542.960319,-0.007702700,0.010133880,-0.531479478,0.000571635,0.000543266,0.000412488,-0.097801164,-0.080370016,9.827548981
1784245542.962336,-0.007703361,0.010136335,-0.531473994,0.000159551,0.001013374,0.001014059,-0.103374548,-0.060413282,9.803461075
1784245542.964329,-0.007705259,0.010136366,-0.531479895,-0.000125857,0.000892243,0.000709613,-0.093061611,-0.099002793,9.792912483
1784245542.966321,-0.007706337,0.010135884,-0.531489551,-0.000351522,0.000612509,-0.000542220,-0.106086798,-0.062157910,9.801653862
1784245542.968323,-0.007699098,0.010136384,-0.531493127,0.000171293,0.000454316,-0.001290356,-0.082559615,-0.048357043,9.771727562
1784245542.970330,-0.007693598,0.010133837,-0.531490326,0.000911119,0.000276004,-0.000986710,-0.109181389,-0.058915168,9.792256355
1784245542.972339,-0.007698318,0.010133414,-0.531488776,0.000634900,0.000080796,-0.000424183,-0.087185360,-0.058310498,9.793625832
1784245542.974335,-0.007699794,0.010129523,-0.531493366,-0.000018454,-0.000179432,-0.000521214,-0.099266849,-0.093454547,9.779939651
1784245542.976339,-0.007694701,0.010124753,-0.531491458,0.000171314,-0.000664392,-0.000556385,-0.070095561,-0.056193769,9.780206680
1784245542.978342,-0.007693527,0.010128242,-0.531491280,0.000548682,-0.000572272,-0.000254212,-0.079982661,-0.057001363,9.785572052
1784245542.980340,-0.007698755,0.010130055,-0.531492054,0.000070000,-0.000009842,-0.000231090,-0.106218167,-0.073731773,9.791268349
1784245542.982343,-0.007698645,0.010134083,-0.531492352,-0.000350556,0.000436877,-0.000250257,-0.105537504,-0.054074924,9.798119545
1784245542.984342,-0.007691763,0.010136005,-0.531486154,0.000100064,0.000643162,0.000223717,-0.087754555,-0.066955909,9.813297272
1784245542.986348,-0.007694026,0.010139800,-0.531482995,0.000264864,0.000775763,0.000803318,-0.076679297,-0.077949286,9.827135086
1784245542.988345,-0.007693913,0.010139860,-0.531477273,0.000040913,0.000822294,0.001188622,-0.100934416,-0.080269359,9.819028854
1784245542.990344,-0.007693777,0.010136973,-0.531478941,0.000054859,0.000442293,0.001142355,-0.103962556,-0.070828281,9.819982529
1784245542.992347,-0.007695355,0.010134919,-0.531481922,-0.000043585,0.000026296,0.000511992,-0.117483407,-0.039616738,9.802684784
1784245542.994351,-0.007695817,0.010134081,-0.531487942,-0.000295398,-0.000273040,-0.000236316,-0.094399355,-0.059708651,9.814233780
1784245542.996358,-0.007696317,0.010133338,-0.531491458,-0.000405461,-0.000401677,-0.000816938,-0.114473857,-0.051230837,9.792302132
1784245542.998355,-0.007694026,0.010139472,-0.531488359,-0.000173530,0.000073459,-0.000622489,-0.094259933,-0.050908044,9.773491859
1784245543.000361,-0.007695887,0.010146423,-0.531490982,-0.000180036,0.000925128,-0.000424142,-0.093167931,-0.070762776,9.791299820
1784245543.002360,-0.007697203,0.010146741,-0.531498134,-0.000422401,0.001156456,-0.000986214,-0.105077520,-0.053991642,9.785567284
1784245543.004358,-0.007695968,0.010147561,-0.531494856,-0.000387492,0.000906169,-0.000982483,-0.099928968,-0.075375170,9.758982658
1784245543.006352,-0.007697715,0.010154521,-0.531498313,-0.000393954,0.001172612,-0.000724590,-0.084181227,-0.070372559,9.783240318
1784245543.008358,-0.007695728,0.010160118,-0.531499207,-0.000267707,0.001709057,-0.000823432,-0.121749483,-0.058789168,9.797176361
1784245543.010373,-0.007697203,0.010162914,-0.531503439,-0.000160842,0.001794036,-0.000951272,-0.134262636,-0.054987263,9.789119720
1784245543.012372,-0.007688649,0.010163662,-0.531509578,0.000366307,0.001529216,-0.001388493,-0.109540343,-0.089306571,9.782197952
1784245543.014368,-0.007686976,0.010160828,-0.531508327,0.000998824,0.000989308,-0.001329455,-0.102371797,-0.089077778,9.800139427
1784245543.016367,-0.007692039,0.010153250,-0.531506598,0.000530064,0.000026830,-0.000767591,-0.098651558,-0.078366354,9.799314499
1784245543.018365,-0.007690941,0.010150109,-0.531506956,0.000116130,-0.000708879,-0.000466898,-0.095638268,-0.088735148,9.802838326
1784245543.020377,-0.007685302,0.010150840,-0.531509697,0.000508769,-0.000656465,-0.000550346,-0.055833578,-0.097161047,9.844966888
