time_sec,roll_rad,pitch_rad,yaw_rad,gyro_x,gyro_y,gyro_z,acc_x,acc_y,acc_z
1784245514.383973,-0.006141405,-0.001552498,-0.618509948,0.000953090,0.000726809,0.001615020,0.013028366,-0.045010176,9.822052956
1784245514.385831,-0.006150207,-0.001552883,-0.618509054,0.000386188,0.000538961,0.001290229,-0.001049027,-0.059528809,9.809841156
1784245514.387849,-0.006157231,-0.001551811,-0.618509650,-0.000803988,0.000411050,0.000962178,0.012570969,-0.047504593,9.795584679
1784245514.389857,-0.006155080,-0.001549662,-0.618509948,-0.000927599,0.000490397,0.000635079,0.014850731,-0.044410329,9.797400475
1784245514.391852,-0.006156669,-0.001550390,-0.618515074,-0.000638220,0.000455996,0.000090000,-0.000376142,-0.041149076,9.807270050
1784245514.393816,-0.006158633,-0.001551582,-0.618522465,-0.000736553,0.000167158,-0.000778393,0.000460033,-0.047317568,9.791091919
1784245514.395840,-0.006158112,-0.001552333,-0.618522465,-0.000664379,-0.000046911,-0.001067815,0.041830275,-0.079460345,9.763128281
1784245514.397862,-0.006162203,-0.001556397,-0.618520021,-0.000668230,-0.000260343,-0.000611149,0.023852736,-0.078652419,9.807949066
1784245514.399873,-0.006170997,-0.001555986,-0.618519068,-0.001303206,-0.000337456,-0.000206833,0.027803062,-0.088314474,9.773369789
1784245514.401828,-0.006178138,-0.001551616,-0.618521035,-0.002031164,0.000079090,-0.000216962,0.018035078,-0.078050219,9.796739578
1784245514.403826,-0.006183987,-0.001553602,-0.618527532,-0.002290627,0.000238725,-0.000730162,-0.006910985,-0.062113222,9.805784225
1784245514.405836,-0.006187496,-0.001557491,-0.618527591,-0.002232880,-0.000206393,-0.000980397,0.039780933,-0.023288000,9.806527138
1784245514.407887,-0.006182991,-0.001554685,-0.618526161,-0.001699683,-0.000143292,-0.000618197,0.025024856,-0.019047547,9.803849220
1784245514.409884,-0.006177902,-0.001551241,-0.618524611,-0.000727518,0.000399696,-0.000242331,-0.001674895,-0.038326420,9.790698051
1784245514.411834,-0.006181108,-0.001549299,-0.618517935,-0.000401357,0.000653279,0.000373070,0.004598641,-0.075657025,9.799431801
1784245514.413837,-0.006183625,-0.001550900,-0.618518353,-0.000637799,0.000447917,0.000692094,0.016600201,-0.047222838,9.811729431
1784245514.415812,-0.006178830,-0.001551166,-0.618520081,-0.000267878,0.000151904,0.000364939,0.045255449,-0.055777732,9.765974045
1784245514.417813,-0.006172560,-0.001549149,-0.618520916,0.000530086,0.000308767,0.000093422,0.013963460,-0.042292569,9.816243172
1784245514.419828,-0.006175186,-0.001544562,-0.618518889,0.000608075,0.000750903,0.000149377,0.015654290,-0.016083241,9.781889915
1784245514.421809,-0.006173042,-0.001542943,-0.618518889,0.000410480,0.000967410,0.000243302,0.029009312,-0.023982348,9.797544479
1784245514.423799,-0.006168240,-0.001544931,-0.618513823,0.000569897,0.000796657,0.000508948,0.035889607,-0.051155128,9.762856483
1784245514.425788,-0.006170739,-0.001552278,-0.618509471,0.000371315,0.000061805,0.001005447,0.011690999,-0.046139672,9.794247627
1784245514.427825,-0.006169959,-0.001555388,-0.618515730,0.000117465,-0.000701690,0.000607521,0.020077614,-0.056259848,9.816160202
1784245514.429806,-0.006166001,-0.001558031,-0.618514180,0.000370428,-0.000937407,0.000121547,0.008611809,-0.079149373,9.779238701
1784245514.431793,-0.006163595,-0.001558272,-0.618518054,0.000701487,-0.000877713,-0.000068490,0.024879083,-0.069945984,9.778864861
1784245514.433796,-0.006164847,-0.001558736,-0.618524075,0.000655970,-0.000702042,-0.000712101,0.025168736,-0.083365127,9.775193214
1784245514.435789,-0.006161424,-0.001562965,-0.618526757,0.000692031,-0.000845245,-0.001110158,0.032547541,-0.064455509,9.812082291
1784245514.437795,-0.006160629,-0.001564655,-0.618522942,0.000789012,-0.000954424,-0.000732136,0.023400880,-0.041892208,9.805942535
1784245514.439792,-0.006161746,-0.001568571,-0.618521750,0.000551857,-0.001014303,-0.000186353,0.050552193,-0.026243735,9.761684418
1784245514.441797,-0.006162593,-0.001572754,-0.618521869,0.000268733,-0.001289064,-0.000060996,0.040031169,-0.040665664,9.792516708
1784245514.443796,-0.006166765,-0.001568839,-0.618523002,-0.000238044,-0.000891014,-0.000129286,0.019198960,-0.056505542,9.789258003
1784245514.445804,-0.006169192,-0.001571414,-0.618523717,-0.000714445,-0.000491667,-0.000214699,0.013642558,-0.031551652,9.818552971
1784245514.447805,-0.006172370,-0.001578750,-0.618522227,-0.000980307,-0.001012693,-0.000100799,0.053260803,-0.059280850,9.803170204
1784245514.449812,-0.006176138,-0.001581045,-0.618519723,-0.001264708,-0.001374606,0.000198753,0.036740467,-0.053965680,9.778531075
1784245514.451808,-0.006182531,-0.001579865,-0.618517458,-0.001610612,-0.001079117,0.000474023,0.023932945,-0.073156059,9.790948868
1784245514.453821,-0.006186821,-0.001583146,-0.618521452,-0.001879594,-0.000860907,0.000223249,0.018322267,-0.055925250,9.772224426
1784245514.455828,-0.006186025,-0.001582838,-0.618520975,-0.001587684,-0.000760426,-0.000085351,0.017756874,-0.064135425,9.793690681
1784245514.457811,-0.006183415,-0.001584385,-0.618517935,-0.000905750,-0.000659277,0.000178138,0.006693814,-0.051829971,9.784342766
1784245514.459808,-0.006183743,-0.001587778,-0.618512452,-0.000484840,-0.000838864,0.000711539,-0.004185283,-0.025103914,9.762985229
1784245514.461812,-0.006189867,-0.001588192,-0.618514955,-0.000791022,-0.000870764,0.000720606,0.016727144,-0.035683956,9.827048302
1784245514.463813,-0.006200732,-0.001589185,-0.618521690,-0.001824084,-0.000736183,-0.000103580,0.044124383,-0.036231432,9.791652679
1784245514.465822,-0.006208465,-0.001589846,-0.618522823,-0.002685547,-0.000655521,-0.000614002,0.039037332,-0.047494400,9.809508324
1784245514.467815,-0.006206450,-0.001591248,-0.618515551,-0.002410863,-0.000558358,-0.000027445,0.009613848,0.004139598,9.784256935
1784245514.469839,-0.006210660,-0.001586644,-0.618516862,-0.001971785,-0.000130057,0.000384175,0.040162478,-0.031118577,9.772851944
1784245514.471827,-0.006218098,-0.001585453,-0.618520081,-0.002227554,0.000300584,-0.000038290,0.036408909,-0.081304029,9.780147552
1784245514.473832,-0.006221743,-0.001592644,-0.618516624,-0.002350574,-0.000144451,-0.000007194,0.035847601,-0.090292476,9.785021782
1784245514.475839,-0.006225265,-0.001597328,-0.618515432,-0.002174030,-0.000869387,0.000320531,0.014744150,-0.090946801,9.789032936
1784245514.477827,-0.006225639,-0.001590855,-0.618515074,-0.001746034,-0.000517325,0.000329980,0.013427975,-0.051887587,9.780314445
1784245514.479821,-0.006221892,-0.001589784,-0.618517935,-0.000941163,0.000131475,0.000069056,0.002899233,-0.068396695,9.789613724
1784245514.481881,-0.006216296,-0.001591120,-0.618523121,-0.000052258,0.000081094,-0.000484493,0.025616366,-0.044573750,9.800995827
1784245514.483835,-0.006213936,-0.001585526,-0.618521750,0.000434859,0.000314450,-0.000615722,0.038513932,-0.054157194,9.802291870
1784245514.485828,-0.006218209,-0.001585694,-0.618519962,0.000120434,0.000560782,-0.000242611,0.016427921,-0.061551236,9.810741425
1784245514.487847,-0.006226648,-0.001589685,-0.618520379,-0.000802392,0.000100407,-0.000083782,0.027169598,-0.102735683,9.786277771
1784245514.489836,-0.006229869,-0.001593843,-0.618526638,-0.001403966,-0.000502402,-0.000511009,0.041987713,-0.066059664,9.768593788
1784245514.491835,-0.006232566,-0.001596945,-0.618527770,-0.001425276,-0.000855709,-0.000875254,0.040646289,-0.025984084,9.806061745
1784245514.493833,-0.006229228,-0.001602901,-0.618524134,-0.001098704,-0.001102876,-0.000472085,0.024953384,-0.025690651,9.793046951
1784245514.495833,-0.006227449,-0.001607907,-0.618517578,-0.000556075,-0.001415425,0.000344868,0.061796051,-0.022127254,9.792656898
1784245514.497841,-0.006229808,-0.001612984,-0.618517935,-0.000556309,-0.001493196,0.000669439,0.049633890,-0.064797625,9.766367912
1784245514.499841,-0.006231658,-0.001611587,-0.618518591,-0.000803739,-0.001112217,0.000420532,-0.002170735,-0.079119496,9.794471741
1784245514.501843,-0.006230062,-0.001610228,-0.618515432,-0.000602549,-0.000624240,0.000475658,0.015016732,-0.067316145,9.804876328
1784245514.503841,-0.006231952,-0.001610044,-0.618519008,-0.000438206,-0.000339724,0.000316880,0.014537239,-0.070795514,9.790954590
1784245514.505882,-0.006238693,-0.001617346,-0.618519247,-0.000884856,-0.000718996,-0.000019578,0.010731919,-0.048641428,9.832787514
1784245514.507859,-0.006251763,-0.001621976,-0.618519723,-0.002028225,-0.001347784,-0.000051326,0.024751294,-0.043091178,9.783071518
1784245514.509852,-0.006255740,-0.001619231,-0.618517876,-0.002673260,-0.001124680,0.000056003,0.044196714,-0.065145172,9.825093269
1784245514.511856,-0.006255235,-0.001621042,-0.618516982,-0.002182834,-0.000757070,0.000227118,0.019613771,-0.058805145,9.796864510
1784245514.513861,-0.006251510,-0.001628027,-0.618518949,-0.001343053,-0.001068898,0.000096585,0.017522961,-0.084623992,9.776969910
1784245514.515891,-0.006250463,-0.001627457,-0.618513942,-0.000694019,-0.001136130,0.000273221,0.051072296,-0.091139413,9.813723564
1784245514.517881,-0.006252440,-0.001630266,-0.618514180,-0.000453226,-0.000877396,0.000529607,0.009782829,-0.055927306,9.787905693
1784245514.519870,-0.006255434,-0.001637343,-0.618518591,-0.000553136,-0.001204045,0.000081260,0.029337810,-0.033852775,9.798827171
1784245514.521876,-0.006256765,-0.001637279,-0.618519425,-0.000697131,-0.001350910,-0.000299117,0.014889399,-0.041268244,9.796524048
1784245514.523871,-0.006253440,-0.001639502,-0.618514836,-0.000455904,-0.001087412,0.000040159,0.018288443,-0.021439219,9.774238586
1784245514.525873,-0.006247870,-0.001642959,-0.618519068,0.000187919,-0.001133054,0.000052064,-0.003023071,-0.037514992,9.805049896
1784245514.527884,-0.006245260,-0.001641156,-0.618522942,0.000660277,-0.000982806,-0.000515894,0.012410657,-0.060117450,9.805366516
1784245514.529901,-0.006249784,-0.001641588,-0.618526399,0.000319341,-0.000668417,-0.000857385,0.017765276,-0.063258588,9.796384811
1784245514.531959,-0.006258889,-0.001645682,-0.618526459,-0.000692866,-0.000792685,-0.000856614,0.028235203,-0.087640516,9.803860664
1784245514.533903,-0.006266059,-0.001643860,-0.618530035,-0.001572695,-0.000683576,-0.000873218,0.024524052,-0.098685443,9.788542747
1784245514.535892,-0.006266584,-0.001643008,-0.618530691,-0.001631312,-0.000268164,-0.000918621,0.066080175,-0.074344777,9.819225311
1784245514.537895,-0.006269344,-0.001649440,-0.618530810,-0.001371519,-0.000366224,-0.000718775,0.085180804,-0.055145849,9.794260025
1784245514.539891,-0.006269075,-0.001649657,-0.618533075,-0.001128544,-0.000509574,-0.000681815,0.033245455,-0.043851875,9.811768532
1784245514.541897,-0.006262713,-0.001649940,-0.618526995,-0.000371660,-0.000406810,-0.000237623,0.014032395,-0.036885239,9.811795235
1784245514.543928,-0.006256622,-0.001651406,-0.618528247,0.000449765,-0.000425299,0.000158083,0.027653530,-0.061631378,9.801785469
1784245514.545922,-0.006259604,-0.001656892,-0.618531287,0.000412965,-0.000788139,-0.000170367,0.023463007,-0.074938968,9.790488243
1784245514.547899,-0.006261964,-0.001659808,-0.618534923,0.000042065,-0.001137754,-0.000573128,0.013897789,-0.086074501,9.798477173
1784245514.549899,-0.006259552,-0.001658457,-0.618535995,0.000138219,-0.000929190,-0.000737009,0.035417501,-0.050523724,9.800968170
1784245514.551893,-0.006255334,-0.001660573,-0.618531883,0.000551099,-0.000730164,-0.000332085,0.053197280,-0.064240217,9.807621002
1784245514.553901,-0.006249436,-0.001660330,-0.618534148,0.001015350,-0.000532498,-0.000108756,0.045118220,-0.064155817,9.810304642
1784245514.555899,-0.006244838,-0.001655556,-0.618539453,0.001378264,0.000083197,-0.000593261,0.023121465,-0.027986951,9.804238319
1784245514.557927,-0.006243983,-0.001659096,-0.618542314,0.001259360,0.000194093,-0.000984812,0.018963275,-0.039823480,9.775016785
1784245514.559916,-0.006245356,-0.001658500,-0.618532062,0.000769314,-0.000015288,-0.000207253,0.038627520,-0.044750012,9.802352905
1784245514.561914,-0.006242441,-0.001657685,-0.618527353,0.000666945,0.000078322,0.000866417,0.034773786,-0.065431058,9.819253922
1784245514.563917,-0.006240712,-0.001655545,-0.618535101,0.000851941,0.000475229,0.000423295,0.035755724,-0.058291074,9.821542740
1784245514.565919,-0.006239845,-0.001650466,-0.618539155,0.000846627,0.001057521,-0.000493814,0.047294758,-0.068765916,9.824624062
1784245514.567913,-0.006237541,-0.001655983,-0.618543625,0.000889995,0.000885793,-0.000930490,0.015635863,-0.090192743,9.807420731
1784245514.569924,-0.006235164,-0.001658345,-0.618545592,0.001024258,0.000254719,-0.001106845,0.013490867,-0.081281096,9.818234444
1784245514.571923,-0.006242341,-0.001655035,-0.618541956,0.000420544,0.000249212,-0.000692347,0.040920623,-0.077114031,9.812908173
1784245514.573913,-0.006243952,-0.001658194,-0.618539810,-0.000236707,0.000263773,-0.000101803,0.040338147,-0.051111244,9.811728477
1784245514.575931,-0.006238723,-0.001664298,-0.618533015,0.000126876,-0.000366003,0.000542794,0.035312727,-0.021460922,9.809672356
1784245514.577939,-0.006234094,-0.001664115,-0.618532360,0.000611101,-0.000628499,0.000905508,0.025670510,-0.040904213,9.788915634
1784245514.579924,-0.006231167,-0.001665952,-0.618537366,0.000806170,-0.000525167,0.000376852,0.017826561,-0.057911664,9.800455093
1784245514.581961,-0.006226650,-0.001667277,-0.618539214,0.001091785,-0.000594325,-0.000189363,0.031943657,-0.040648028,9.804615021
1784245514.583931,-0.006228158,-0.001666481,-0.618541956,0.000922569,-0.000389536,-0.000456608,0.025168117,-0.045374893,9.788437843
1784245514.585932,-0.006236665,-0.001664748,-0.618542612,-0.000084663,-0.000033379,-0.000561286,0.047925163,-0.056800354,9.778971672
1784245514.587946,-0.006240139,-0.001668276,-0.618544519,-0.000875518,-0.000025629,-0.000584880,0.018511513,-0.077026501,9.777915955
1784245514.589936,-0.006235649,-0.001670661,-0.618542492,-0.000569119,-0.000300595,-0.000421711,0.051923387,-0.059600282,9.787476540
1784245514.591928,-0.006231088,-0.001667212,-0.618542075,0.000199977,-0.000147803,-0.000137543,0.034793518,-0.065275259,9.797285080
1784245514.593932,-0.006228361,-0.001668614,-0.618543506,0.000654293,0.000146077,-0.000164355,0.023912221,-0.076561689,9.765819550
1784245514.595934,-0.006232685,-0.001674351,-0.618544757,0.000382077,-0.000262639,-0.000296626,0.029667232,-0.042500153,9.817153931
1784245514.597940,-0.006237091,-0.001679298,-0.618545413,-0.000362248,-0.000878815,-0.000341470,0.057221562,-0.030460201,9.775563240
1784245514.599942,-0.006241130,-0.001680530,-0.618538797,-0.000884347,-0.001025133,0.000151081,0.043777190,-0.026913889,9.805162430
1784245514.601943,-0.006239855,-0.001684735,-0.618537068,-0.000830982,-0.001119398,0.000673124,0.040776424,-0.054846574,9.769113541
1784245514.603959,-0.006235872,-0.001684919,-0.618538201,-0.000282871,-0.001028358,0.000531623,0.030225419,-0.072747253,9.785129547
1784245514.605946,-0.006235848,-0.001682217,-0.618537962,0.000031354,-0.000492476,0.000322711,0.042234346,-0.043039147,9.807298660
1784245514.607938,-0.006235140,-0.001681606,-0.618541896,-0.000045675,-0.000007691,-0.000009957,0.058747143,-0.015281739,9.780591965
1784245514.609975,-0.006235909,-0.001678896,-0.618542969,-0.000155811,0.000346605,-0.000342641,0.033033527,-0.061735343,9.806721687
1784245514.611948,-0.006234238,-0.001670643,-0.618539929,-0.000052047,0.000995938,-0.000131230,0.026188426,-0.071469270,9.801720619
1784245514.613940,-0.006240390,-0.001670521,-0.618540108,-0.000267654,0.001309674,0.000093637,0.030358750,-0.060347423,9.805383682
1784245514.615960,-0.006245729,-0.001671209,-0.618539751,-0.000901022,0.000932386,0.000090852,0.025622630,-0.044929504,9.787992477
1784245514.617951,-0.006244651,-0.001672347,-0.618541420,-0.000929623,0.000527540,-0.000019524,0.025623666,-0.045326587,9.780815125
1784245514.619949,-0.006241758,-0.001673918,-0.618537545,-0.000391150,0.000171146,0.000135288,0.009775462,-0.057201233,9.778036118
1784245514.621954,-0.006241240,-0.001670956,-0.618527234,-0.000051755,0.000213093,0.001061994,0.030435106,-0.054476235,9.798695564
1784245514.623951,-0.006238064,-0.001665616,-0.618516862,0.000271638,0.000690153,0.002172942,0.028137343,-0.021743760,9.799350739
1784245514.625968,-0.006234889,-0.001666395,-0.618514836,0.000686637,0.000787195,0.002421540,0.031044759,-0.039432544,9.824348450
1784245514.627956,-0.006233240,-0.001666557,-0.618521571,0.000807631,0.000560941,0.001445382,0.033407189,-0.069222882,9.787843704
1784245514.629958,-0.006241424,-0.001661646,-0.618527532,0.000123760,0.000785745,0.000193651,0.027565952,-0.068401672,9.808915138
1784245514.631962,-0.006244340,-0.001659178,-0.618525505,-0.000663772,0.001074973,-0.000122273,0.033804972,-0.072872736,9.796338081
1784245514.633957,-0.006239790,-0.001659892,-0.618525803,-0.000337934,0.000949664,0.000026225,0.034853596,-0.059937876,9.802700043
1784245514.635957,-0.006234405,-0.001654861,-0.618527234,0.000462408,0.001033738,-0.000098398,0.054134849,-0.024723645,9.793529510
1784245514.637964,-0.006236804,-0.001652392,-0.618534803,0.000399274,0.001428925,-0.000675749,0.052590169,-0.040458165,9.803738594
1784245514.639965,-0.006237040,-0.001649688,-0.618535936,-0.000028180,0.001558823,-0.001079778,0.016758496,-0.034625877,9.804190636
1784245514.641976,-0.006231731,-0.001649960,-0.618532896,0.000323918,0.001299886,-0.000652952,0.039734706,-0.065700606,9.785181999
1784245514.643967,-0.006230360,-0.001652911,-0.618528008,0.000685555,0.000891582,0.000072121,0.035497468,-0.082213886,9.783727646
1784245514.645963,-0.006230391,-0.001654186,-0.618524849,0.000586638,0.000526047,0.000599374,0.030104484,-0.043001559,9.823877335
1784245514.647969,-0.006231819,-0.001652463,-0.618528903,0.000210850,0.000464787,0.000370370,0.020737547,-0.040008642,9.797883034
1784245514.649972,-0.006233138,-0.001652400,-0.618533373,-0.000151112,0.000514206,-0.000301524,0.038646623,-0.044193942,9.787112236
1784245514.651968,-0.006231524,-0.001650245,-0.618532717,-0.000090303,0.000526828,-0.000483725,0.021276928,-0.034435354,9.769227028
1784245514.653978,-0.006228559,-0.001649910,-0.618531883,0.000188549,0.000567278,-0.000254874,0.015538113,-0.025916127,9.778689384
1784245514.656068,-0.006233076,-0.001649546,-0.618534625,-0.000024979,0.000476572,-0.000306111,0.031463359,-0.044133756,9.791589737
1784245514.657994,-0.006231099,-0.001649647,-0.618537605,-0.000251807,0.000448920,-0.000614113,0.058991678,-0.069483817,9.778452873
1784245514.659982,-0.006233426,-0.001643473,-0.618539631,-0.000268256,0.000822822,-0.000781903,0.021255173,-0.072197020,9.786915779
1784245514.662011,-0.006231021,-0.001640531,-0.618534625,-0.000189780,0.001216903,-0.000361759,0.040008556,-0.042870488,9.787570000
1784245514.663987,-0.006231414,-0.001643084,-0.618530989,-0.000012621,0.000978392,0.000320661,0.048858944,-0.052472148,9.798726082
1784245514.665999,-0.006230320,-0.001641721,-0.618535638,0.000026435,0.000701599,0.000167215,0.058660481,-0.058418948,9.798250198
1784245514.668001,-0.006225575,-0.001643064,-0.618536472,0.000383781,0.000750280,-0.000249533,0.033387404,-0.033815488,9.786277771
1784245514.669992,-0.006231209,-0.001645074,-0.618532896,0.000188241,0.000553238,0.000004458,0.005392254,-0.046192724,9.813070297
1784245514.671990,-0.006236797,-0.001645229,-0.618536115,-0.000624507,0.000255925,0.000025099,0.012123473,-0.047489304,9.794239998
1784245514.673992,-0.006240796,-0.001644127,-0.618545234,-0.001085802,0.000241230,-0.000825019,0.029446216,-0.025297003,9.792605400
1784245514.676018,-0.006242066,-0.001637699,-0.618544221,-0.001128402,0.000675570,-0.001152545,0.053909566,-0.079491936,9.808870316
1784245514.677994,-0.006243973,-0.001638317,-0.618543863,-0.000853067,0.001038690,-0.000740533,0.060671341,-0.079736784,9.768075943
1784245514.679994,-0.006244252,-0.001638794,-0.618543148,-0.000585197,0.000834625,-0.000460942,0.066701151,-0.062858962,9.778054237
1784245514.682060,-0.006248791,-0.001637369,-0.618537605,-0.000752663,0.000669773,0.000085055,-0.004813396,-0.038267095,9.788005829
1784245514.684021,-0.006253819,-0.001632627,-0.618532658,-0.001251121,0.000911953,0.000773058,-0.014021276,-0.019023940,9.807847023
1784245514.686005,-0.006254902,-0.001632300,-0.618528843,-0.001379731,0.001014517,0.001165910,0.002740079,-0.045436818,9.774517059
1784245514.688010,-0.006249717,-0.001633109,-0.618530989,-0.000789719,0.000670868,0.000963456,0.049201533,-0.062231291,9.784317970
1784245514.690009,-0.006248859,-0.001627234,-0.618531108,-0.000228600,0.000798752,0.000547509,0.075172924,-0.066227920,9.795525551
1784245514.692012,-0.006245872,-0.001620321,-0.618527412,0.000094861,0.001448372,0.000644600,0.044723257,-0.060483709,9.798670769
1784245514.694006,-0.006242996,-0.001628425,-0.618528366,0.000431112,0.001182893,0.000657219,0.044111151,-0.071899563,9.829981804
1784245514.696009,-0.006245395,-0.001630471,-0.618534625,0.000309459,0.000385569,-0.000005452,0.025066219,-0.051853023,9.817537308
1784245514.698008,-0.006246001,-0.001630081,-0.618538976,-0.000063189,0.000241209,-0.000720895,0.064502016,-0.057616837,9.800950050
1784245514.700013,-0.006246286,-0.001629232,-0.618533254,-0.000189834,0.000327492,-0.000428459,0.039323829,-0.058912221,9.839474678
1784245514.702020,-0.006247086,-0.001626520,-0.618526459,-0.000210625,0.000474926,0.000543339,0.012610910,-0.042326197,9.823413849
1784245514.704016,-0.006251812,-0.001622948,-0.618521690,-0.000548686,0.000802244,0.001179788,0.021759652,-0.028093709,9.821721077
1784245514.706030,-0.006260080,-0.001621217,-0.618515372,-0.001301874,0.000974382,0.001606156,0.029106608,-0.052698940,9.803188324
1784245514.708020,-0.006259382,-0.001615911,-0.618523180,-0.001467102,0.001262843,0.001069843,0.064250328,-0.042682108,9.780422211
1784245514.710025,-0.006261128,-0.001605765,-0.618526399,-0.001145764,0.002048179,0.000033186,0.039920747,-0.049237333,9.800980568
1784245514.712027,-0.006267259,-0.001604323,-0.618522406,-0.001369270,0.002278367,0.000069640,0.019954525,-0.068173572,9.790529251
1784245514.714020,-0.006266895,-0.001605196,-0.618518889,-0.001414463,0.001721943,0.000561696,0.001985831,-0.104885645,9.818967819
1784245514.716026,-0.006261255,-0.001601495,-0.618521810,-0.000649012,0.001472856,0.000452946,-0.011738879,-0.053904016,9.794176102
1784245514.718024,-0.006262494,-0.001597687,-0.618522167,-0.000160911,0.001491800,0.000103951,0.015271342,-0.083848760,9.798044205
1784245514.720025,-0.006261412,-0.001595262,-0.618520856,-0.000114352,0.001417166,0.000137558,0.029719874,-0.040463474,9.782646179
1784245514.722029,-0.006260913,-0.001597073,-0.618518293,0.000024445,0.001072460,0.000359159,0.020452712,-0.064141311,9.789658546
1784245514.724029,-0.006265695,-0.001601045,-0.618523717,-0.000275586,0.000414457,0.000066393,0.042268973,-0.077518821,9.804388046
1784245514.726030,-0.006263803,-0.001599425,-0.618526697,-0.000400313,0.000170410,-0.000524512,0.059964579,-0.062820420,9.784771919
1784245514.728030,-0.006259087,-0.001597804,-0.618524671,0.000091801,0.000505215,-0.000445747,0.049583089,-0.067225024,9.792803764
1784245514.730032,-0.006254770,-0.001593027,-0.618526578,0.000615181,0.000962886,-0.000314707,0.037173118,-0.054908685,9.784354210
1784245514.732041,-0.006249663,-0.001589055,-0.618527949,0.001087418,0.001296752,-0.000453773,0.024858668,-0.034138318,9.784026146
1784245514.734039,-0.006246782,-0.001589162,-0.618526101,0.001301352,0.001269835,-0.000304067,0.009960356,-0.038720734,9.825228691
1784245514.736040,-0.006246552,-0.001590440,-0.618521452,0.001126874,0.000891258,0.000217659,0.036032606,-0.073432110,9.807994843
1784245514.738039,-0.006244860,-0.001593445,-0.618522286,0.000998059,0.000418602,0.000416114,0.023804590,-0.043874223,9.831933975
1784245514.740041,-0.006246490,-0.001597885,-0.618527293,0.000776886,-0.000136356,-0.000090556,0.030127091,-0.043633569,9.786660194
1784245514.742047,-0.006252405,-0.001600953,-0.618523359,0.000053744,-0.000608566,-0.000135998,0.041594483,-0.061158143,9.773108482
1784245514.744046,-0.006258023,-0.001603380,-0.618517637,-0.000689018,-0.000702677,0.000554020,0.005311806,-0.054122485,9.794190407
1784245514.746047,-0.006254851,-0.001602834,-0.618511021,-0.000613121,-0.000527007,0.001239549,0.009395061,-0.051387895,9.780313492
1784245514.748058,-0.006252005,-0.001599151,-0.618509471,-0.000084343,-0.000150379,0.001452259,0.007706420,-0.042421572,9.782611847
1784245514.750050,-0.006248242,-0.001597286,-0.618514121,0.000339823,0.000218216,0.000849627,0.009049077,-0.042060807,9.792479515
1784245514.752056,-0.006253604,-0.001599033,-0.618511498,0.000138920,0.000167804,0.000480236,0.013310881,-0.060106695,9.802230835
1784245514.754055,-0.006263335,-0.001598245,-0.618509948,-0.000931649,0.000030503,0.000624301,0.042426758,-0.063304879,9.821516037
1784245514.756060,-0.006256645,-0.001596411,-0.618513823,-0.000894207,0.000176313,0.000298676,0.044607148,-0.033536699,9.789877892
1784245514.758054,-0.006252798,-0.001595368,-0.618514657,-0.000033526,0.000400538,-0.000099023,0.056509148,-0.051178306,9.792017937
1784245514.760055,-0.006259686,-0.001592062,-0.618516445,-0.000327947,0.000662929,-0.000245240,0.042065170,-0.058558796,9.784782410
1784245514.762058,-0.006264441,-0.001589044,-0.618519187,-0.001029682,0.000914105,-0.000478561,0.017065749,-0.083874933,9.798494339
1784245514.764064,-0.006272112,-0.001585946,-0.618516088,-0.001524372,0.001022917,-0.000323986,0.000505262,-0.077661037,9.836627007
1784245514.766064,-0.006279316,-0.001584757,-0.618510902,-0.002050129,0.000974653,0.000329200,0.001495602,-0.034891084,9.805966377
1784245514.768064,-0.006282969,-0.001589771,-0.618513525,-0.002365366,0.000437110,0.000423261,0.007546173,-0.053007659,9.822444916
1784245514.770068,-0.006285903,-0.001592873,-0.618522227,-0.002306604,-0.000239826,-0.000448043,0.011548407,-0.058612630,9.784304619
1784245514.772067,-0.006285903,-0.001592873,-0.618522227,-0.002080445,-0.000588405,-0.001496874,0.011548407,-0.058612630,9.784304619
1784245514.774065,-0.006279606,-0.001596151,-0.618522346,-0.001482397,-0.000743556,-0.001519572,0.019647378,-0.055297770,9.807646751
1784245514.776087,-0.006279606,-0.001596151,-0.618522346,-0.000613432,-0.000757797,-0.000794745,0.019647378,-0.055297770,9.807646751
1784245514.778076,-0.006275953,-0.001596019,-0.618519068,-0.000142680,-0.000730313,-0.000284815,0.011374864,-0.072140492,9.796771049
1784245514.780109,-0.006274072,-0.001595674,-0.618524194,0.000041899,-0.000399941,-0.000345102,0.020795073,-0.073497005,9.781527519
1784245514.782085,-0.006282125,-0.001591137,-0.618525982,-0.000361121,0.000244059,-0.000640353,-0.018588049,-0.025269696,9.812286377
1784245514.784077,-0.006285868,-0.001589189,-0.618518174,-0.000982878,0.000639767,-0.000044039,0.026230557,-0.031115221,9.797496796
1784245514.786082,-0.006289602,-0.001583514,-0.618517458,-0.001326177,0.001069850,0.000553800,0.045197397,-0.058262367,9.800478935
1784245514.788086,-0.006289066,-0.001583470,-0.618519068,-0.001286798,0.001258030,0.000339217,0.052582227,-0.042141911,9.788484573
1784245514.790082,-0.006285904,-0.001587697,-0.618522942,-0.000687021,0.000634874,-0.000127314,0.038163170,-0.045678344,9.807726860
1784245514.792087,-0.006280589,-0.001590278,-0.618526697,0.000038551,0.000088688,-0.000611646,0.007369466,-0.032617908,9.790743828
1784245514.794083,-0.006280544,-0.001586251,-0.618528128,0.000355824,0.000250055,-0.000799231,0.038567740,-0.013710939,9.785065651
1784245514.796087,-0.006281246,-0.001590096,-0.618530154,0.000061570,0.000300501,-0.000810730,0.019296670,-0.047628984,9.800971031
1784245514.798084,-0.006280235,-0.001594830,-0.618530095,-0.000087166,-0.000258095,-0.000714009,0.025213966,-0.113708593,9.820727348
1784245514.800086,-0.006279467,-0.001594522,-0.618522704,0.000058021,-0.000491642,-0.000010366,0.025937712,-0.093711525,9.779609680
1784245514.802087,-0.006279282,-0.001594468,-0.618518889,0.000275164,-0.000340544,0.000756922,0.009981459,-0.075738728,9.801229477
1784245514.804091,-0.006284342,-0.001594364,-0.618520081,0.000036800,-0.000240651,0.000737538,0.039582577,-0.042280059,9.768296242
1784245514.806095,-0.006289609,-0.001594500,-0.618520081,-0.000804545,-0.000105024,0.000451930,0.041008275,-0.033563837,9.800184250
1784245514.808096,-0.006295757,-0.001595709,-0.618518829,-0.001491137,-0.000096419,0.000405714,0.045208231,-0.019776480,9.807003021
1784245514.810093,-0.006295206,-0.001593013,-0.618517339,-0.001465907,0.000029513,0.000481859,0.030305989,-0.028847674,9.786307335
1784245514.812104,-0.006293523,-0.001590851,-0.618523240,-0.001026632,0.000479687,0.000052596,0.002908562,-0.031543668,9.773710251
1784245514.814104,-0.006291613,-0.001589231,-0.618530750,-0.000615531,0.000738418,-0.000874120,0.010748070,-0.052161153,9.760583878
1784245514.816099,-0.006287727,-0.001588912,-0.618535101,-0.000084006,0.000671746,-0.001441965,0.033062011,-0.059889447,9.799112320
1784245514.818101,-0.006282161,-0.001590778,-0.618533850,0.000552347,0.000382848,-0.001260867,0.026414851,-0.053471338,9.790628433
1784245514.820189,-0.006282419,-0.001589134,-0.618532538,0.000762877,0.000262789,-0.000749750,0.008056901,-0.049686905,9.795566559
1784245514.822116,-0.006284892,-0.001589693,-0.618529797,0.000320537,0.000289081,-0.000269408,0.007597044,-0.048553489,9.826059341
1784245514.824110,-0.006291327,-0.001593020,-0.618529081,-0.000421145,-0.000029006,0.000041867,0.013528970,-0.040958837,9.818492889
1784245514.826114,-0.006288235,-0.001594096,-0.618528962,-0.000635784,-0.000281134,0.000088513,0.028479476,-0.065449141,9.833145142
1784245514.828113,-0.006285291,-0.001593017,-0.618530631,-0.000155665,-0.000164687,-0.000037289,-0.001401859,-0.050255790,9.829627991
1784245514.830109,-0.006282889,-0.001595381,-0.618538976,0.000248361,-0.000202894,-0.000707191,-0.001413833,-0.051971316,9.818857193
1784245514.832119,-0.006280451,-0.001597929,-0.618539274,0.000412213,-0.000571858,-0.001107057,0.029361634,-0.031638410,9.802428246
1784245514.834116,-0.006289500,-0.001599108,-0.618545592,-0.000245401,-0.000761155,-0.001254732,0.022004763,-0.047132853,9.789320946
1784245514.836116,-0.006295423,-0.001603947,-0.618547618,-0.001213126,-0.000965119,-0.001471767,0.006772304,-0.079479322,9.828999519
1784245514.838120,-0.006295742,-0.001607075,-0.618544281,-0.001324414,-0.001250086,-0.000979826,0.034171786,-0.080414332,9.785083771
1784245514.840121,-0.006294939,-0.001604116,-0.618538499,-0.000930835,-0.000926033,-0.000094234,0.024996361,-0.058483411,9.804942131
1784245514.842121,-0.006297030,-0.001605842,-0.618537366,-0.000714332,-0.000526330,0.000407297,0.009980327,-0.001378413,9.803500175
1784245514.844121,-0.006293259,-0.001602916,-0.618540823,-0.000356220,-0.000233436,0.000141171,-0.018265594,-0.000434701,9.784648895
1784245514.846123,-0.006285490,-0.001602832,-0.618538201,0.000319490,-0.000097089,0.000037790,-0.003079750,-0.042420309,9.801878929
1784245514.848124,-0.006281768,-0.001603618,-0.618539929,0.000808705,-0.000250492,0.000087428,0.023932420,-0.074375935,9.773455620
1784245514.850129,-0.006280645,-0.001599072,-0.618542850,0.000917573,0.000074729,-0.000253458,0.059699714,-0.084363878,9.790461540
1784245514.852130,-0.006284736,-0.001598899,-0.618543983,0.000547541,0.000568260,-0.000464970,0.024569120,-0.057092443,9.799120903
1784245514.854129,-0.006294107,-0.001601400,-0.618539631,-0.000433597,0.000446387,-0.000117417,0.027525339,-0.034779754,9.806440353
1784245514.856138,-0.006295933,-0.001603469,-0.618537843,-0.001170411,0.000032639,0.000332496,0.010976464,-0.030500406,9.801520348
1784245514.858136,-0.006294616,-0.001604759,-0.618538678,-0.000982155,-0.000184380,0.000300839,0.042221569,-0.044761028,9.797424316
1784245514.860133,-0.006293286,-0.001606315,-0.618543327,-0.000536427,-0.000325149,-0.000154879,0.006953152,-0.066704296,9.796353340
1784245514.862148,-0.006291432,-0.001606312,-0.618553996,-0.000208748,-0.000297640,-0.001154053,0.015200407,-0.051682029,9.811251640
1784245514.864223,-0.006293815,-0.001603850,-0.618552268,-0.000221265,-0.000007559,-0.001447591,0.041722063,-0.047182694,9.823859215
1784245514.866175,-0.006298063,-0.001610100,-0.618549168,-0.000651976,-0.000121435,-0.000725219,0.033603698,-0.052676938,9.791984558
1784245514.868164,-0.006296300,-0.001617227,-0.618544281,-0.000684013,-0.000856730,0.000014457,0.001450520,-0.079320937,9.753228188
1784245514.870167,-0.006289957,-0.001621488,-0.618544102,0.000052458,-0.001399360,0.000355901,0.041238762,-0.053934142,9.765981674
1784245514.872158,-0.006287664,-0.001621197,-0.618547142,0.000614004,-0.001269633,0.000066051,0.027584299,-0.068662025,9.782462120
1784245514.874160,-0.006291375,-0.001619516,-0.618548274,0.000340576,-0.000771233,-0.000234196,0.026933173,-0.049280092,9.767342567
1784245514.876184,-0.006292657,-0.001617241,-0.618548930,-0.000146714,-0.000262051,-0.000290100,-0.016247647,-0.019265095,9.782737732
1784245514.878160,-0.006300574,-0.001609150,-0.618546605,-0.000786854,0.000542500,-0.000094189,-0.010515502,0.007321377,9.751080513
1784245514.880156,-0.006308279,-0.001606896,-0.618546128,-0.001633418,0.001096265,0.000119953,0.018716142,-0.023637079,9.767499924
1784245514.882207,-0.006303602,-0.001612074,-0.618546247,-0.001554587,0.000575215,0.000109442,0.024908140,-0.067690276,9.776638031
1784245514.884191,-0.006293266,-0.001616643,-0.618546128,-0.000272596,-0.000267438,0.000083098,0.032366846,-0.082497604,9.766237259
1784245514.886165,-0.006290191,-0.001618661,-0.618547320,0.000773285,-0.000576081,-0.000006422,0.037528027,-0.062139045,9.792377472
1784245514.888201,-0.006290471,-0.001621525,-0.618552387,0.000814062,-0.000682939,-0.000433161,0.015165702,-0.056819085,9.777595520
1784245514.890194,-0.006288907,-0.001624674,-0.618553281,0.000679451,-0.000903117,-0.000727038,0.018025417,-0.078126535,9.807498932
1784245514.892172,-0.006289680,-0.001622975,-0.618549407,0.000601500,-0.000743509,-0.000325548,0.005235917,-0.057963725,9.830479622
1784245514.894175,-0.006298701,-0.001620972,-0.618553996,-0.000174148,-0.000275951,-0.000284977,0.027782379,-0.048456453,9.839082718
1784245514.896165,-0.006298879,-0.001625954,-0.618555009,-0.000797529,-0.000382698,-0.000582939,0.013497039,-0.042426724,9.835968018
1784245514.898166,-0.006292514,-0.001629155,-0.618557692,-0.000207062,-0.000814486,-0.000673951,0.014214675,-0.059257250,9.807168007
1784245514.900173,-0.006289782,-0.001627280,-0.618570507,0.000464945,-0.000676686,-0.001549680,0.039939322,-0.084654272,9.803891182
1784245514.902175,-0.006288637,-0.001630240,-0.618564725,0.000610184,-0.000522132,-0.001610226,0.057692181,-0.064640746,9.792828560
1784245514.904172,-0.006291668,-0.001635724,-0.618555427,0.000327217,-0.000918624,-0.000141436,0.053428818,-0.047417648,9.772759438
1784245514.906182,-0.006292823,-0.001639170,-0.618547738,-0.000078098,-0.001206092,0.001054617,0.053185765,-0.066762649,9.784293175
1784245514.908180,-0.006290943,-0.001637549,-0.618547797,-0.000041111,-0.000929129,0.001279301,0.000602332,-0.036467928,9.777263641
1784245514.910198,-0.006289836,-0.001633268,-0.618547499,0.000172717,-0.000276301,0.000940340,0.016058687,-0.019275591,9.789043427
1784245514.912234,-0.006285535,-0.001633069,-0.618544519,0.000417194,0.000088997,0.000909559,0.015105813,-0.024159865,9.784528732
1784245514.914187,-0.006284195,-0.001633299,-0.618548036,0.000610667,0.000050511,0.000632738,-0.000482831,-0.051312283,9.787478447
1784245514.916186,-0.006285384,-0.001630614,-0.618551493,0.000446711,0.000154524,-0.000019968,0.012484839,-0.017078822,9.801608086
1784245514.918189,-0.006286458,-0.001631348,-0.618552208,0.000163690,0.000194844,-0.000297345,0.039949980,-0.046575002,9.804583549
1784245514.920182,-0.006285945,-0.001635282,-0.618559003,0.000080299,-0.000171762,-0.000718043,0.036281921,-0.089195989,9.819101334
1784245514.922191,-0.006284983,-0.001638254,-0.618558049,0.000253150,-0.000550008,-0.000916455,0.025773386,-0.068766221,9.800393105
1784245514.924186,-0.006281055,-0.001641427,-0.618551016,0.000612428,-0.000779831,-0.000121677,0.013457553,-0.048412018,9.795579910
1784245514.926198,-0.006273687,-0.001641513,-0.618549407,0.001165096,-0.000788620,0.000494761,0.017137339,-0.041262016,9.791593552
1784245514.928191,-0.006270701,-0.001637783,-0.618554533,0.001502457,-0.000321248,0.000115982,0.043422841,-0.056863692,9.796003342
1784245514.930186,-0.006267805,-0.001642008,-0.618558407,0.001492861,-0.000263794,-0.000522974,0.023050744,-0.033813626,9.804649353
1784245514.932194,-0.006264892,-0.001643524,-0.618551493,0.001354048,-0.000531485,-0.000178049,0.017635003,-0.073202766,9.808876038
1784245514.934195,-0.006271299,-0.001642079,-0.618545055,0.000622548,-0.000346032,0.000778364,0.014749855,-0.054122388,9.777162552
1784245514.936192,-0.006274515,-0.001642401,-0.618551493,-0.000233404,-0.000183914,0.000572148,0.016971851,-0.054726280,9.795093536
1784245514.938195,-0.006274494,-0.001641822,-0.618556440,-0.000421770,-0.000119743,-0.000353915,0.027374331,-0.085719526,9.787283897
1784245514.940233,-0.006276045,-0.001637247,-0.618557036,-0.000411608,0.000264965,-0.000629286,0.015400930,-0.037941124,9.768749237
1784245514.942209,-0.006276027,-0.001633124,-0.618555486,-0.000565816,0.000742298,-0.000395806,0.023458526,-0.039410755,9.771884918
1784245514.944209,-0.006281900,-0.001634337,-0.618556619,-0.000971626,0.000697434,-0.000264475,0.045865797,-0.039107539,9.814949989
1784245514.946208,-0.006284396,-0.001640325,-0.618552864,-0.001381579,0.000161009,-0.000009324,0.023940608,-0.035505679,9.788948059
1784245514.948201,-0.006291310,-0.001639140,-0.618552923,-0.001750961,-0.000067460,0.000249550,0.017931223,-0.050601207,9.780326843
1784245514.950206,-0.006295512,-0.001632680,-0.618551373,-0.002030137,0.000469176,0.000279572,0.048024543,-0.048721157,9.776781082
1784245514.952210,-0.006289352,-0.001632335,-0.618549883,-0.001455778,0.000905057,0.000411239,0.043488432,-0.052698497,9.777200699
1784245514.954213,-0.006289932,-0.001636788,-0.618551373,-0.000791768,0.000483194,0.000304859,0.015566875,-0.060036875,9.788333893
1784245514.956249,-0.006296626,-0.001640734,-0.618551493,-0.001071794,-0.000247211,0.000115480,0.010060067,-0.067418247,9.828184128
1784245514.958215,-0.006297718,-0.001643324,-0.618552923,-0.001310584,-0.000652933,-0.000021832,0.017343283,-0.058989439,9.826898575
1784245514.960220,-0.006299091,-0.001647768,-0.618555963,-0.001122475,-0.000951184,-0.000319872,0.034553017,-0.045794513,9.830587387
1784245514.962220,-0.006297365,-0.001655808,-0.618557692,-0.000880428,-0.001493464,-0.000556686,0.048370309,-0.054807954,9.813058853
1784245514.964225,-0.006291605,-0.001662183,-0.618551314,-0.000218886,-0.002023720,-0.000079320,0.012582025,-0.044175275,9.831472397
1784245514.966232,-0.006288049,-0.001665212,-0.618546367,0.000427398,-0.002162557,0.000721371,-0.018689787,-0.034178048,9.805055618
1784245514.968223,-0.006289423,-0.001669655,-0.618548572,0.000412866,-0.002128817,0.000708936,0.009410942,-0.050857265,9.768661499
1784245514.970225,-0.006286518,-0.001672819,-0.618552268,0.000404059,-0.002064717,0.000122443,0.015752165,-0.044390030,9.792918205
1784245514.972229,-0.006284201,-0.001669579,-0.618550360,0.000583439,-0.001499708,-0.000030851,0.018544154,-0.036342148,9.790282249
1784245514.974234,-0.006281830,-0.001669819,-0.618545413,0.000678711,-0.000893274,0.000436163,0.024838457,-0.073914044,9.769872665
1784245514.976231,-0.006278423,-0.001664499,-0.618547976,0.000931359,-0.000289705,0.000488742,0.020894222,-0.065014355,9.785617828
1784245514.978225,-0.006278162,-0.001663656,-0.618545353,0.000971945,0.000224528,0.000364766,0.022866316,-0.050264180,9.787058830
1784245514.980251,-0.006281631,-0.001661977,-0.618540466,0.000491151,0.000331557,0.000777599,0.033653129,-0.047828857,9.803224564
1784245514.982241,-0.006282951,-0.001663710,-0.618539751,-0.000040761,0.000304265,0.000951106,-0.012329022,-0.065551609,9.794997215
1784245514.984243,-0.006282734,-0.001667109,-0.618537784,-0.000178369,-0.000059079,0.000877418,0.006101381,-0.062279947,9.805795670
1784245514.986238,-0.006282695,-0.001667289,-0.618537545,-0.000115424,-0.000289312,0.000788085,0.033124097,-0.054536168,9.802286148
1784245514.988243,-0.006285551,-0.001660314,-0.618538499,-0.000278441,0.000248405,0.000528035,0.007431890,-0.064041354,9.799060822
1784245514.990237,-0.006290125,-0.001662335,-0.618533254,-0.000706734,0.000515366,0.000680389,0.002047192,-0.025168872,9.823962212
1784245514.992246,-0.006289044,-0.001668467,-0.618527353,-0.000903451,-0.000230234,0.001255669,0.016839858,-0.028309904,9.797953606
1784245514.994243,-0.006284299,-0.001670855,-0.618522704,-0.000414089,-0.000797996,0.001639520,0.067311779,-0.047402281,9.808639526
1784245514.996246,-0.006277837,-0.001675383,-0.618524432,0.000398963,-0.000907332,0.001398069,0.046658766,-0.046832945,9.828798294
1784245514.998240,-0.006278964,-0.001681685,-0.618526876,0.000591766,-0.001249675,0.000732678,0.020566193,-0.053113975,9.813938141
1784245515.000284,-0.006277935,-0.001684828,-0.618526995,0.000424027,-0.001550407,0.000355482,0.013497606,-0.044853762,9.799190521
1784245515.002270,-0.006274904,-0.001690444,-0.618531525,0.000556221,-0.001681460,-0.000044769,0.028674362,-0.051752750,9.796918869
1784245515.004253,-0.006273621,-0.001695181,-0.618533134,0.000669692,-0.001884446,-0.000445230,0.009983082,-0.038136043,9.805953979
1784245515.006257,-0.006273032,-0.001695451,-0.618528426,0.000537242,-0.001727778,-0.000121846,0.016703656,-0.039921917,9.792947769
1784245515.008252,-0.006272784,-0.001697261,-0.618529856,0.000370537,-0.001415008,0.000132783,0.010785474,-0.048218533,9.773161888
1784245515.010265,-0.006274614,-0.001696397,-0.618537247,0.000161626,-0.001091239,-0.000493658,0.021329746,-0.066745177,9.776192665
1784245515.012264,-0.006279211,-0.001698200,-0.618544221,-0.000387396,-0.000848774,-0.001329695,0.027858242,-0.085042015,9.754112244
1784245515.014255,-0.006275773,-0.001702430,-0.618550181,-0.000429687,-0.001018535,-0.001849843,0.024252420,-0.045913104,9.802780151
1784245515.016258,-0.006273588,-0.001708671,-0.618546903,-0.000012739,-0.001385339,-0.001525387,0.030659117,-0.036497377,9.790292740
1784245515.018262,-0.006279464,-0.001707761,-0.618541598,-0.000339894,-0.001308414,-0.000529934,0.019917076,-0.033716146,9.796576500
1784245515.020259,-0.006280513,-0.001703456,-0.618535280,-0.000716315,-0.000604132,0.000397206,0.020911384,-0.024857450,9.809187889
1784245515.022267,-0.006271843,-0.001705587,-0.618533552,-0.000141801,-0.000242777,0.000838447,0.020576661,-0.053031310,9.802282333
1784245515.024262,-0.006270504,-0.001703695,-0.618531704,0.000438425,-0.000141388,0.000852361,0.070056990,-0.079339966,9.821439743
1784245515.026268,-0.006274178,-0.001702982,-0.618526936,0.000231367,0.000262029,0.001061903,0.027187729,-0.065002635,9.772621155
1784245515.028263,-0.006272853,-0.001702947,-0.618525982,0.000079293,0.000430265,0.001159694,0.070708282,-0.063562162,9.806745529
1784245515.030295,-0.006267491,-0.001701099,-0.618530452,0.000511239,0.000442848,0.000599371,0.065072641,-0.046528496,9.815817833
1784245515.032277,-0.006266342,-0.001709382,-0.618533075,0.000713707,0.000058680,-0.000045863,0.042676140,-0.045125712,9.784869194
1784245515.034305,-0.006270869,-0.001711937,-0.618541181,0.000189519,-0.000518487,-0.000753305,0.018151391,-0.029410673,9.824399948
1784245515.036279,-0.006274206,-0.001717109,-0.618549883,-0.000515996,-0.000860915,-0.001683941,0.014338961,-0.050170839,9.789292336
1784245515.038277,-0.006276890,-0.001721804,-0.618558168,-0.000904916,-0.001255602,-0.002380562,0.031186711,-0.029396163,9.798857689
1784245515.040274,-0.006283062,-0.001725666,-0.618558705,-0.001261319,-0.001491774,-0.002328267,0.029562676,-0.051430758,9.813059807
1784245515.042279,-0.006285259,-0.001732138,-0.618561506,-0.001540335,-0.001701936,-0.001911325,0.039136566,-0.078221872,9.782859802
1784245515.044280,-0.006285516,-0.001731025,-0.618562222,-0.001342103,-0.001517271,-0.001623120,0.033493508,-0.061652064,9.794169426
1784245515.046281,-0.006283422,-0.001728866,-0.618558764,-0.000830867,-0.000813272,-0.000994218,0.032930691,-0.072273374,9.776615143
1784245515.048289,-0.006277795,-0.001726490,-0.618561268,-0.000059413,-0.000213948,-0.000661316,0.001002069,-0.074044943,9.831270218
1784245515.050282,-0.006280425,-0.001721903,-0.618558168,0.000160093,0.000316453,-0.000436875,0.017607972,-0.037852589,9.815377235
1784245515.052288,-0.006283360,-0.001717677,-0.618557155,-0.000293895,0.000834019,-0.000038942,0.001580643,-0.029356569,9.783587456
1784245515.054285,-0.006284989,-0.001719465,-0.618555486,-0.000556765,0.000778902,0.000158389,0.029969772,-0.055817548,9.799135208
1784245515.056357,-0.006290033,-0.001718267,-0.618552804,-0.000786242,0.000594501,0.000409589,0.053898700,-0.044824664,9.785329819
1784245515.058326,-0.006290040,-0.001718217,-0.618551791,-0.000843443,0.000585307,0.000539302,0.036464218,-0.039224908,9.785349846
1784245515.060302,-0.006288427,-0.001716859,-0.618552983,-0.000505425,0.000522066,0.000381360,0.045668717,-0.056063283,9.805425644
1784245515.062308,-0.006285850,-0.001716355,-0.618555665,-0.000130654,0.000602154,0.000014482,0.052958779,-0.047580421,9.796519279
1784245515.064342,-0.006280504,-0.001715302,-0.618558586,0.000395582,0.000640542,-0.000378856,0.030796004,-0.060848832,9.812106133
1784245515.066322,-0.006287553,-0.001717558,-0.618555009,0.000268752,0.000401364,-0.000234454,0.029607201,-0.086237572,9.793110847
1784245515.068304,-0.006295060,-0.001721670,-0.618555009,-0.000695871,-0.000124782,0.000084016,-0.002262163,-0.085514955,9.811915398
1784245515.070311,-0.006295365,-0.001724003,-0.618552923,-0.001036937,-0.000529308,0.000208164,0.017303340,-0.064167835,9.799068451
1784245515.072321,-0.006293106,-0.001722728,-0.618550599,-0.000612718,-0.000454157,0.000446148,0.032710038,-0.051420130,9.805891037
1784245515.074322,-0.006291813,-0.001725078,-0.618548334,-0.000195246,-0.000400690,0.000637734,0.023627019,-0.022680756,9.813240051
1784245515.076308,-0.006291722,-0.001724688,-0.618548214,-0.000198708,-0.000411535,0.000632122,0.020294711,-0.040361818,9.785326958
1784245515.078307,-0.006291938,-0.001721720,-0.618553579,-0.000304546,-0.000055129,0.000106397,0.054264080,-0.051972352,9.781699181
1784245515.080309,-0.006291905,-0.001719284,-0.618555963,-0.000235216,0.000330031,-0.000456175,0.062623307,-0.065145589,9.791933060
1784245515.082330,-0.006292013,-0.001721849,-0.618555605,-0.000096829,0.000463238,-0.000469544,0.022202009,-0.067360446,9.798157692
1784245515.084370,-0.006289135,-0.001726338,-0.618555665,0.000197399,0.000089217,-0.000319134,0.019850329,-0.073454075,9.840258598
1784245515.086355,-0.006293040,-0.001732171,-0.618557692,0.000063555,-0.000646482,-0.000375163,0.010036702,-0.070439510,9.812024117
1784245515.088342,-0.006301595,-0.001733619,-0.618555009,-0.000809692,-0.000977293,-0.000217498,0.009268707,-0.059680127,9.812541008
1784245515.090332,-0.006303189,-0.001731696,-0.618552148,-0.001278063,-0.000682111,0.000225545,0.031111963,-0.035254631,9.803751945
1784245515.092328,-0.006300930,-0.001729503,-0.618551910,-0.001000430,-0.000130656,0.000370636,0.010738699,-0.050614145,9.795115471
1784245515.094325,-0.006305447,-0.001728078,-0.618551970,-0.000996963,0.000238436,0.000277267,0.007042754,-0.022328131,9.793500900
1784245515.096327,-0.006306715,-0.001732552,-0.618553638,-0.001307328,-0.000028512,0.000079403,0.043320827,-0.029805394,9.771517754
1784245515.098330,-0.006302978,-0.001730421,-0.618551195,-0.000972815,-0.000176135,0.000116931,0.059911713,-0.029700523,9.789916039
1784245515.100329,-0.006298369,-0.001719547,-0.618542910,-0.000140887,0.000749838,0.000818879,0.038470943,-0.058954407,9.783880234
1784245515.102332,-0.006297817,-0.001716507,-0.618537366,0.000195250,0.001588085,0.001529294,0.020271964,-0.081373312,9.755922318
1784245515.104333,-0.006300709,-0.001712183,-0.618536353,-0.000069799,0.001757245,0.001556155,0.048648570,-0.069532827,9.803996086
1784245515.106373,-0.006299867,-0.001709592,-0.618536711,-0.000117685,0.001845347,0.001178619,0.035118796,-0.075171120,9.802154541
1784245515.108348,-0.006291389,-0.001714938,-0.618540049,0.000618517,0.001255014,0.000612337,-0.004253683,-0.026454523,9.827087402
1784245515.110341,-0.006290358,-0.001719673,-0.618545234,0.001094944,0.000233627,-0.000128516,0.000567473,-0.036337934,9.822096825
1784245515.112366,-0.006292663,-0.001720562,-0.618551731,0.000631308,-0.000284382,-0.000884870,0.038709689,-0.038427688,9.795220375
1784245515.114345,-0.006299633,-0.001723619,-0.618550301,-0.000248743,-0.000550671,-0.000984813,0.063615769,-0.055896167,9.812616348
1784245515.116351,-0.006302614,-0.001727448,-0.618547499,-0.000854431,-0.000676920,-0.000425374,0.077445835,-0.063187726,9.804962158
1784245515.118348,-0.006299945,-0.001725835,-0.618545651,-0.000641348,-0.000452072,0.000003028,0.050281044,-0.085021421,9.773860931
1784245515.120352,-0.006298574,-0.001722883,-0.618547857,-0.000193101,-0.000019342,-0.000025906,0.045081045,-0.068501875,9.791446686
1784245515.122347,-0.006298998,-0.001726433,-0.618547976,-0.000067466,0.000082846,-0.000174853,0.005757396,-0.055773813,9.773556709
1784245515.124349,-0.006300368,-0.001726632,-0.618540049,-0.000160725,-0.000060914,0.000401100,0.017281944,-0.028773157,9.799296379
1784245515.126347,-0.006291534,-0.001723560,-0.618534803,0.000298279,0.000150448,0.001184311,-0.003534841,-0.043275513,9.796941757
1784245515.128354,-0.006281990,-0.001725999,-0.618531168,0.001373046,0.000154217,0.001466382,0.010201330,-0.056171525,9.821530342
1784245515.130350,-0.006281209,-0.001728345,-0.618533731,0.001701185,-0.000212906,0.001145582,0.035909124,-0.047759037,9.789328575
1784245515.132355,-0.006288444,-0.001729200,-0.618538558,0.000785909,-0.000338370,0.000333181,0.063923493,-0.068362162,9.800880432
1784245515.134362,-0.006291271,-0.001719308,-0.618538618,-0.000125395,0.000399835,-0.000091944,0.054003540,-0.071860701,9.806676865
1784245515.136364,-0.006288283,-0.001711284,-0.618538916,-0.000041543,0.001593636,-0.000089919,0.048574563,-0.077411704,9.777942657
1784245515.138363,-0.006286326,-0.001705688,-0.618547022,0.000343153,0.002175150,-0.000631090,0.053263627,-0.059258595,9.800031662
1784245515.140405,-0.006286900,-0.001708018,-0.618544042,0.000343111,0.001808506,-0.000813554,0.040051755,-0.076066695,9.793187141
1784245515.142368,-0.006287573,-0.001712577,-0.618540764,0.000226499,0.000961933,-0.000173663,0.000157132,-0.072403386,9.790930748
1784245515.144408,-0.006283076,-0.001713105,-0.618535757,0.000486073,0.000466607,0.000438130,0.022904472,-0.045505121,9.810850143
1784245515.146411,-0.006286103,-0.001713149,-0.618540108,0.000426047,0.000363651,0.000361352,0.039895661,-0.050651170,9.810834885
1784245515.148378,-0.006292976,-0.001710374,-0.618546367,-0.000390928,0.000517626,-0.000452708,0.022166463,-0.031266980,9.826184273
1784245515.150373,-0.006298606,-0.001712915,-0.618545055,-0.001134167,0.000395076,-0.000668198,0.075706214,-0.059892267,9.785702705
1784245515.152383,-0.006297975,-0.001722270,-0.618546367,-0.001212999,-0.000313266,-0.000484909,0.050188299,-0.055053156,9.781225204
1784245515.154380,-0.006295105,-0.001726228,-0.618543327,-0.000693168,-0.000926280,-0.000224646,0.013358301,-0.055274516,9.815711021
1784245515.156383,-0.006292521,-0.001721439,-0.618542016,-0.000180709,-0.000673324,0.000131529,0.005980142,-0.036994420,9.778609276
1784245515.158378,-0.006293830,-0.001720314,-0.618545592,-0.000091867,-0.000141229,-0.000058810,-0.005759762,-0.041073728,9.806367874
1784245515.160376,-0.006296231,-0.001719177,-0.618542492,-0.000318864,0.000050776,-0.000072661,0.014269222,-0.055584528,9.794637680
1784245515.162380,-0.006296098,-0.001715616,-0.618534029,-0.000430190,0.000347080,0.000730538,0.037715085,-0.083662830,9.794480324
1784245515.164388,-0.006297941,-0.001711037,-0.618528247,-0.000473031,0.000795404,0.001497533,0.033688106,-0.081495278,9.811976433
1784245515.166390,-0.006300993,-0.001711766,-0.618532479,-0.000594698,0.000930300,0.001188583,0.067100666,-0.030526267,9.767051697
1784245515.168389,-0.006304732,-0.001714594,-0.618538558,-0.000813435,0.000530865,0.000166257,0.040364157,-0.048474345,9.818919182
1784245515.170389,-0.006307669,-0.001715838,-0.618541002,-0.001046768,0.000113908,-0.000452954,0.030711122,-0.068813562,9.798155785
1784245515.172393,-0.006313954,-0.001713260,-0.618539214,-0.001375849,0.000258645,-0.000378294,0.024817917,-0.074076198,9.792737007
1784245515.174392,-0.006317668,-0.001711048,-0.618538201,-0.001667849,0.000597199,-0.000088016,0.043955553,-0.085690960,9.816441536
1784245515.176391,-0.006320066,-0.001711565,-0.618542314,-0.001538250,0.000644584,-0.000274257,0.005797792,-0.086155437,9.824472427
1784245515.178391,-0.006320841,-0.001707794,-0.618539155,-0.001244145,0.000784060,-0.000264616,0.025402542,-0.061256416,9.816132545
1784245515.180389,-0.006318699,-0.001706176,-0.618538678,-0.000813094,0.000935445,0.000049911,0.013579249,-0.074504435,9.810208321
1784245515.182401,-0.006320440,-0.001704359,-0.618542016,-0.000481712,0.000886204,-0.000155065,0.019742554,-0.047656998,9.804108620
1784245515.184398,-0.006321755,-0.001700051,-0.618535638,-0.000474340,0.001030413,0.000093384,0.025549835,-0.052798841,9.760593414
1784245515.186402,-0.006320857,-0.001701533,-0.618531227,-0.000381392,0.000987320,0.000797193,0.032853369,-0.040967584,9.784886360
1784245515.188405,-0.006318140,-0.001695678,-0.618529677,-0.000040539,0.001062969,0.000986008,0.037739564,-0.006668787,9.804389000
1784245515.190406,-0.006315936,-0.001688757,-0.618529975,0.000304601,0.001641003,0.000801692,0.005764775,-0.016909912,9.789946556
1784245515.192404,-0.006309384,-0.001683844,-0.618532419,0.000682069,0.001954402,0.000396243,0.050025012,-0.030504933,9.794833183
1784245515.194404,-0.006307230,-0.001683552,-0.618538141,0.000953046,0.001734986,-0.000262659,0.058624174,-0.060731884,9.808546066
1784245515.196405,-0.006309946,-0.001686139,-0.618542492,0.000641024,0.001257425,-0.000871605,0.002067597,-0.063813373,9.776640892
1784245515.198416,-0.006313702,-0.001687905,-0.618541777,0.000013372,0.000767193,-0.000883401,0.021787772,-0.064651027,9.795931816
1784245515.200412,-0.006315290,-0.001685451,-0.618538499,-0.000352584,0.000603861,-0.000367267,0.036155220,-0.063548349,9.804022789
1784245515.202411,-0.006319780,-0.001690599,-0.618533850,-0.000621586,0.000321247,0.000278593,0.040395465,-0.046606187,9.808169365
1784245515.204416,-0.006318498,-0.001694541,-0.618532896,-0.000622966,-0.000317716,0.000584525,0.038098086,-0.051460505,9.801860809
1784245515.206413,-0.006309612,-0.001697494,-0.618536472,0.000210778,-0.000626771,0.000249985,0.042611811,-0.050091438,9.790217400
1784245515.208420,-0.006306888,-0.001693232,-0.618540764,0.000915461,-0.000292776,-0.000351491,0.036274623,-0.053690031,9.803637505
1784245515.210418,-0.006306888,-0.001693232,-0.618540764,0.000927704,0.000459031,-0.000643208,0.031808428,-0.051847056,9.804542542
1784245515.212421,-0.006285693,-0.001696184,-0.618526757,0.001212008,0.000779459,-0.000537405,0.012053101,-0.052502733,9.806312561
1784245515.214422,-0.006285693,-0.001696184,-0.618526757,0.001663709,0.000267182,0.000312360,0.024601979,-0.054401495,9.798690796
1784245515.216420,-0.006285306,-0.001696652,-0.618526757,0.001458462,-0.000384594,0.001314110,0.001123885,-0.064167537,9.828195572
1784245515.218420,-0.006285306,-0.001696652,-0.618526757,0.000950543,-0.000689896,0.001448539,0.005633175,-0.062833451,9.821483612
1784245515.220425,-0.006285306,-0.001696652,-0.618526757,0.000513714,-0.000442499,0.001368463,0.022223186,-0.064761706,9.810728073
1784245515.222424,-0.006286033,-0.001696632,-0.618526757,0.000070708,-0.000046376,0.001545806,0.034739215,-0.031761453,9.810053825
1784245515.224424,-0.006286033,-0.001696632,-0.618526757,-0.000382969,-0.000205155,0.001473728,0.026817866,-0.057079859,9.793295860
1784245515.226428,-0.006286418,-0.001697521,-0.618526757,-0.000482008,-0.000734977,0.001040193,0.038755998,-0.072815157,9.779307365
1784245515.228439,-0.006286418,-0.001697521,-0.618526757,-0.000227908,-0.000982353,0.001032538,0.045702726,-0.017799603,9.780115128
1784245515.230432,-0.006286418,-0.001697521,-0.618526757,0.000307311,-0.000396912,0.001771908,0.028159544,-0.057132073,9.798228264
1784245515.232433,-0.006285652,-0.001698521,-0.618526757,0.000699012,0.000121655,0.001968063,-0.002801826,-0.055121597,9.823317528
1784245515.234470,-0.006285652,-0.001698521,-0.618526757,0.000129115,-0.000188009,0.001239283,0.004458021,-0.049714047,9.805873871
1784245515.236460,-0.006284584,-0.001697993,-0.618526757,-0.000448848,-0.000447063,0.000581568,0.027308915,-0.054724973,9.776274681
1784245515.238446,-0.006284584,-0.001697993,-0.618526757,-0.000229706,0.000146291,0.000595202,0.035881620,-0.049191948,9.801874161
1784245515.240469,-0.006284584,-0.001697993,-0.618526757,-0.000159444,0.000739619,0.000912771,0.057883210,-0.085322663,9.802559853
1784245515.242450,-0.006285840,-0.001699671,-0.618526757,-0.000600558,0.000711504,0.000761681,0.053992033,-0.071546286,9.825508118
1784245515.244445,-0.006285840,-0.001699671,-0.618526757,-0.000612217,0.000868672,0.000490629,0.040463176,-0.078798361,9.798549652
1784245515.246471,-0.006287071,-0.001700961,-0.618526816,-0.000009502,0.000705149,0.000527267,0.031542074,-0.037433416,9.794322968
1784245515.248457,-0.006287071,-0.001700961,-0.618526816,0.000353637,0.000175075,0.000190510,0.037527353,-0.023338741,9.817732811
1784245515.250451,-0.006287071,-0.001700961,-0.618526816,-0.000610609,-0.000126275,0.000015914,0.009426937,-0.049109932,9.774948120
1784245515.252456,-0.006287521,-0.001701083,-0.618526816,-0.001841037,-0.000594536,0.000283638,0.017971450,-0.046636324,9.789767265
1784245515.254450,-0.006287521,-0.001701083,-0.618526816,-0.002188316,-0.000416946,0.000049190,0.017458873,-0.052403197,9.782555580
1784245515.256493,-0.006287291,-0.001701816,-0.618526816,-0.002128063,0.000214132,-0.000298827,0.070957653,-0.082972944,9.763581276
1784245515.258458,-0.006287291,-0.001701816,-0.618526816,-0.001889132,0.000329446,-0.000499808,0.071446121,-0.078206927,9.785581589
1784245515.260462,-0.006287291,-0.001701816,-0.618526816,-0.001949909,0.000433983,-0.000646479,0.000950961,-0.080932505,9.791773796
1784245515.262464,-0.006288569,-0.001701788,-0.618526816,-0.001851892,0.000362616,-0.000428990,0.004459751,-0.048484631,9.822023392
1784245515.264470,-0.006288569,-0.001701788,-0.618526816,-0.000790826,-0.000079577,-0.000018429,0.020090213,-0.054944586,9.820202827
1784245515.266460,-0.006287717,-0.001702414,-0.618526816,0.000488176,-0.000425166,0.000281335,0.039406624,-0.052990153,9.825613022
1784245515.268486,-0.006287717,-0.001702414,-0.618526816,0.000556287,-0.000254405,0.000627054,0.031815048,-0.051389553,9.803199768
1784245515.270466,-0.006287717,-0.001702414,-0.618526816,-0.000002877,0.000399197,0.000772577,0.015692433,-0.048914157,9.799164772
1784245515.272472,-0.006287847,-0.001702534,-0.618526816,-0.000174452,0.000804674,0.000246756,0.012216526,-0.038244285,9.817163467
1784245515.274462,-0.006287847,-0.001702534,-0.618526816,-0.000087774,0.000559241,-0.000373649,0.030045206,-0.051169418,9.775403976
1784245515.276463,-0.006286895,-0.001703012,-0.618526816,-0.000170977,0.000290145,-0.000519462,0.048497308,-0.044079144,9.816264153
1784245515.278470,-0.006286895,-0.001703012,-0.618526816,-0.000518434,0.000383421,-0.000335701,0.031732127,-0.058528308,9.799119949
1784245515.280474,-0.006286895,-0.001703012,-0.618526816,-0.000333772,0.000789078,-0.000271463,0.043191291,-0.076523095,9.788703918
1784245515.282468,-0.006287633,-0.001704358,-0.618526816,0.000416122,0.001097176,-0.000422188,0.055237789,-0.080055714,9.822765350
1784245515.284467,-0.006287633,-0.001704358,-0.618526816,0.001051291,0.001211783,-0.000388046,0.036691908,-0.056780636,9.796445847
1784245515.286467,-0.006286964,-0.001704844,-0.618526816,0.001080101,0.001334953,-0.000201176,0.031734426,-0.059725937,9.778489113
1784245515.288483,-0.006286964,-0.001704844,-0.618526816,0.000702628,0.001374648,-0.000011800,-0.010108003,-0.066568479,9.807994843
1784245515.290477,-0.006286964,-0.001704844,-0.618526816,0.000517367,0.001383382,0.000324759,0.013287461,-0.062317889,9.798180580
1784245515.292481,-0.006287932,-0.001704552,-0.618526816,0.000578526,0.001188089,0.000821852,0.028808203,-0.040969893,9.792504311
1784245515.294475,-0.006287932,-0.001704552,-0.618526816,0.000459762,0.000906022,0.000785801,0.010181710,-0.057947472,9.819276810
1784245515.296492,-0.006287735,-0.001703517,-0.618526816,0.000178835,0.001029057,0.000363920,-0.001845272,-0.051018775,9.811688423
1784245515.298478,-0.006287735,-0.001703517,-0.618526816,-0.000042209,0.001368196,0.000491191,0.045428950,-0.038602948,9.807778358
1784245515.300500,-0.006287735,-0.001703517,-0.618526816,0.000008085,0.001038551,0.000328304,0.034390345,-0.024483399,9.795306206
1784245515.302485,-0.006285580,-0.001704789,-0.618526816,0.000207765,0.000744977,-0.000169484,0.030117143,-0.042496361,9.815808296
1784245515.304488,-0.006285580,-0.001704789,-0.618526816,0.000588346,0.000633804,-0.000079876,0.036341086,-0.047491711,9.813989639
1784245515.306494,-0.006284242,-0.001705041,-0.618526757,0.000610796,0.000341232,-0.000286959,0.023542827,-0.066608950,9.816097260
1784245515.308485,-0.006284242,-0.001705041,-0.618526757,-0.000436884,0.000321333,-0.000727259,0.019402193,-0.075875364,9.803479195
1784245515.310517,-0.006284242,-0.001705041,-0.618526757,-0.001417493,0.000273071,-0.001030495,0.008140625,-0.042541787,9.798751831
1784245515.312495,-0.006283795,-0.001704595,-0.618526757,-0.001935930,-0.000051743,-0.001324909,0.012611422,-0.043943159,9.798746109
1784245515.314496,-0.006283795,-0.001704595,-0.618526757,-0.002155290,-0.000633830,-0.001252231,0.012335968,-0.032032877,9.762508392
1784245515.316494,-0.006280904,-0.001703401,-0.618526757,-0.001354850,-0.000853012,-0.001070256,0.017410550,-0.018031629,9.800709724
1784245515.318495,-0.006280904,-0.001703401,-0.618526757,-0.000093901,-0.000139692,-0.000660971,0.033308513,-0.040922455,9.777713776
1784245515.320576,-0.006280904,-0.001703401,-0.618526757,0.000118790,0.000368016,-0.000111274,0.025115630,-0.052678619,9.744454384
1784245515.322503,-0.006280489,-0.001704547,-0.618526757,-0.000506449,0.000459186,0.000141968,0.016367953,-0.068508759,9.781107903
1784245515.324508,-0.006280489,-0.001704547,-0.618526757,-0.000342291,0.000881562,-0.000103824,0.005942160,-0.076099977,9.796291351
1784245515.326507,-0.006280837,-0.001704425,-0.618526757,0.000501056,0.001165447,-0.000606796,0.007114158,-0.052464917,9.809895515
1784245515.328507,-0.006280837,-0.001704425,-0.618526757,0.000971224,0.001409919,-0.000991277,0.005504342,-0.038418405,9.790703773
1784245515.330504,-0.006280837,-0.001704425,-0.618526757,0.000969925,0.001590947,-0.001145534,0.009434937,-0.048236262,9.778092384
1784245515.332510,-0.006280499,-0.001703525,-0.618526757,0.000563632,0.001025226,-0.001262440,0.021162197,-0.041825309,9.800561905
1784245515.334513,-0.006280499,-0.001703525,-0.618526757,0.000191522,0.000219160,-0.001548490,0.016072661,-0.055134129,9.791055679
1784245515.336511,-0.006280311,-0.001703407,-0.618526757,0.000269429,0.000254727,-0.001193244,0.038224280,-0.040738054,9.805963516
1784245515.338508,-0.006280311,-0.001703407,-0.618526757,0.000654297,0.000528978,-0.000914495,0.027687244,-0.059744146,9.788348198
1784245515.340516,-0.006280311,-0.001703407,-0.618526757,0.000530516,0.000016698,-0.001293696,0.017597785,-0.039148781,9.808644295
1784245515.342518,-0.006279260,-0.001703479,-0.618526757,-0.000010191,-0.000120412,-0.001118045,0.037644550,-0.051492907,9.807240486
1784245515.344519,-0.006279260,-0.001703479,-0.618526757,-0.000420938,0.000010556,-0.000447272,0.005043304,-0.078531414,9.761754036
1784245515.346519,-0.006279920,-0.001702360,-0.618526757,-0.000923627,-0.000358603,-0.000160102,0.013903090,-0.049253270,9.787056923
1784245515.348517,-0.006279920,-0.001702360,-0.618526757,-0.001305397,-0.000410930,-0.000021927,0.043205164,-0.038418408,9.785810471
1784245515.350521,-0.006279920,-0.001702360,-0.618526757,-0.001290325,0.000030336,0.000641475,0.018378155,-0.013436326,9.782807350
1784245515.352523,-0.006277893,-0.001702487,-0.618526757,-0.001370847,0.000332457,0.001503591,0.003720067,-0.036285970,9.809098244
1784245515.354518,-0.006277893,-0.001702487,-0.618526757,-0.001288358,0.000139591,0.001714365,0.021625800,-0.041713413,9.783974648
1784245515.356530,-0.006277487,-0.001702820,-0.618526757,-0.000556813,0.000068274,0.001147292,0.029055955,-0.095146537,9.786776543
1784245515.358527,-0.006277487,-0.001702820,-0.618526757,0.000412441,0.000157823,0.000374631,0.023187378,-0.098188438,9.784062386
1784245515.360528,-0.006277487,-0.001702820,-0.618526757,0.000861567,-0.000134045,-0.000208695,0.015274215,-0.084636576,9.782795906
1784245515.362532,-0.006278627,-0.001703473,-0.618526757,0.000630108,-0.000125981,-0.000416677,0.002520501,-0.063380711,9.777989388
1784245515.364528,-0.006278627,-0.001703473,-0.618526757,-0.000006145,0.000171151,-0.000278482,0.033867747,-0.068729796,9.780673981
1784245515.366529,-0.006278925,-0.001704532,-0.618526757,-0.000385448,-0.000119158,0.000126383,0.044361170,-0.051283810,9.828768730
1784245515.368533,-0.006278925,-0.001704532,-0.618526757,-0.000480910,-0.000279927,0.000638515,0.007448359,-0.025510948,9.799306870
1784245515.370534,-0.006278925,-0.001704532,-0.618526757,-0.000603065,-0.000304822,0.000741250,0.017315082,-0.062048849,9.816119194
1784245515.372535,-0.006277858,-0.001704607,-0.618526757,-0.000351577,-0.000649397,0.000616244,0.015565560,-0.058426268,9.813899994
1784245515.374547,-0.006277858,-0.001704607,-0.618526757,-0.000074141,-0.000524113,0.000635736,0.034159891,-0.042513136,9.810881615
1784245515.376707,-0.006276754,-0.001705540,-0.618526757,0.000620203,0.000009835,0.000978117,0.027639784,-0.060929410,9.829138756
1784245515.378599,-0.006276754,-0.001705540,-0.618526757,0.001630015,0.000195163,0.001263307,0.003486207,-0.057584606,9.780269623
1784245515.380608,-0.006276754,-0.001705540,-0.618526757,0.001785536,0.000069871,0.000909087,0.033555191,-0.056301963,9.797789574
1784245515.382581,-0.006276827,-0.001705845,-0.618526757,0.001318688,-0.000089248,0.000992726,0.002127388,-0.057262488,9.800444603
1784245515.384562,-0.006276827,-0.001705845,-0.618526757,0.001501613,-0.000161565,0.001830958,0.002848553,-0.034854282,9.798347473
1784245515.386593,-0.006275781,-0.001705326,-0.618526757,0.002053491,0.000015892,0.002335238,-0.000118483,-0.058062878,9.791021347
1784245515.388598,-0.006275781,-0.001705326,-0.618526757,0.001806236,0.000191156,0.002214426,0.031056317,-0.040557027,9.793404579
1784245515.390577,-0.006275781,-0.001705326,-0.618526757,0.001208146,0.000055345,0.001799351,0.026724825,-0.028734904,9.776889801
1784245515.392583,-0.006273818,-0.001705166,-0.618526757,0.000933382,-0.000189874,0.001586673,0.017708207,-0.030577110,9.800181389
1784245515.394569,-0.006273818,-0.001705166,-0.618526757,0.001152229,-0.000102380,0.001325577,0.029881567,-0.062187571,9.812992096
1784245515.396563,-0.006274101,-0.001706226,-0.618526876,0.001274783,-0.000092574,0.001189168,0.034955382,-0.051839601,9.797820091
1784245515.398569,-0.006274101,-0.001706226,-0.618526876,0.000689211,-0.000530790,0.001519485,0.037645184,-0.051893175,9.800512314
1784245515.400602,-0.006274101,-0.001706226,-0.618526876,0.000517776,-0.000742569,0.001400086,0.055814113,-0.069732919,9.819246292
1784245515.402595,-0.006274885,-0.001707811,-0.618526876,0.000921414,-0.000629238,0.000773881,0.051252682,-0.077557489,9.793636322
1784245515.404586,-0.006274885,-0.001707811,-0.618526876,0.000634885,-0.000685629,0.000514570,0.014513765,-0.072196640,9.799015999
1784245515.406580,-0.006275253,-0.001707029,-0.618526876,-0.000010179,-0.000903214,0.000522559,-0.001709240,-0.039813381,9.810863495
1784245515.408572,-0.006275253,-0.001707029,-0.618526876,-0.000407394,-0.001061510,0.000366029,0.007172958,-0.049163859,9.786602974
1784245515.410569,-0.006275253,-0.001707029,-0.618526876,-0.000498126,-0.001197078,0.000270253,0.016998090,-0.052492835,9.796005249
1784245515.412570,-0.006274613,-0.001706272,-0.618526876,-0.000439275,-0.001301280,0.000868566,0.021100858,-0.046362154,9.808602333
1784245515.414575,-0.006274613,-0.001706272,-0.618526876,-0.000776049,-0.001285536,0.001701478,0.048447981,-0.050547365,9.780804634
1784245515.416575,-0.006274429,-0.001708230,-0.618526876,-0.001123490,-0.000801666,0.001769162,0.032699101,-0.053532753,9.787943840
1784245515.418574,-0.006274429,-0.001708230,-0.618526876,-0.000688388,-0.000471051,0.001241782,0.019158617,-0.061687116,9.761876106
1784245515.420572,-0.006274429,-0.001708230,-0.618526876,0.000508077,-0.000868550,0.000674914,0.026762448,-0.062785700,9.776671410
1784245515.422580,-0.006274942,-0.001707739,-0.618526876,0.001634469,-0.001034101,0.000136690,0.021254314,-0.036640190,9.764281273
1784245515.424581,-0.006274942,-0.001707739,-0.618526876,0.001248373,-0.000622262,0.000160840,0.024016103,-0.028830774,9.795267105
1784245515.426583,-0.006273478,-0.001707833,-0.618526876,-0.000061514,0.000043742,0.001009221,0.014900956,-0.077145860,9.801225662
1784245515.428578,-0.006273478,-0.001707833,-0.618526876,-0.000206251,0.000019755,0.001048049,0.031257015,-0.061162639,9.792375565
1784245515.430581,-0.006273478,-0.001707833,-0.618526876,0.000372490,-0.000414872,0.000389129,0.032152805,-0.061186846,9.794171333
1784245515.432589,-0.006274174,-0.001708632,-0.618526876,0.000435410,-0.000370188,0.000325748,0.012789393,-0.030380320,9.781348228
1784245515.434584,-0.006274174,-0.001708632,-0.618526876,0.000285038,-0.000101199,0.000226425,0.022951022,-0.042706069,9.795178413
1784245515.436587,-0.006273347,-0.001708676,-0.618526876,0.000375560,0.000148147,-0.000098040,0.026145918,-0.036646560,9.819428444
1784245515.438585,-0.006273347,-0.001708676,-0.618526876,-0.000048632,0.000189977,-0.000155450,0.052493267,-0.049328361,9.791128159
1784245515.440588,-0.006273347,-0.001708676,-0.618526876,-0.000791209,0.000296014,-0.000017021,0.047876325,-0.058401790,9.815276146
1784245515.442592,-0.006273365,-0.001709964,-0.618526876,-0.001045435,0.000171181,0.000245618,0.021093493,-0.047636088,9.798729897
1784245515.444602,-0.006273365,-0.001709964,-0.618526876,-0.001309126,-0.000477219,0.000487873,0.032418195,-0.038423505,9.805974007
1784245515.446594,-0.006272884,-0.001710990,-0.618526876,-0.001697037,-0.000817150,-0.000039241,0.042216163,-0.045208998,9.797421455
1784245515.448595,-0.006272884,-0.001710990,-0.618526876,-0.001957083,-0.000703606,-0.000655863,0.025557026,-0.086684659,9.800277710
1784245515.450594,-0.006272884,-0.001710990,-0.618526876,-0.001893697,-0.000571834,-0.000743355,0.023159543,-0.062844627,9.791461945
1784245515.452596,-0.006273168,-0.001711747,-0.618526876,-0.000944050,-0.000679366,-0.001492759,0.008015457,-0.091251291,9.780953407
1784245515.454597,-0.006273168,-0.001711747,-0.618526876,0.000289446,-0.000835318,-0.002074367,0.011458239,-0.065808624,9.788293839
1784245515.456618,-0.006272394,-0.001711262,-0.618526876,0.000574174,-0.000572627,-0.001143056,0.028248502,-0.049945619,9.795584679
1784245515.458605,-0.006272394,-0.001711262,-0.618526876,0.000275288,-0.000341018,-0.000266615,0.024639664,-0.051672399,9.792879105
1784245515.460610,-0.006272394,-0.001711262,-0.618526876,0.000058119,-0.000275868,-0.000350786,0.023939105,-0.071891658,9.802164078
1784245515.462611,-0.006272852,-0.001710980,-0.618526876,-0.000369587,-0.000046173,-0.000303206,0.051792134,-0.069957443,9.795030594
1784245515.464615,-0.006272852,-0.001710980,-0.618526876,-0.000824936,0.000229928,-0.000141804,0.046354767,-0.073548451,9.805761337
1784245515.466619,-0.006274002,-0.001712639,-0.618526876,-0.001032891,0.000125072,-0.000242354,0.043222949,-0.071004853,9.831778526
1784245515.468614,-0.006274002,-0.001712639,-0.618526876,-0.001204804,-0.000132083,-0.000154178,0.044245966,-0.060703713,9.830500603
1784245515.470617,-0.006274002,-0.001712639,-0.618526876,-0.001347123,-0.000211682,-0.000017161,0.011531909,-0.021153027,9.809203148
1784245515.472618,-0.006271670,-0.001712837,-0.618526876,-0.001359905,-0.000251875,-0.000043465,0.008916738,-0.016457682,9.783676147
1784245515.474626,-0.006271670,-0.001712837,-0.618526876,-0.001259331,-0.000191237,-0.000242470,0.060233481,-0.038408313,9.816761017
1784245515.476631,-0.006270436,-0.001715423,-0.618526876,-0.001403773,-0.000269161,-0.000641195,0.047077429,-0.014754253,9.790448189
1784245515.478632,-0.006270436,-0.001715423,-0.618526876,-0.001456599,-0.000523711,-0.001059043,0.065279938,-0.069513433,9.771285057
1784245515.480629,-0.006270436,-0.001715423,-0.618526876,-0.001042513,-0.000730035,-0.001687771,0.054299463,-0.085635595,9.789999962
1784245515.482633,-0.006272179,-0.001718022,-0.618526876,-0.000592627,-0.000557733,-0.002179863,0.037732519,-0.082309403,9.793144226
1784245515.484633,-0.006272179,-0.001718022,-0.618526876,-0.000299491,-0.000182839,-0.002049614,0.010339296,-0.119320117,9.817538261
1784245515.486637,-0.006274885,-0.001717877,-0.618526876,0.000072846,-0.000183978,-0.001540812,0.032020628,-0.072767071,9.784681320
1784245515.488638,-0.006274885,-0.001717877,-0.618526876,0.000466570,-0.000511553,-0.000937108,0.034129668,-0.083178416,9.795825958
1784245515.490643,-0.006274885,-0.001717877,-0.618526876,0.000789639,-0.000750357,-0.000533363,0.038897552,-0.059945103,9.796425819
1784245515.492644,-0.006275269,-0.001718358,-0.618526876,0.000888004,-0.000255770,-0.000416250,0.034050908,-0.051478714,9.811719894
1784245515.494641,-0.006275269,-0.001718358,-0.618526876,0.000653135,0.000214947,-0.000186392,0.031887442,-0.043523390,9.831047058
1784245515.496643,-0.006274043,-0.001718970,-0.618526876,0.000550693,0.000215244,-0.000038794,0.025833122,-0.026652122,9.800662994
1784245515.498644,-0.006274043,-0.001718970,-0.618526876,0.000221223,0.000038770,-0.000022919,0.035791561,-0.058008090,9.781641960
1784245515.500644,-0.006274043,-0.001718970,-0.618526876,-0.000546496,-0.000320303,0.000347559,0.026386611,-0.052883837,9.834119797
1784245515.502651,-0.006272946,-0.001719842,-0.618526876,-0.001142253,-0.000634825,0.000508785,0.017486265,-0.049350146,9.794233322
1784245515.504658,-0.006272946,-0.001719842,-0.618526876,-0.001429259,-0.000701993,0.000374647,-0.004876454,-0.041196518,9.822061539
1784245515.506654,-0.006271856,-0.001719078,-0.618526876,-0.000893774,-0.000417964,0.000442433,0.053360298,-0.049984954,9.818921089
1784245515.508656,-0.006271856,-0.001719078,-0.618526876,0.000437747,-0.000147878,0.000277040,0.047130771,-0.045844197,9.814907074
1784245515.510655,-0.006271856,-0.001719078,-0.618526876,0.001045492,-0.000106443,-0.000296183,0.033797506,-0.034936555,9.817205429
1784245515.512656,-0.006270496,-0.001720337,-0.618526876,0.000548948,-0.000011469,-0.000823212,0.028616702,-0.057071056,9.788814545
1784245515.514678,-0.006270496,-0.001720337,-0.618526876,0.000385854,0.000107471,-0.000863570,0.025254017,-0.075397208,9.788693428
1784245515.516655,-0.006270793,-0.001720978,-0.618526876,0.000283255,0.000119179,-0.000442067,0.053592868,-0.071149431,9.770365715
1784245515.518684,-0.006270793,-0.001720978,-0.618526876,-0.000246591,-0.000120370,0.000025355,0.045200728,-0.059857070,9.772670746
1784245515.520663,-0.006270793,-0.001720978,-0.618526876,-0.000181503,-0.000407074,0.000257648,0.033277776,-0.079970770,9.787326813
1784245515.522663,-0.006271139,-0.001721851,-0.618526876,0.000103413,-0.000437176,0.000211622,0.005104066,-0.109157503,9.783974648
1784245515.524663,-0.006271139,-0.001721851,-0.618526876,-0.000016839,-0.000636669,0.000357101,0.037237741,-0.083072759,9.838419914
1784245515.526661,-0.006271741,-0.001722829,-0.618526876,-0.000360587,-0.000996997,0.000750304,0.037903193,-0.067993730,9.795926094
1784245515.528706,-0.006271741,-0.001722829,-0.618526876,-0.000373761,-0.001151400,0.000604485,0.023311689,-0.048675220,9.814867020
1784245515.530678,-0.006271741,-0.001722829,-0.618526876,-0.000363048,-0.001030885,0.000625950,0.022767182,-0.055909984,9.825130463
1784245515.532676,-0.006271373,-0.001723301,-0.618526876,-0.000611280,-0.001140313,0.000965014,0.012545763,-0.050135128,9.787497520
1784245515.534673,-0.006271373,-0.001723301,-0.618526876,-0.000211994,-0.001134741,0.000960690,0.019636640,-0.016576953,9.844210625
1784245515.536670,-0.006269884,-0.001723672,-0.618526876,0.000300706,-0.000613089,0.001285709,0.047623254,-0.043883227,9.790261269
1784245515.538683,-0.006269884,-0.001723672,-0.618526876,0.000400325,-0.000376990,0.001990592,0.034914937,-0.055401035,9.794658661
1784245515.540676,-0.006269884,-0.001723672,-0.618526876,0.000508147,-0.000347707,0.002232576,0.027493449,-0.074647680,9.805288315
1784245515.542685,-0.006270332,-0.001723832,-0.618526876,0.000535189,-0.000248842,0.001596877,0.048781261,-0.059569571,9.788816452
1784245515.544681,-0.006270332,-0.001723832,-0.618526876,0.000099443,-0.000600791,0.000625241,0.038190268,-0.044248614,9.795630455
1784245515.546682,-0.006270072,-0.001724871,-0.618526876,-0.000670172,-0.000835304,0.000079283,0.010664813,-0.057276327,9.787001610
1784245515.548688,-0.006270072,-0.001724871,-0.618526876,-0.001296172,-0.000357579,-0.000296879,0.017028408,-0.051037662,9.780323029
1784245515.550684,-0.006270072,-0.001724871,-0.618526876,-0.001245466,0.000091309,-0.000298765,0.029268527,-0.040073361,9.791614532
1784245515.552685,-0.006268702,-0.001725501,-0.618526876,-0.000743925,0.000014338,0.000185747,0.050234511,-0.050230511,9.796051979
1784245515.554688,-0.006268702,-0.001725501,-0.618526876,-0.000669927,-0.000271475,0.000356448,0.029954473,-0.055938374,9.816170692
1784245515.556751,-0.006268713,-0.001726153,-0.618526876,-0.001121288,-0.000401799,0.000408226,0.019665053,-0.051510945,9.842191696
1784245515.558704,-0.006268713,-0.001726153,-0.618526876,-0.001303104,-0.000299780,0.000357017,0.009702099,-0.062643550,9.787415504
1784245515.560695,-0.006268713,-0.001726153,-0.618526876,-0.001291441,-0.000228342,0.000536547,0.020335391,-0.071956955,9.817852974
1784245515.562695,-0.006268719,-0.001726452,-0.618526876,-0.001302089,-0.000161305,0.001190888,0.019491553,-0.068685733,9.800388336
1784245515.564695,-0.006268719,-0.001726452,-0.618526876,-0.000786885,-0.000331553,0.001251987,0.014676515,-0.019137889,9.835221291
1784245515.566702,-0.006266851,-0.001726366,-0.618526876,-0.000593807,-0.000684834,0.000843635,0.025206961,-0.041826181,9.793392181
1784245515.568707,-0.006266851,-0.001726366,-0.618526876,-0.000666811,-0.000581457,0.000800551,0.029382050,-0.067446075,9.797266006
1784245515.570706,-0.006266851,-0.001726366,-0.618526876,-0.000264176,-0.000133745,0.000880274,0.059586551,-0.018587951,9.802989006
1784245515.572703,-0.006264778,-0.001728039,-0.618526876,-0.000238197,0.000625168,0.001283323,0.040808998,-0.050942112,9.787072182
1784245515.574706,-0.006264778,-0.001728039,-0.618526876,-0.000456145,0.001053371,0.001774438,0.017642776,-0.071925640,9.818297386
1784245515.576709,-0.006265322,-0.001728198,-0.618526876,-0.000078210,0.000714985,0.001569834,0.015979098,-0.062762186,9.792799950
1784245515.578706,-0.006265322,-0.001728198,-0.618526876,0.000739905,0.000411169,0.001006134,0.034852616,-0.060350861,9.797766685
1784245515.580706,-0.006265322,-0.001728198,-0.618526876,0.000904892,0.000481924,0.000686686,0.027506121,-0.036552522,9.803739548
1784245515.582709,-0.006263729,-0.001729414,-0.618526876,-0.000003510,0.000706993,0.000381096,0.013512275,-0.044332668,9.788881302
1784245515.584710,-0.006263729,-0.001729414,-0.618526876,-0.000739666,0.000621428,-0.000113808,0.061632119,-0.034768742,9.806473732
1784245515.586715,-0.006262543,-0.001731851,-0.618526876,-0.001044968,0.000213732,-0.000331484,0.052121904,-0.043038439,9.789373398
1784245515.588717,-0.006262543,-0.001731851,-0.618526876,-0.001144093,-0.000355473,-0.000346964,0.059764054,-0.041808188,9.791631699
1784245515.590717,-0.006262543,-0.001731851,-0.618526876,-0.001322570,-0.000588332,-0.000465708,0.033756245,-0.038504351,9.814942360
1784245515.592720,-0.006260763,-0.001732625,-0.618526876,-0.001391074,-0.000004989,-0.000168831,0.034158736,-0.043332744,9.800115585
1784245515.594717,-0.006260763,-0.001732625,-0.618526876,-0.001024159,0.000558031,0.000283546,0.007649282,-0.046519991,9.791999817
1784245515.596720,-0.006261295,-0.001732053,-0.618526876,-0.000847670,0.000810602,0.000052469,-0.000473289,-0.087205790,9.794421196
1784245515.598718,-0.006261295,-0.001732053,-0.618526876,-0.000699613,0.001120493,-0.000133187,0.021275196,-0.070417903,9.788722038
1784245515.600722,-0.006261295,-0.001732053,-0.618526876,-0.000214432,0.001266195,0.000381583,0.035398223,-0.051486418,9.810377121
1784245515.602730,-0.006260762,-0.001732883,-0.618526876,-0.000151314,0.001320253,0.000954406,0.026627583,-0.035581511,9.794778824
1784245515.604734,-0.006260762,-0.001732883,-0.618526876,-0.000793969,0.001100391,0.000827609,0.039575506,-0.039093822,9.824358940
1784245515.606734,-0.006258077,-0.001734634,-0.618526876,-0.000718431,0.000920235,0.000104177,0.044288259,-0.022779880,9.789945602
1784245515.608734,-0.006258077,-0.001734634,-0.618526876,0.000367660,0.000866764,-0.000240245,0.036793921,-0.049085800,9.785285950
1784245515.610731,-0.006258077,-0.001734634,-0.618526876,0.001204763,0.000193469,0.000137199,0.041449782,-0.034436896,9.796145439
1784245515.612732,-0.006254791,-0.001737485,-0.618526876,0.001270410,-0.000558263,-0.000059504,0.020907175,-0.062885843,9.801322937
1784245515.614740,-0.006254791,-0.001737485,-0.618526876,0.001197678,-0.000581730,-0.000344486,0.004719034,-0.027795749,9.810498238
1784245515.616739,-0.006250761,-0.001737784,-0.618526876,0.000498820,-0.000054099,-0.000189048,0.030995036,-0.045903951,9.789336205
1784245515.618741,-0.006250761,-0.001737784,-0.618526876,-0.000349309,0.000572900,-0.000887331,0.026617277,-0.072847523,9.805747032
1784245515.620738,-0.006250761,-0.001737784,-0.618526876,0.000099000,0.000911831,-0.001665762,0.048615139,-0.072633587,9.799044609
1784245515.622748,-0.006251848,-0.001739376,-0.618526876,0.000545879,0.000703919,-0.001657526,0.039648343,-0.072461359,9.790967941
1784245515.624749,-0.006251848,-0.001739376,-0.618526876,0.000161914,0.000163793,-0.001600664,0.032533959,-0.066183776,9.803105354
1784245515.626748,-0.006252514,-0.001741334,-0.618526876,-0.000136682,-0.000284031,-0.001469314,0.057666976,-0.067271285,9.784741402
1784245515.628743,-0.006252514,-0.001741334,-0.618526876,0.000044925,-0.000506022,-0.001462671,0.043484349,-0.051920220,9.793793678
1784245515.630752,-0.006252514,-0.001741334,-0.618526876,0.000125997,-0.000396979,-0.001492508,0.028572569,-0.059851028,9.801796913
1784245515.632747,-0.006253054,-0.001742752,-0.618526876,-0.000046663,0.000060947,-0.001187571,0.025806123,-0.067291960,9.782020569
1784245515.634755,-0.006253054,-0.001742752,-0.618526876,-0.000134854,0.000467792,-0.001235737,0.016129918,-0.049819011,9.799609184
1784245515.636748,-0.006253561,-0.001742264,-0.618526936,-0.000040869,0.000313485,-0.001435551,0.024451386,-0.067748122,9.785603523
1784245515.638748,-0.006253561,-0.001742264,-0.618526936,0.000063367,0.000164691,-0.001581260,0.031901993,-0.044218995,9.802797318
1784245515.640749,-0.006253561,-0.001742264,-0.618526936,-0.000200049,0.000525609,-0.001306243,0.020110121,-0.054382164,9.804066658
1784245515.642758,-0.006253336,-0.001742838,-0.618526936,-0.000374322,0.000804683,-0.000835001,0.035841346,-0.052346759,9.804543495
1784245515.644761,-0.006253336,-0.001742838,-0.618526936,0.000005335,0.000968516,-0.000816054,0.025523955,-0.051382195,9.813505173
1784245515.646756,-0.006252204,-0.001743208,-0.618526876,0.000442265,0.000852591,-0.000875515,0.043019306,-0.054475050,9.775842667
1784245515.648760,-0.006252204,-0.001743208,-0.618526876,0.000809582,0.000281745,-0.000939515,0.000627189,-0.069403775,9.809331894
1784245515.650759,-0.006252204,-0.001743208,-0.618526876,0.000625100,-0.000164460,-0.001113388,0.037933629,-0.065321855,9.798185349
1784245515.652762,-0.006252795,-0.001743664,-0.618526936,0.000186497,-0.000180692,-0.001166609,0.031079844,-0.074719116,9.808877945
1784245515.654763,-0.006252795,-0.001743664,-0.618526936,0.000430451,0.000071617,-0.001239116,0.012844571,-0.061860990,9.797735214
1784245515.656776,-0.006252175,-0.001743626,-0.618526876,0.000607627,0.000201540,-0.001310290,0.033602368,-0.053903185,9.775388718
1784245515.658766,-0.006252175,-0.001743626,-0.618526876,0.000227269,0.000083476,-0.001003098,0.058996279,-0.103795350,9.814995766
1784245515.660768,-0.006252175,-0.001743626,-0.618526876,-0.000085761,0.000033411,-0.000706961,0.036529638,-0.070219465,9.796359062
1784245515.662774,-0.006253110,-0.001746076,-0.618526936,-0.000132723,-0.000056799,-0.000852276,0.002145751,-0.054686006,9.816151619
1784245515.664777,-0.006253110,-0.001746076,-0.618526936,-0.000348530,-0.000175109,-0.000868459,0.013372741,-0.054349981,9.811681747
1784245515.666779,-0.006252838,-0.001746208,-0.618526936,-0.001230196,-0.000274251,-0.000430177,0.029430447,-0.062200900,9.815682411
1784245515.668781,-0.006252838,-0.001746208,-0.618526936,-0.001869253,-0.000075747,-0.000235741,0.038042329,-0.055142764,9.815735817
1784245515.670774,-0.006252838,-0.001746208,-0.618526936,-0.001550432,0.000620702,-0.000468865,0.048595004,-0.038039435,9.785817146
1784245515.672785,-0.006250687,-0.001748621,-0.618526876,-0.001285048,0.000874936,-0.000513687,0.042461053,-0.061007850,9.813461304
1784245515.674779,-0.006250687,-0.001748621,-0.618526876,-0.000900235,0.000461669,-0.000152231,0.018896364,-0.042378072,9.819385529
1784245515.676781,-0.006249554,-0.001747445,-0.618526876,-0.000150706,0.000083332,0.000147506,0.014473499,-0.037761476,9.808202744
1784245515.678784,-0.006249554,-0.001747445,-0.618526876,-0.000166483,-0.000329665,0.000273943,0.024749402,-0.041890379,9.803253174
1784245515.680787,-0.006249554,-0.001747445,-0.618526876,-0.000648581,-0.000644340,0.000509641,0.040963039,-0.037973493,9.790293694
1784245515.682806,-0.006248500,-0.001750116,-0.618526876,-0.000922938,-0.000495318,0.000503056,0.032735348,-0.050409738,9.789757729
1784245515.684798,-0.006248500,-0.001750116,-0.618526876,-0.001085757,-0.000367386,0.000209597,0.046651103,-0.049730200,9.795155525
1784245515.686828,-0.006247545,-0.001751738,-0.618526876,-0.000846531,-0.000515136,0.000500492,0.004119556,-0.044380084,9.749418259
1784245515.688810,-0.006247545,-0.001751738,-0.618526876,-0.000143386,-0.000249273,0.000516757,0.016233841,-0.040488131,9.810428619
1784245515.690800,-0.006247545,-0.001751738,-0.618526876,0.000247950,0.000327675,-0.000119316,0.049779240,-0.051492337,9.785284042
1784245515.692806,-0.006246584,-0.001752930,-0.618526876,0.000081331,0.000841072,-0.000294058,0.053525258,-0.075330533,9.791410446
1784245515.694802,-0.006246584,-0.001752930,-0.618526876,0.000068166,0.001248247,-0.000150222,0.011076751,-0.058788121,9.809858322
1784245515.696800,-0.006246200,-0.001752288,-0.618526876,0.000251728,0.001073148,0.000223016,0.013259894,-0.065777570,9.780673027
1784245515.698797,-0.006246200,-0.001752288,-0.618526876,0.000058377,0.000804902,0.000529717,0.036538094,-0.070152692,9.786944389
1784245515.700801,-0.006246200,-0.001752288,-0.618526876,-0.000983432,0.000854409,0.000554508,0.032537758,-0.065748528,9.804903030
1784245515.702805,-0.006247048,-0.001753872,-0.618526876,-0.002176999,0.000840830,0.000625757,0.014638400,-0.062296979,9.792801857
1784245515.704806,-0.006247048,-0.001753872,-0.618526876,-0.001837245,0.000725136,0.001130288,0.026469115,-0.048585098,9.796487808
1784245515.706821,-0.006245811,-0.001754737,-0.618526936,-0.000490452,0.000374909,0.001841082,0.015038314,-0.029961107,9.781353951
1784245515.708807,-0.006245811,-0.001754737,-0.618526936,-0.000104038,0.000236061,0.002051711,0.026489139,-0.046805978,9.798293114
1784245515.710809,-0.006245811,-0.001754737,-0.618526936,-0.000685039,0.000630301,0.002188490,0.028295171,-0.045929871,9.797852516
1784245515.712820,-0.006245150,-0.001755096,-0.618526936,-0.001396934,0.001009723,0.002432602,0.023943491,-0.033456650,9.815861702
1784245515.714815,-0.006245150,-0.001755096,-0.618526936,-0.001374372,0.001032178,0.001978066,0.035456397,-0.047785085,9.793811798
1784245515.716814,-0.006244871,-0.001755456,-0.618526936,-0.000454248,0.000880562,0.001033680,0.026172711,-0.074430123,9.777044296
1784245515.718870,-0.006244871,-0.001755456,-0.618526936,0.000545705,0.001179875,0.000456822,0.032573026,-0.063038498,9.801781654
1784245515.720843,-0.006244871,-0.001755456,-0.618526936,0.001398309,0.001232928,0.000306642,0.038586669,-0.048314624,9.799640656
1784245515.722852,-0.006244245,-0.001757131,-0.618526936,0.001960095,0.000786681,0.000122235,0.034919713,-0.054552801,9.801389694
1784245515.724840,-0.006244245,-0.001757131,-0.618526936,0.001918037,0.000555682,0.000114066,0.011207198,-0.048437320,9.803199768
1784245515.726842,-0.006243235,-0.001756335,-0.618526936,0.001366240,0.000663562,0.000018566,0.016692249,-0.078817613,9.781041145
1784245515.728832,-0.006243235,-0.001756335,-0.618526936,0.001018869,0.000760005,-0.000123025,0.030175813,-0.078001954,9.768057823
1784245515.730826,-0.006243235,-0.001756335,-0.618526936,0.001267221,0.000532553,0.000476986,0.030330779,-0.063810289,9.788324356
1784245515.732835,-0.006243589,-0.001757219,-0.618526936,0.001319526,0.000310482,0.001527330,0.006192821,-0.053047650,9.830512047
1784245515.734833,-0.006243589,-0.001757219,-0.618526936,0.001016920,0.000282026,0.001696987,0.000267456,-0.024621606,9.813204765
1784245515.736838,-0.006241820,-0.001756170,-0.618526936,0.001304216,0.000259695,0.001189565,0.027877819,-0.044866037,9.774991989
1784245515.738843,-0.006241820,-0.001756170,-0.618526936,0.001527364,-0.000100034,0.001034643,0.013952347,-0.044811815,9.792465210
1784245515.740835,-0.006241820,-0.001756170,-0.618526936,0.000604082,-0.000423157,0.001046081,0.010001191,-0.040829796,9.743618965
1784245515.742840,-0.006241016,-0.001755344,-0.618526936,-0.000278453,-0.000043315,0.000895042,0.026608704,-0.039377864,9.761578560
1784245515.744848,-0.006241016,-0.001755344,-0.618526936,-0.000789679,0.000647618,0.000516751,0.035416629,-0.052556854,9.771812439
1784245515.746858,-0.006241225,-0.001755180,-0.618526936,-0.001239360,0.000754145,0.000509614,0.007320317,-0.073432639,9.796758652
1784245515.748846,-0.006241225,-0.001755180,-0.618526936,-0.001101584,0.000342192,0.000267753,0.041869018,-0.036701523,9.798819542
1784245515.750849,-0.006241225,-0.001755180,-0.618526936,-0.000707738,0.000189669,-0.001008312,0.019031296,-0.032802362,9.795684814
1784245515.752847,-0.006240419,-0.001755594,-0.618526936,-0.000433899,0.000459006,-0.002314901,0.013619313,-0.033356216,9.820334435
1784245515.754848,-0.006240419,-0.001755594,-0.618526936,-0.000075404,0.000486527,-0.002455094,0.017366756,-0.057588320,9.818837166
1784245515.756869,-0.006240119,-0.001755599,-0.618526936,-0.000183502,-0.000069069,-0.001965306,0.020787369,-0.072747342,9.802156448
1784245515.758857,-0.006240119,-0.001755599,-0.618526936,-0.000626091,-0.000615657,-0.001321041,0.026225308,-0.068746530,9.796807289
1784245515.760856,-0.006240119,-0.001755599,-0.618526936,-0.000328901,-0.000465424,-0.000378313,0.044297513,-0.060296711,9.773116112
1784245515.762855,-0.006240590,-0.001756810,-0.618526936,0.000142939,-0.000125520,0.000436506,0.028233308,-0.051686596,9.788400650
1784245515.764858,-0.006240590,-0.001756810,-0.618526936,-0.000223144,-0.000372346,0.000719330,0.031205982,-0.028433466,9.789447784
1784245515.766871,-0.006239707,-0.001757829,-0.618526936,-0.000632211,-0.000439859,0.000474469,0.031810325,-0.053047851,9.784359932
1784245515.768860,-0.006239707,-0.001757829,-0.618526936,-0.000654275,-0.000182378,-0.000297473,0.002769553,-0.040341094,9.814002991
1784245515.770860,-0.006239707,-0.001757829,-0.618526936,-0.000688992,-0.000031047,-0.000787848,0.031469047,-0.079652444,9.808847427
1784245515.772864,-0.006240699,-0.001758661,-0.618526936,-0.000624063,0.000182788,-0.000584755,0.036948651,-0.072080649,9.805314064
1784245515.774878,-0.006240699,-0.001758661,-0.618526936,-0.000292390,-0.000062034,-0.000185859,0.044148259,-0.034827136,9.783143044
1784245515.776868,-0.006239690,-0.001759269,-0.618526936,0.000161763,-0.000638991,0.000157005,0.013641915,-0.033988230,9.783119202
1784245515.778867,-0.006239690,-0.001759269,-0.618526936,0.000440172,-0.001001636,-0.000098434,0.000243393,-0.064022489,9.809367180
1784245515.780870,-0.006239690,-0.001759269,-0.618526936,0.000468763,-0.000774642,-0.000823614,0.012019093,-0.056013279,9.795977592
1784245515.782876,-0.006239737,-0.001758585,-0.618526936,0.000406799,0.000023579,-0.001673438,0.033062987,-0.059476461,9.804046631
1784245515.784876,-0.006239737,-0.001758585,-0.618526936,0.000830074,0.000490811,-0.002093849,0.032230426,-0.056116197,9.774028778
1784245515.786878,-0.006239361,-0.001758897,-0.618526936,0.001296586,0.000607843,-0.001480464,0.021564061,-0.046253435,9.792464256
1784245515.788882,-0.006239361,-0.001758897,-0.618526936,0.001492123,0.000817994,-0.000599910,0.061899841,-0.051603045,9.779017448
1784245515.790883,-0.006239361,-0.001758897,-0.618526936,0.001414109,0.000649478,0.000039423,0.031271279,-0.060644720,9.782516479
1784245515.792909,-0.006239078,-0.001760603,-0.618526936,0.000975575,0.000315615,0.000377025,0.021823743,-0.060314499,9.816134453
1784245515.794934,-0.006239078,-0.001760603,-0.618526936,0.000407267,0.000348502,0.000064501,0.011025601,-0.027275650,9.788988113
1784245515.796898,-0.006237349,-0.001761284,-0.618526936,-0.000332362,0.000392973,-0.000001106,0.031969316,-0.038824383,9.800142288
1784245515.798895,-0.006237349,-0.001761284,-0.618526936,-0.000510935,0.000488059,0.000836560,-0.008903443,-0.041865814,9.797393799
1784245515.800893,-0.006237349,-0.001761284,-0.618526936,-0.000004237,0.000823216,0.000997989,0.020738514,-0.077185623,9.796298981
1784245515.802897,-0.006237759,-0.001761116,-0.618526936,0.000115896,0.001255586,0.000213651,0.046347801,-0.074819207,9.795443535
1784245515.804900,-0.006237759,-0.001761116,-0.618526936,-0.000087113,0.001465479,-0.000322675,0.037379116,-0.038693063,9.771903992
1784245515.806902,-0.006235729,-0.001762183,-0.618526936,-0.000046095,0.000750836,-0.000465191,0.022094127,-0.039943218,9.786228180
1784245515.808900,-0.006235729,-0.001762183,-0.618526936,0.000014116,-0.000222517,-0.000174346,0.021059426,-0.050336573,9.800507545
1784245515.810896,-0.006235729,-0.001762183,-0.618526936,-0.000315469,-0.000369151,-0.000032136,0.022886287,-0.047674980,9.800973892
1784245515.812905,-0.006235166,-0.001763844,-0.618526936,-0.000712389,-0.000004200,-0.000269143,-0.008077270,-0.046087023,9.822474480
1784245515.814901,-0.006235166,-0.001763844,-0.618526936,-0.000404816,0.000308010,-0.000242023,0.020760216,-0.073367007,9.826361656
1784245515.816902,-0.006236239,-0.001764165,-0.618526936,0.000250054,0.000260375,-0.000150908,0.025449252,-0.095640697,9.799772263
1784245515.818904,-0.006236239,-0.001764165,-0.618526936,0.000395477,-0.000469178,-0.000666587,0.022789655,-0.095348664,9.763456345
1784245515.820992,-0.006236239,-0.001764165,-0.618526936,0.000152535,-0.001360634,-0.000431053,0.018468762,-0.079390332,9.795386314
1784245515.822918,-0.006236406,-0.001764452,-0.618526936,-0.000077477,-0.001691360,0.000698969,0.022200745,-0.066559911,9.811611176
1784245515.824915,-0.006236406,-0.001764452,-0.618526936,-0.000129650,-0.001373346,0.001164439,0.001300651,-0.050614238,9.812142372
1784245515.826915,-0.006235678,-0.001763229,-0.618526936,-0.000377568,-0.000578891,0.001091140,0.001956733,-0.033988193,9.804179192
1784245515.828917,-0.006235678,-0.001763229,-0.618526936,-0.000687545,-0.000215952,0.001234904,0.030264392,-0.030391874,9.814540863
1784245515.830917,-0.006235678,-0.001763229,-0.618526936,-0.000736356,-0.000330671,0.001211440,0.022145797,-0.035482686,9.788946152
1784245515.832918,-0.006234344,-0.001762999,-0.618526936,-0.000948568,-0.000104249,0.000852810,0.002399393,-0.034041636,9.810905457
1784245515.834915,-0.006234344,-0.001762999,-0.618526936,-0.001281012,0.000420164,0.000990411,0.044099230,-0.039672036,9.771455765
1784245515.836921,-0.006233013,-0.001764970,-0.618526936,-0.001235092,0.000621086,0.000765169,0.042241018,-0.043391708,9.793847084
1784245515.838920,-0.006233013,-0.001764970,-0.618526936,-0.001222532,0.000375462,-0.000014897,0.047717731,-0.072622076,9.799044609
1784245515.840921,-0.006233013,-0.001764970,-0.618526936,-0.001183290,-0.000274323,-0.000170551,0.013633796,-0.070831716,9.797677994
1784245515.842925,-0.006233537,-0.001764641,-0.618526936,-0.000796498,-0.000970193,0.000148630,0.000999024,-0.038910627,9.805044174
1784245515.844925,-0.006233537,-0.001764641,-0.618526936,-0.000637746,-0.001239265,-0.000032911,-0.003332938,-0.063871570,9.794568062
1784245515.846931,-0.006234020,-0.001763930,-0.618526936,-0.001042455,-0.001104578,-0.000344665,0.013721895,-0.062841550,9.808041573
1784245515.848927,-0.006234020,-0.001763930,-0.618526936,-0.001714004,-0.000609846,-0.000010557,0.030723162,-0.030318130,9.803334236
1784245515.850928,-0.006234020,-0.001763930,-0.618526936,-0.001748445,0.000085317,0.000614513,0.035918906,-0.046466030,9.796510696
1784245515.852940,-0.006232641,-0.001765023,-0.618526936,-0.000870695,0.000509118,0.001215258,0.004752737,-0.063498482,9.790542603
1784245515.854944,-0.006232641,-0.001765023,-0.618526936,0.000392547,-0.000051839,0.001486574,0.008653256,-0.037584987,9.793850899
1784245515.856974,-0.006231001,-0.001764351,-0.618526936,0.001416087,-0.001104926,0.000922623,0.026079629,-0.042438257,9.814908028
1784245515.858937,-0.006231001,-0.001764351,-0.618526936,0.001805231,-0.001417711,0.000423496,0.025114780,-0.049038064,9.799621582
1784245515.860943,-0.006231001,-0.001764351,-0.618526936,0.001114079,-0.001420843,0.000348420,0.003704646,-0.037623495,9.808193207
1784245515.862947,-0.006229427,-0.001763888,-0.618526936,-0.000076839,-0.001609277,-0.000430474,0.004997924,-0.042920884,9.794710159
1784245515.864947,-0.006229427,-0.001763888,-0.618526936,-0.000325292,-0.001426914,-0.001374213,0.058234163,-0.055804919,9.809473991
1784245515.866945,-0.006228991,-0.001766617,-0.618526936,0.000110896,-0.000891831,-0.001228113,0.042023569,-0.060102992,9.813017845
1784245515.868945,-0.006228991,-0.001766617,-0.618526936,0.000408340,-0.000560014,-0.000436066,0.020474404,-0.063159525,9.777559280
1784245515.870952,-0.006228991,-0.001766617,-0.618526936,0.000696866,-0.000390284,0.000014281,0.009870115,-0.085533462,9.792648315
1784245515.872959,-0.006230098,-0.001764813,-0.618526936,0.000532458,0.000135376,0.000019067,0.053635918,-0.064325459,9.818830490
1784245515.874948,-0.006230098,-0.001764813,-0.618526936,-0.000256351,0.000367741,-0.000665317,0.027188253,-0.063782759,9.790114403
1784245515.876989,-0.006230914,-0.001764751,-0.618526936,-0.000855177,-0.000038364,-0.001221284,-0.004444730,-0.078115709,9.846483231
1784245515.878983,-0.006230914,-0.001764751,-0.618526936,-0.000659618,-0.000291007,-0.000975190,0.010547142,-0.065905236,9.803535461
1784245515.880991,-0.006230914,-0.001764751,-0.618526936,-0.000227215,-0.000388961,-0.000668610,0.039092276,-0.043818504,9.796531677
1784245515.883000,-0.006229619,-0.001765912,-0.618526936,-0.000110437,-0.000386517,-0.000391018,0.036909018,-0.038045757,9.807773590
1784245515.884966,-0.006229619,-0.001765912,-0.618526936,0.000226317,-0.000566115,-0.000406028,0.032717124,-0.014179554,9.798507690
1784245515.887017,-0.006227243,-0.001766974,-0.618526936,0.000594687,-0.001057265,-0.000581240,0.033244301,-0.044671483,9.801003456
1784245515.888990,-0.006227243,-0.001766974,-0.618526936,0.000593085,-0.001251488,-0.000491777,0.055306777,-0.075458460,9.806206703
1784245515.890979,-0.006227243,-0.001766974,-0.618526936,0.000236657,-0.000847953,-0.000622701,0.033667278,-0.083280772,9.811067581
1784245515.892977,-0.006229007,-0.001767574,-0.618526936,-0.000433840,-0.000116797,-0.000842658,0.020989688,-0.055750258,9.805850983
1784245515.894984,-0.006229007,-0.001767574,-0.618526936,-0.000455824,0.000121608,-0.000805223,-0.010666617,-0.076751374,9.791788101
1784245515.896981,-0.006230064,-0.001765751,-0.618526936,0.000443123,-0.000380219,-0.000834416,-0.005338521,-0.080912434,9.800285339
1784245515.898979,-0.006230064,-0.001765751,-0.618526936,0.001261035,-0.000694219,-0.000746827,0.025514921,-0.051858772,9.817537308
1784245515.900980,-0.006230064,-0.001765751,-0.618526936,0.001389214,-0.000579257,-0.000140292,0.030849971,-0.057585917,9.794193268
1784245515.902983,-0.006229994,-0.001765942,-0.618526936,0.000866808,-0.000491637,0.000751900,0.027862519,-0.044986863,9.792028427
1784245515.904984,-0.006229994,-0.001765942,-0.618526936,0.000471456,-0.000209221,0.001005908,0.033650767,-0.048658010,9.793804169
1784245515.906989,-0.006229021,-0.001767637,-0.618526936,0.000478764,0.000376294,0.000381203,0.036966391,-0.031513937,9.834267616
1784245515.908986,-0.006229021,-0.001767637,-0.618526936,0.000608805,0.000499268,-0.000689142,0.016009822,-0.061303835,9.776669502
1784245515.910989,-0.006229021,-0.001767637,-0.618526936,0.000536559,0.000142223,-0.001724357,-0.000563670,-0.056408376,9.811206818
1784245515.912991,-0.006229260,-0.001766211,-0.618526936,-0.000009197,-0.000475313,-0.002029979,0.006087220,-0.064418010,9.791435242
1784245515.914994,-0.006229260,-0.001766211,-0.618526936,-0.000122124,-0.001167554,-0.001387033,0.010327848,-0.085062638,9.788616180
1784245515.916995,-0.006229554,-0.001766133,-0.618526936,0.000015506,-0.001351668,-0.000681847,0.002858621,-0.034774784,9.787138939
1784245515.918996,-0.006229554,-0.001766133,-0.618526936,-0.000224682,-0.001316809,-0.000709280,0.035647079,-0.034527123,9.756237984
1784245515.920995,-0.006229554,-0.001766133,-0.618526936,-0.000418733,-0.001328758,-0.000476778,0.040480908,-0.041068494,9.785340309
1784245515.922997,-0.006228378,-0.001767481,-0.618526936,-0.000359732,-0.001143292,-0.000035225,0.033246316,-0.044655588,9.798761368
1784245515.925001,-0.006228378,-0.001767481,-0.618526936,-0.000168734,-0.000756129,0.000017304,0.029028466,-0.024236346,9.770195007
1784245515.927003,-0.006226727,-0.001768028,-0.618526995,-0.000316958,-0.000291106,0.000074185,0.033270769,-0.042841483,9.795634270
1784245515.928999,-0.006226727,-0.001768028,-0.618526995,-0.000842883,-0.000163272,0.000023524,0.040783845,-0.054382712,9.766875267
1784245515.930999,-0.006226727,-0.001768028,-0.618526995,-0.001194274,-0.000466803,0.000038615,0.022437237,-0.048482481,9.789310455
1784245515.933010,-0.006225839,-0.001767925,-0.618526995,-0.000853858,-0.000659904,0.000303437,0.000780411,-0.059278361,9.771287918
1784245515.935011,-0.006225839,-0.001767925,-0.618526995,0.000011820,-0.000624588,0.000065075,0.031633668,-0.068221293,9.776192665
1784245515.937010,-0.006226586,-0.001769069,-0.618526995,0.000355267,-0.000415440,-0.000162159,0.038167290,-0.084856659,9.772504807
1784245515.939008,-0.006226586,-0.001769069,-0.618526995,-0.000226576,-0.000255103,-0.000166507,0.016828910,-0.068012491,9.773489952
1784245515.941026,-0.006226586,-0.001769069,-0.618526995,-0.000599754,-0.000532947,-0.000478674,0.026302133,-0.060845401,9.819723129
1784245515.943018,-0.006226497,-0.001769105,-0.618526995,-0.000496951,-0.001119700,-0.000328543,0.025453703,-0.055178918,9.843520164
1784245515.945017,-0.006226497,-0.001769105,-0.618526995,-0.000561324,-0.000971882,0.000144847,0.052322492,-0.062023893,9.812565804
1784245515.947021,-0.006226650,-0.001770588,-0.618526995,-0.000780674,-0.000088484,0.000511806,0.046881557,-0.066453591,9.815222740
1784245515.949055,-0.006226650,-0.001770588,-0.618526995,-0.001087010,0.000411763,0.000922514,0.036033299,-0.037052482,9.795674324
1784245515.951027,-0.006226650,-0.001770588,-0.618526995,-0.000792108,0.000124622,0.000893972,0.048267193,-0.064132474,9.801341057
1784245515.953051,-0.006226525,-0.001771643,-0.618526995,0.000144557,-0.000305785,0.000457902,0.035552591,-0.078131370,9.776580811
1784245515.955039,-0.006226525,-0.001771643,-0.618526995,0.000902670,-0.000313831,0.000087896,0.041393664,-0.076522365,9.791839600
1784245515.957034,-0.006226993,-0.001772146,-0.618526995,0.001387067,0.000199917,0.000326589,0.027973678,-0.038435597,9.752618790
1784245515.959026,-0.006226993,-0.001772146,-0.618526995,0.001486314,0.000540581,0.000554039,0.003286774,-0.037779540,9.767842293
1784245515.961052,-0.006226993,-0.001772146,-0.618526995,0.001007875,0.000003278,0.000624224,0.032350924,-0.044628192,9.796519279
1784245515.963042,-0.006226496,-0.001772700,-0.618526995,0.000076116,-0.000673825,0.001322700,0.023485582,-0.034334105,9.814062119
1784245515.965034,-0.006226496,-0.001772700,-0.618526995,-0.000382199,-0.000880481,0.001671013,0.023195390,-0.059724808,9.793724060
1784245515.967037,-0.006226867,-0.001772475,-0.618526995,-0.000168473,-0.000691073,0.001295706,0.029999746,-0.089928746,9.807434082
1784245515.969033,-0.006226867,-0.001772475,-0.618526995,-0.000187849,-0.000081565,0.000753871,0.020711014,-0.078618534,9.808842659
1784245515.971033,-0.006226867,-0.001772475,-0.618526995,-0.000054925,0.000559526,0.000252170,-0.004320724,-0.033062655,9.811354637
1784245515.973053,-0.006226270,-0.001771878,-0.618526995,0.000542216,0.000498518,-0.000007150,0.011855347,-0.030658169,9.822143555
1784245515.975063,-0.006226270,-0.001771878,-0.618526995,0.000914907,-0.000178435,0.000323818,0.039470151,-0.048030790,9.821162224
1784245515.977039,-0.006226323,-0.001772693,-0.618526995,0.001171819,-0.000435006,0.000169080,0.050844152,-0.072776794,9.815186501
1784245515.979046,-0.006226323,-0.001772693,-0.618526995,0.001603999,0.000083498,-0.000932176,0.044232901,-0.064048924,9.796854019
1784245515.981058,-0.006226323,-0.001772693,-0.618526995,0.001791627,0.000565941,-0.000975871,0.035205059,-0.066790231,9.820590019
1784245515.983046,-0.006226430,-0.001772836,-0.618526995,0.001323762,0.000413628,0.000017483,0.025989166,-0.051257577,9.795125961
1784245515.985062,-0.006226430,-0.001772836,-0.618526995,0.000781305,0.000000296,0.000504452,0.023019092,-0.036495030,9.803736687
1784245515.987053,-0.006225425,-0.001773344,-0.618526995,0.000660441,-0.000050785,0.000698567,0.031681035,-0.062579036,9.801783562
1784245515.989053,-0.006225425,-0.001773344,-0.618526995,0.000611346,0.000146236,0.000733034,0.012107703,-0.049640078,9.781672478
1784245515.991058,-0.006225425,-0.001773344,-0.618526995,0.000611223,0.000148042,0.000324166,0.017171698,-0.036938202,9.813591003
1784245515.993059,-0.006224202,-0.001773010,-0.618526995,0.000519459,0.000024574,-0.000010635,0.042712390,-0.042002700,9.786683083
1784245515.995062,-0.006224202,-0.001773010,-0.618526995,0.000471620,0.000059311,-0.000073290,0.034294069,-0.033753857,9.775967598
1784245515.997063,-0.006223012,-0.001773637,-0.618526995,0.000363650,0.000065856,0.000133570,0.044443324,-0.047798324,9.779474258
1784245515.999055,-0.006223012,-0.001773637,-0.618526995,0.000159329,0.000126751,0.000158017,0.040725328,-0.058897302,9.771777153
1784245516.001074,-0.006223012,-0.001773637,-0.618526995,0.000683947,0.000507939,-0.000164212,0.017742606,-0.064653337,9.803549767
1784245516.003067,-0.006223564,-0.001773300,-0.618526995,0.001353704,0.000673206,-0.000182500,0.020829085,-0.069986448,9.791862488
1784245516.005068,-0.006223564,-0.001773300,-0.618526995,0.001220333,0.000223440,-0.000055572,0.020534249,-0.057418708,9.789253235
1784245516.007072,-0.006223050,-0.001773487,-0.618526995,0.000542448,-0.000331051,-0.000109708,0.014441274,-0.040852688,9.801905632
1784245516.009068,-0.006223050,-0.001773487,-0.618526995,0.000015556,-0.000499208,-0.000382557,0.018776508,-0.016676374,9.796685219
1784245516.011063,-0.006223050,-0.001773487,-0.618526995,-0.000216519,0.000077406,-0.000378619,0.027768271,-0.051404584,9.812610626
1784245516.013075,-0.006220912,-0.001773172,-0.618526995,-0.000005482,0.000494472,-0.000555681,0.046792585,-0.076476887,9.775705338
1784245516.015102,-0.006220912,-0.001773172,-0.618526995,0.000426590,-0.000300217,-0.001087487,0.052719343,-0.066896811,9.804017067
1784245516.017077,-0.006221911,-0.001774954,-0.618526995,0.000195738,-0.001039013,-0.000862897,0.050069597,-0.063284978,9.804935455
1784245516.019075,-0.006221911,-0.001774954,-0.618526995,-0.000108431,-0.000661114,-0.000152844,0.019856758,-0.076240040,9.790925026
1784245516.021074,-0.006221911,-0.001774954,-0.618526995,-0.000238252,-0.000260813,0.000365264,0.022546569,-0.038703654,9.800134659
1784245516.023082,-0.006220298,-0.001774547,-0.618526995,-0.000263886,-0.000328598,0.000524186,0.019036409,-0.068730853,9.807560921
1784245516.025082,-0.006220298,-0.001774547,-0.618526995,-0.000479025,-0.000282211,0.000044471,0.030232612,-0.071879946,9.789170265
1784245516.027082,-0.006220696,-0.001775878,-0.618526995,-0.001232824,-0.000295647,-0.000360364,0.058015607,-0.076982737,9.763607979
1784245516.029081,-0.006220696,-0.001775878,-0.618526995,-0.001748468,-0.000400109,0.000048264,0.023301663,-0.052401625,9.771802902
1784245516.031087,-0.006220696,-0.001775878,-0.618526995,-0.001632352,-0.000104745,0.000547367,0.017841863,-0.057790838,9.783418655
1784245516.033085,-0.006220940,-0.001775659,-0.618526995,-0.001709220,0.000220382,0.000875210,0.031882536,-0.048425160,9.764214516
1784245516.035092,-0.006220940,-0.001775659,-0.618526995,-0.002093547,0.000173340,0.001021678,0.023818910,-0.044166382,9.809964180
1784245516.037096,-0.006219573,-0.001775724,-0.618526995,-0.001680897,0.000513459,0.000499751,0.008396348,-0.019854750,9.821312904
1784245516.039092,-0.006219573,-0.001775724,-0.618526995,-0.000741204,0.001277978,-0.000147349,0.037885997,-0.032160632,9.797500610
1784245516.041090,-0.006219573,-0.001775724,-0.618526995,0.000371728,0.001518672,0.000300806,0.029832883,-0.066219218,9.812966347
1784245516.043099,-0.006218733,-0.001776616,-0.618526995,0.000941454,0.001208753,0.000931076,0.007226123,-0.080660425,9.805231094
1784245516.045100,-0.006218733,-0.001776616,-0.618526995,0.000888689,0.001028783,0.000613505,0.026741803,-0.061327718,9.823755264
1784245516.047093,-0.006219152,-0.001776691,-0.618526995,0.001433878,0.001376919,0.000457963,0.034553178,-0.048224729,9.794256210
1784245516.049095,-0.006219152,-0.001776691,-0.618526995,0.001557985,0.001628717,0.001120436,0.024496105,-0.026968371,9.784520149
1784245516.051100,-0.006219152,-0.001776691,-0.618526995,0.000740708,0.001357388,0.001039459,0.035755794,-0.021511180,9.815949440
1784245516.053107,-0.006217194,-0.001777711,-0.618526995,0.000526909,0.001090478,-0.000138524,0.004560780,-0.044039629,9.763768196
1784245516.055104,-0.006217194,-0.001777711,-0.618526995,0.001205730,0.001192029,-0.000831231,-0.013264852,-0.031495675,9.796112061
1784245516.057104,-0.006215662,-0.001776680,-0.618526995,0.001754982,0.001319194,-0.001299374,0.033410937,-0.033224445,9.766106606
1784245516.059110,-0.006215662,-0.001776680,-0.618526995,0.001880429,0.001108365,-0.001570331,0.055383760,-0.069987535,9.792792320
1784245516.061111,-0.006215662,-0.001776680,-0.618526995,0.002042547,0.000967477,-0.001027413,0.043604549,-0.079645500,9.785993576
1784245516.063114,-0.006216184,-0.001777684,-0.618526995,0.001563595,0.000905174,-0.000289642,0.067237817,-0.093681216,9.763957977
1784245516.065114,-0.006216184,-0.001777684,-0.618526995,0.000421056,0.001048115,0.000283708,0.054104738,-0.101762198,9.789896965
1784245516.067114,-0.006217868,-0.001779061,-0.618526995,-0.000425863,0.001423829,0.000468204,0.004598696,-0.076467097,9.787322044
1784245516.069120,-0.006217868,-0.001779061,-0.618526995,-0.000867845,0.001085777,0.000256492,0.054773375,-0.045420848,9.804604530
1784245516.071114,-0.006217868,-0.001779061,-0.618526995,-0.000887892,0.000367388,0.000244526,0.048456099,-0.048457008,9.801889420
1784245516.073117,-0.006217386,-0.001780634,-0.618526995,-0.000755848,0.000110131,0.000616613,0.028728329,-0.048489839,9.779006004
1784245516.075114,-0.006217386,-0.001780634,-0.618526995,-0.000787511,-0.000184227,0.000941031,0.011538527,-0.020695528,9.807861328
1784245516.077121,-0.006215553,-0.001780335,-0.618526995,-0.000666156,-0.000505781,0.000779858,0.007894362,-0.024322253,9.820387840
1784245516.079121,-0.006215553,-0.001780335,-0.618526995,-0.000233377,-0.000636522,0.000789932,0.017176410,-0.038116746,9.790268898
1784245516.081123,-0.006215553,-0.001780335,-0.618526995,0.000155643,-0.000518895,0.001177662,0.042605542,-0.049735695,9.803220749
1784245516.083125,-0.006215447,-0.001781203,-0.618526995,0.000208883,-0.000015746,0.001299614,0.054775782,-0.082991734,9.795398712
1784245516.085126,-0.006215447,-0.001781203,-0.618526995,0.000065837,0.000175085,0.001008098,0.026681378,-0.067478351,9.806677818
1784245516.087130,-0.006215523,-0.001781892,-0.618526995,-0.000273507,0.000193855,0.000271186,0.019885711,-0.072364196,9.812917709
1784245516.089138,-0.006215523,-0.001781892,-0.618526995,-0.001005998,0.000465081,-0.000319139,0.032281011,-0.050448503,9.796032906
1784245516.091133,-0.006215523,-0.001781892,-0.618526995,-0.001705421,0.000359021,-0.000841398,0.043935530,-0.052716967,9.778992653
1784245516.093134,-0.006215142,-0.001783078,-0.618526995,-0.001963240,0.000117936,-0.001366786,0.021102820,-0.045536187,9.818470955
1784245516.095141,-0.006215142,-0.001783078,-0.618526995,-0.001731491,0.000454890,-0.000951723,0.038455416,-0.058671787,9.807194710
1784245516.097137,-0.006215224,-0.001784166,-0.618526995,-0.001070691,0.001142377,-0.000212866,0.036632460,-0.062518276,9.784304619
1784245516.099137,-0.006215224,-0.001784166,-0.618526995,-0.000663267,0.001429781,0.000035247,0.013316627,-0.096435443,9.807375908
1784245516.101152,-0.006215224,-0.001784166,-0.618526995,-0.000878469,0.001157366,0.000429120,0.013470722,-0.084276907,9.798488617
1784245516.103152,-0.006216683,-0.001783751,-0.618526995,-0.000964439,0.000744264,0.000371984,0.014011027,-0.077480577,9.786875725
1784245516.105154,-0.006216683,-0.001783751,-0.618526995,-0.000992854,0.000122954,-0.000321235,0.016998317,-0.052896280,9.789727211
1784245516.107162,-0.006215731,-0.001783805,-0.618526995,-0.001795627,-0.000595647,-0.000106890,0.031911254,-0.044145860,9.792487144
1784245516.109189,-0.006215731,-0.001783805,-0.618526995,-0.002397979,-0.000925055,0.000718229,0.077594139,-0.013890352,9.803035736
1784245516.111160,-0.006215731,-0.001783805,-0.618526995,-0.001893344,-0.000939217,0.000997144,0.033685945,-0.006737876,9.821421623
1784245516.113167,-0.006212390,-0.001785597,-0.618526995,-0.001395633,-0.000714402,0.000786655,0.017236834,-0.031966113,9.807345390
1784245516.115161,-0.006212390,-0.001785597,-0.618526995,-0.001446083,-0.000416526,0.000037698,0.028474243,-0.030737344,9.803328514
1784245516.117159,-0.006210683,-0.001786537,-0.618526995,-0.001102864,-0.000237852,-0.000796349,0.007555088,-0.053747788,9.800471306
1784245516.119163,-0.006210683,-0.001786537,-0.618526995,-0.000766622,-0.000241808,-0.000231185,0.034205969,-0.076497152,9.801248550
1784245516.121167,-0.006210683,-0.001786537,-0.618526995,-0.001265855,-0.000366646,0.000828534,0.031464379,-0.082120806,9.777897835
1784245516.123169,-0.006212679,-0.001787792,-0.618526995,-0.001754317,-0.000451706,0.000860238,0.006711478,-0.085633114,9.812371254
1784245516.125195,-0.006212679,-0.001787792,-0.618526995,-0.001583729,-0.000443919,0.000324953,0.014828867,-0.045798723,9.803668022
1784245516.127184,-0.006211358,-0.001787990,-0.618526995,-0.000841165,-0.000120706,-0.000098348,0.041481316,-0.030135337,9.821278572
1784245516.129178,-0.006211358,-0.001787990,-0.618526995,0.000065161,0.000558024,0.000047627,0.035183020,-0.033832125,9.785383224
1784245516.131178,-0.006211358,-0.001787990,-0.618526995,0.000687823,0.000839211,-0.000226368,-0.004602687,-0.057983134,9.787878990
1784245516.133182,-0.006211202,-0.001787319,-0.618526995,0.000937034,0.000419605,-0.000971328,0.012952291,-0.052094884,9.810351372
1784245516.135181,-0.006211202,-0.001787319,-0.618526995,0.000031086,0.000083678,-0.000541123,0.043770909,-0.064148106,9.811647415
1784245516.137183,-0.006211432,-0.001788873,-0.618526995,-0.001351868,0.000004761,0.000421917,0.027590582,-0.066180937,9.811619759
1784245516.139181,-0.006211432,-0.001788873,-0.618526995,-0.001490424,0.000028230,0.001071158,0.021539887,-0.084034182,9.812845230
1784245516.141254,-0.006211432,-0.001788873,-0.618526995,-0.000703763,0.000232640,0.001727096,0.032362778,-0.044129357,9.789349556
1784245516.143204,-0.006211282,-0.001789436,-0.618526995,-0.000089566,0.000691299,0.001520761,0.027641330,-0.062943466,9.797292709
1784245516.145183,-0.006211282,-0.001789436,-0.618526995,-0.000490706,0.000950005,0.000484142,0.007728455,-0.075379677,9.817817688
1784245516.147247,-0.006211631,-0.001788956,-0.618526995,-0.001600055,0.000893189,0.000069295,0.038925979,-0.057289135,9.800927162
1784245516.149204,-0.006211631,-0.001788956,-0.618526995,-0.002354163,0.000868219,-0.000070273,0.028988535,-0.026577903,9.784526825
1784245516.151189,-0.006211631,-0.001788956,-0.618526995,-0.002146573,0.000590763,-0.000316603,0.042164940,-0.050476417,9.782143593
1784245516.153191,-0.006211239,-0.001790512,-0.618526995,-0.001598987,0.000275816,-0.000405792,0.040963210,-0.037566863,9.796123505
1784245516.155199,-0.006211239,-0.001790512,-0.618526995,-0.001144042,0.000277885,-0.000162505,0.057078104,-0.042129442,9.778625488
1784245516.157227,-0.006210661,-0.001792555,-0.618526995,-0.000632521,0.000275678,0.000303821,0.038914591,-0.058594864,9.795538902
1784245516.159192,-0.006210661,-0.001792555,-0.618526995,-0.000874687,0.000192916,0.000281069,0.009217316,-0.100107305,9.827075958
1784245516.161187,-0.006210661,-0.001792555,-0.618526995,-0.001320710,0.000262080,0.000174529,0.021314442,-0.066866010,9.793227196
1784245516.163194,-0.006211453,-0.001792535,-0.618526995,-0.001247088,0.000397721,0.000170231,0.028152524,-0.057592761,9.800018311
1784245516.165200,-0.006211453,-0.001792535,-0.618526995,-0.001007050,0.000946386,-0.000136979,0.047919702,-0.056438252,9.791079521
1784245516.167196,-0.006211234,-0.001794054,-0.618526995,-0.000992865,0.001633035,0.000091861,0.028656416,-0.016736083,9.787279129
1784245516.169197,-0.006211234,-0.001794054,-0.618526995,-0.001385654,0.001843854,0.001195010,0.043055851,-0.049728714,9.801428795
1784245516.171196,-0.006211234,-0.001794054,-0.618526995,-0.001217904,0.002067414,0.001530407,0.042403232,-0.029142804,9.806043625
1784245516.173201,-0.006209716,-0.001795268,-0.618526995,-0.000589493,0.001962244,0.000564579,0.045097392,-0.065941304,9.809395790
1784245516.175242,-0.006209716,-0.001795268,-0.618526995,-0.000372517,0.001365917,-0.000088139,0.011190098,-0.086567461,9.809679985
1784245516.177211,-0.006210920,-0.001794922,-0.618526995,-0.000213937,0.001142835,0.000195717,0.002798772,-0.075268731,9.811090469
1784245516.179212,-0.006210920,-0.001794922,-0.618526995,-0.000025100,0.001087084,0.000475421,-0.000509513,-0.049901996,9.841287613
1784245516.181217,-0.006210920,-0.001794922,-0.618526995,0.000183030,0.000813712,0.000353066,0.029813329,-0.031215273,9.805120468
1784245516.183213,-0.006209365,-0.001795084,-0.618526995,0.000661468,0.000649583,-0.000150546,0.042128704,-0.050762590,9.822492599
1784245516.185211,-0.006209365,-0.001795084,-0.618526995,0.000701100,0.000284348,-0.001006680,0.026721671,-0.026733574,9.810526848
1784245516.187214,-0.006207940,-0.001795165,-0.618526995,0.000059238,-0.000101592,-0.001451580,0.038867582,-0.025833899,9.788127899
1784245516.189226,-0.006207940,-0.001795165,-0.618526995,-0.000118568,-0.000104523,-0.000690567,0.023763670,-0.049465604,9.799169540
1784245516.191216,-0.006207940,-0.001795165,-0.618526995,0.000006312,0.000033928,-0.000026678,0.007685641,-0.079770252,9.805236816
