time_sec,roll_rad,pitch_rad,yaw_rad,gyro_x,gyro_y,gyro_z,acc_x,acc_y,acc_z
1784246182.991591,0.010372677,-0.116815872,0.004815504,-0.000700999,-0.000251463,0.000877641,1.123547912,0.119646922,9.743923187
1784246182.993473,0.010375113,-0.116817184,0.004814930,-0.000877574,-0.000247840,0.000811704,1.145742297,0.100843608,9.764895439
1784246182.995426,0.010377041,-0.116816148,0.004813657,-0.000281040,-0.000142921,0.000422407,1.158722281,0.095558889,9.728559494
1784246182.997417,0.010371370,-0.116816051,0.004813732,-0.000388137,0.000028683,0.000246788,1.144848347,0.098856956,9.730809212
1784246182.999448,0.010364023,-0.116821252,0.004813849,-0.001158868,-0.000325921,0.000295598,1.144076347,0.110394612,9.747919083
1784246183.001415,0.010360091,-0.116820633,0.004815892,-0.001648324,-0.000585797,0.000457623,1.149388433,0.101649381,9.707966805
1784246183.003382,0.010362533,-0.116822511,0.004817457,-0.001333461,-0.000548475,0.000596038,1.155016661,0.085368551,9.719077110
1784246183.005386,0.010367149,-0.116824277,0.004819909,-0.000417722,-0.000600352,0.000643367,1.139760494,0.084750779,9.707401276
1784246183.007395,0.010370154,-0.116822973,0.004821559,0.000287882,-0.000422569,0.000679107,1.145799637,0.102918439,9.725008011
1784246183.009399,0.010370379,-0.116821356,0.004821810,0.000442530,-0.000108524,0.000597290,1.119538069,0.120734490,9.724200249
1784246183.011384,0.010364071,-0.116820186,0.004818745,-0.000168588,0.000021503,0.000301314,1.141182661,0.129408196,9.725621223
1784246183.013381,0.010356748,-0.116823249,0.004818874,-0.001123641,-0.000202594,0.000137267,1.160521150,0.096784383,9.742018700
1784246183.015374,0.010359739,-0.116825454,0.004820274,-0.001079826,-0.000483144,0.000234904,1.141180396,0.092205778,9.727623940
1784246183.017403,0.010360927,-0.116826765,0.004821158,-0.000467961,-0.000567671,0.000289569,1.138362646,0.117084213,9.699535370
1784246183.019379,0.010355961,-0.116825216,0.004826684,-0.000544814,-0.000391726,0.000672869,1.145825863,0.106772028,9.750139236
1784246183.021369,0.010359467,-0.116826110,0.004834237,-0.000420075,-0.000178161,0.001386105,1.122419000,0.100405619,9.742453575
1784246183.023371,0.010361576,-0.116827682,0.004834157,0.000103402,-0.000240580,0.001471920,1.133251429,0.105227016,9.738012314
1784246183.025377,0.010363488,-0.116834208,0.004828933,0.000301124,-0.000728850,0.000683241,1.125875354,0.089176506,9.740144730
1784246183.027368,0.010362785,-0.116833016,0.004823444,0.000212906,-0.000899950,-0.000233628,1.133218288,0.100912757,9.714671135
1784246183.029372,0.010361793,-0.116833866,0.004829161,0.000042629,-0.000632118,-0.000141363,1.134641171,0.106769875,9.707537651
1784246183.031379,0.010354935,-0.116837956,0.004826342,-0.000501899,-0.000811893,0.000157767,1.136731148,0.096209079,9.739750862
1784246183.033378,0.010350602,-0.116839819,0.004815049,-0.001258451,-0.001022110,-0.000744545,1.135728836,0.087286793,9.736105919
1784246183.035398,0.010344796,-0.116832852,0.004814415,-0.001656683,-0.000385710,-0.001270865,1.154732823,0.100048915,9.734412193
1784246183.037386,0.010338223,-0.116824560,0.004816037,-0.001995554,0.000774971,-0.000765939,1.144517660,0.109114937,9.738047600
1784246183.039407,0.010339570,-0.116824061,0.004818021,-0.001777533,0.001164748,-0.000273544,1.152097225,0.102961950,9.707529068
1784246183.041394,0.010337987,-0.116825327,0.004820971,-0.001282153,0.000814763,0.000136319,1.141285419,0.099922866,9.713327408
1784246183.043391,0.010334549,-0.116826050,0.004820238,-0.001265408,0.000474403,0.000289463,1.131475210,0.105396271,9.717387199
1784246183.045395,0.010333411,-0.116823010,0.004817068,-0.001285835,0.000463342,-0.000012897,1.145055056,0.115482375,9.723742485
1784246183.047393,0.010334620,-0.116822474,0.004817965,-0.000974487,0.000541320,-0.000159958,1.145542026,0.119022168,9.729146957
1784246183.049404,0.010333315,-0.116826594,0.004814787,-0.000734468,0.000148003,-0.000269577,1.151784778,0.115796410,9.730476379
1784246183.051392,0.010331792,-0.116828628,0.004811578,-0.000795209,-0.000242430,-0.000603112,1.150210738,0.134176284,9.731937408
1784246183.053388,0.010336257,-0.116829440,0.004812051,-0.000421577,-0.000298590,-0.000645584,1.146894932,0.120272495,9.739914894
1784246183.055392,0.010341436,-0.116828747,0.004807190,0.000267995,-0.000235011,-0.000837744,1.143361568,0.121573709,9.689258575
1784246183.057417,0.010346164,-0.116829559,0.004807693,0.000788421,-0.000188889,-0.000977704,1.154388905,0.106151626,9.695895195
1784246183.059397,0.010345493,-0.116828740,0.004808635,0.000859350,-0.000136624,-0.000646805,1.154024363,0.116545953,9.747071266
1784246183.061552,0.010341072,-0.116828687,0.004805248,0.000188867,-0.000035659,-0.000587064,1.160501122,0.093788572,9.722273827
1784246183.063479,0.010338902,-0.116827667,0.004809762,-0.000372303,0.000055128,-0.000290838,1.142890573,0.084624678,9.719508171
1784246183.065439,0.010340665,-0.116826937,0.004816122,-0.000185729,0.000129191,0.000521660,1.142292023,0.108880147,9.712040901
1784246183.067441,0.010345372,-0.116827682,0.004812339,0.000348045,0.000056625,0.000499722,1.133592486,0.095455147,9.725396156
1784246183.069456,0.010345628,-0.116832420,0.004811754,0.000553481,-0.000333478,0.000030275,1.154543281,0.084773719,9.740591049
1784246183.071450,0.010340744,-0.116834067,0.004810161,0.000141574,-0.000666936,-0.000096258,1.150172949,0.095073909,9.749171257
1784246183.073429,0.010337151,-0.116837457,0.004810464,-0.000410849,-0.000817692,-0.000098064,1.142141223,0.098773807,9.747394562
1784246183.075459,0.010338881,-0.116837069,0.004808781,-0.000414043,-0.000805495,-0.000152221,1.162908435,0.108021446,9.732678413
1784246183.077433,0.010344830,-0.116829909,0.004806530,0.000206732,-0.000081810,-0.000439426,1.133419394,0.081527010,9.731135368
1784246183.079424,0.010351880,-0.116830491,0.004807848,0.001019572,0.000386504,-0.000485941,1.127449632,0.106766455,9.720979691
1784246183.081423,0.010357169,-0.116832025,0.004804569,0.001514238,0.000063080,-0.000577840,1.136007547,0.110155061,9.733115196
1784246183.083419,0.010357411,-0.116831742,0.004804546,0.001405206,-0.000113251,-0.000681306,1.146256447,0.105003059,9.746092796
1784246183.085437,0.010358825,-0.116833515,0.004805520,0.001180990,-0.000188029,-0.000449731,1.139412045,0.094868846,9.734365463
1784246183.087502,0.010361943,-0.116835602,0.004803682,0.001197036,-0.000405546,-0.000426068,1.146222234,0.101895936,9.742037773
1784246183.089429,0.010365805,-0.116838604,0.004806751,0.001352277,-0.000638324,-0.000282654,1.122483015,0.104558095,9.725443840
1784246183.091449,0.010368302,-0.116838135,0.004813654,0.001482989,-0.000721746,0.000418040,1.147763729,0.115578242,9.705365181
1784246183.093428,0.010362653,-0.116838589,0.004813462,0.000911378,-0.000612449,0.000783962,1.144499183,0.107348531,9.734449387
1784246183.095438,0.010357191,-0.116842523,0.004814407,-0.000048538,-0.000704857,0.000705725,1.139180422,0.112392783,9.727750778
1784246183.097446,0.010357913,-0.116840914,0.004814985,-0.000312364,-0.000632877,0.000650199,1.149942040,0.110577419,9.711610794
1784246183.099436,0.010357332,-0.116838552,0.004817554,-0.000193095,-0.000188259,0.000684636,1.148156047,0.113507219,9.743907928
1784246183.101433,0.010353176,-0.116838656,0.004814526,-0.000504646,0.000033159,0.000509949,1.138918877,0.091281377,9.735685349
1784246183.103431,0.010354535,-0.116835684,0.004814383,-0.000622264,0.000230496,0.000184495,1.153778315,0.095961981,9.743801117
1784246183.105439,0.010357663,-0.116831586,0.004814703,-0.000162839,0.000655368,0.000112305,1.153042793,0.109409146,9.744335175
1784246183.107439,0.010355616,-0.116831519,0.004813603,-0.000065241,0.000769669,0.000022147,1.144749761,0.089567401,9.714159966
1784246183.109437,0.010355595,-0.116834126,0.004813265,-0.000198040,0.000387266,-0.000064503,1.142537951,0.092684194,9.720904350
1784246183.111438,0.010353628,-0.116833165,0.004815459,-0.000222597,0.000142582,0.000089299,1.145394683,0.106511056,9.724581718
1784246183.113474,0.010357003,-0.116831899,0.004818493,0.000015070,0.000230347,0.000401801,1.143310547,0.119549751,9.721973419
1784246183.115529,0.010367906,-0.116833754,0.004820750,0.000982747,0.000178274,0.000539812,1.162910342,0.106820635,9.712495804
1784246183.117486,0.010365979,-0.116839446,0.004815882,0.001267773,-0.000338124,0.000149619,1.175226569,0.124059580,9.723379135
1784246183.119470,0.010362031,-0.116836101,0.004810824,0.000448922,-0.000412934,-0.000513672,1.140188932,0.122579455,9.742612839
1784246183.121459,0.010366397,-0.116829425,0.004818130,0.000276102,0.000423199,-0.000215009,1.126155853,0.112057492,9.735359192
1784246183.123456,0.010369553,-0.116827071,0.004820876,0.000690871,0.000969608,0.000472420,1.122439265,0.100564614,9.720038414
1784246183.125465,0.010365725,-0.116826363,0.004815034,0.000447380,0.000892658,0.000139309,1.128515840,0.083464779,9.719486237
1784246183.127475,0.010364428,-0.116830796,0.004813998,-0.000059976,0.000373507,-0.000323086,1.135007620,0.102061912,9.738890648
1784246183.129469,0.010366867,-0.116828926,0.004813709,0.000022792,0.000096437,-0.000333720,1.159754634,0.106743239,9.729080200
1784246183.131466,0.010370992,-0.116827384,0.004812246,0.000414147,0.000395444,-0.000410358,1.145689726,0.095160007,9.745133400
1784246183.133465,0.010379287,-0.116825759,0.004807833,0.001061419,0.000593355,-0.000790657,1.154612780,0.089374155,9.723585129
1784246183.135468,0.010381302,-0.116823711,0.004811298,0.001478276,0.000772016,-0.000724610,1.145888567,0.110914983,9.734474182
1784246183.137464,0.010373805,-0.116822064,0.004813308,0.000768164,0.000909668,-0.000118459,1.122022986,0.103258111,9.720055580
1784246183.139465,0.010366146,-0.116823867,0.004816351,-0.000422110,0.000656887,0.000374235,1.131519318,0.109392941,9.722346306
1784246183.141472,0.010362357,-0.116822533,0.004816400,-0.001036880,0.000363019,0.000570481,1.140130639,0.116041288,9.717015266
1784246183.143469,0.010361503,-0.116824821,0.004814090,-0.001068300,0.000110996,0.000298703,1.132408977,0.110941179,9.755084038
1784246183.145472,0.010357440,-0.116825037,0.004816927,-0.001164374,-0.000109026,0.000298965,1.129291773,0.111979105,9.740741730
1784246183.147472,0.010353633,-0.116824999,0.004819366,-0.001396147,-0.000107676,0.000642785,1.138438463,0.088605717,9.734771729
1784246183.149479,0.010353036,-0.116829924,0.004814661,-0.001331971,-0.000411870,0.000350369,1.121739030,0.117128402,9.723282814
1784246183.151476,0.010352309,-0.116829105,0.004812355,-0.001121876,-0.000651130,-0.000205476,1.143235326,0.113688089,9.727314949
1784246183.153486,0.010352275,-0.116825588,0.004810442,-0.000908782,-0.000251208,-0.000426590,1.155577421,0.093947209,9.708819389
1784246183.155487,0.010350975,-0.116821855,0.004809257,-0.000732910,0.000291455,-0.000514029,1.129482388,0.090887360,9.745089531
1784246183.157484,0.010348050,-0.116824172,0.004808574,-0.000790133,0.000292131,-0.000471910,1.156111479,0.103126056,9.740262032
1784246183.159531,0.010351912,-0.116828971,0.004809222,-0.000512650,-0.000269346,-0.000353592,1.132575631,0.122388229,9.720189095
1784246183.161498,0.010360743,-0.116825663,0.004811485,0.000452853,-0.000291290,-0.000155718,1.119905233,0.113602690,9.718326569
1784246183.163513,0.010365179,-0.116817683,0.004808522,0.001166176,0.000558129,-0.000259456,1.121752262,0.118853472,9.732708931
1784246183.165516,0.010370737,-0.116816834,0.004810938,0.001484527,0.000962880,-0.000300438,1.155043125,0.089628778,9.750038147
1784246183.167534,0.010372913,-0.116821028,0.004810049,0.001580528,0.000430243,-0.000172652,1.139433622,0.096660696,9.734375954
1784246183.169514,0.010371647,-0.116820112,0.004804761,0.001163842,0.000086346,-0.000549436,1.144570827,0.110751346,9.696811676
1784246183.171498,0.010375305,-0.116820171,0.004802971,0.000935900,0.000123436,-0.000894404,1.158986092,0.079909474,9.723527908
1784246183.173496,0.010377828,-0.116820440,0.004804020,0.001075460,0.000072728,-0.000748517,1.135205269,0.117400713,9.723745346
1784246183.175508,0.010375477,-0.116819985,0.004808706,0.000796876,0.000090897,-0.000155139,1.144289613,0.126667470,9.727400780
1784246183.177504,0.010373509,-0.116818838,0.004807086,0.000269824,0.000198509,0.000132728,1.160469174,0.128290504,9.722045898
1784246183.179502,0.010374450,-0.116813198,0.004803962,0.000089600,0.000602123,-0.000215035,1.140663147,0.124397337,9.738142014
1784246183.181504,0.010379924,-0.116806917,0.004803723,0.000432183,0.001250805,-0.000429544,1.137988925,0.124978371,9.724245071
1784246183.183505,0.010382300,-0.116807245,0.004808236,0.000838961,0.001322586,-0.000082344,1.173990965,0.095465176,9.714226723
1784246183.185517,0.010372646,-0.116811506,0.004821338,0.000313250,0.000819567,0.001177089,1.161323309,0.088725500,9.739726067
1784246183.187568,0.010363295,-0.116809003,0.004820989,-0.000898861,0.000643494,0.001859642,1.136293769,0.097520553,9.745139122
1784246183.189523,0.010365419,-0.116809711,0.004816363,-0.001181390,0.000588606,0.001076560,1.166526437,0.111441500,9.749292374
1784246183.191539,0.010372785,-0.116814233,0.004816925,-0.000251743,0.000194835,0.000433718,1.160780549,0.117473282,9.730495453
1784246183.193527,0.010381555,-0.116817936,0.004812537,0.000875422,-0.000294645,-0.000071103,1.145239234,0.130716234,9.723391533
1784246183.195536,0.010385589,-0.116815045,0.004812185,0.001320631,-0.000305076,-0.000455580,1.150903702,0.080371894,9.736077309
1784246183.197543,0.010383946,-0.116811797,0.004812489,0.000980141,0.000160038,-0.000336951,1.126539469,0.106676213,9.735324860
1784246183.199527,0.010382386,-0.116809502,0.004805299,0.000443675,0.000486635,-0.000684301,1.149488568,0.110545017,9.716989517
1784246183.201543,0.010377973,-0.116810322,0.004801218,-0.000184049,0.000494782,-0.001209775,1.139165044,0.113082014,9.756898880
1784246183.203542,0.010372941,-0.116810732,0.004798152,-0.000842900,0.000321017,-0.001287018,1.169611931,0.104885340,9.720560074
1784246183.205527,0.010366964,-0.116810255,0.004796577,-0.001412136,0.000338280,-0.001162111,1.138643146,0.105621867,9.735778809
1784246183.207530,0.010363423,-0.116807505,0.004794778,-0.001716178,0.000565210,-0.000997541,1.139981985,0.104330704,9.725907326
1784246183.209526,0.010357044,-0.116808191,0.004793962,-0.001939749,0.000550225,-0.000824505,1.132407665,0.110525012,9.750599861
1784246183.211555,0.010352787,-0.116805919,0.004790235,-0.002139447,0.000450485,-0.000825367,1.144459963,0.141386598,9.736460686
1784246183.213540,0.010349526,-0.116804764,0.004788193,-0.002084428,0.000502322,-0.000933293,1.156782150,0.120676644,9.728270531
1784246183.215559,0.010346495,-0.116809294,0.004788110,-0.002066932,0.000178794,-0.000761240,1.139362216,0.128417641,9.742201805
1784246183.217557,0.010345450,-0.116811506,0.004780687,-0.001947333,-0.000289710,-0.001016116,1.147249222,0.114659093,9.772605896
1784246183.219550,0.010348146,-0.116813354,0.004780141,-0.001370287,-0.000491746,-0.001290495,1.160665393,0.109270059,9.750167847
1784246183.221543,0.010351256,-0.116810195,0.004781321,-0.000584953,-0.000214203,-0.000945877,1.136461377,0.109380573,9.715176582
1784246183.223541,0.010353239,-0.116810441,0.004780164,-0.000065827,0.000096773,-0.000730409,1.150804996,0.108672328,9.725945473
1784246183.225548,0.010346227,-0.116814978,0.004779757,-0.000417017,-0.000244684,-0.000595817,1.155603409,0.098204233,9.740230560
1784246183.227542,0.010339466,-0.116817787,0.004779687,-0.001253691,-0.000668047,-0.000355250,1.107894897,0.086718701,9.740111351
1784246183.229545,0.010344833,-0.116813004,0.004777621,-0.001024205,-0.000354208,-0.000391821,1.124506593,0.086988918,9.735196114
1784246183.231565,0.010344606,-0.116806827,0.004782998,-0.000327423,0.000424804,-0.000107674,1.151388049,0.083079353,9.732507706
1784246183.233568,0.010342536,-0.116804533,0.004791282,-0.000239226,0.000830186,0.000855931,1.139276385,0.085693412,9.764792442
1784246183.235561,0.010343625,-0.116806626,0.004794035,-0.000144037,0.000604300,0.001374534,1.118495464,0.109874085,9.741167068
1784246183.237556,0.010342875,-0.116806038,0.004793360,-0.000056501,0.000317317,0.001137916,1.144948959,0.106945679,9.727273941
1784246183.239594,0.010337648,-0.116800621,0.004792446,-0.000456664,0.000636449,0.000769178,1.151606917,0.099396743,9.705712318
1784246183.241566,0.010337249,-0.116801947,0.004795795,-0.000713450,0.000794902,0.000770976,1.157954097,0.107531786,9.747466087
1784246183.243559,0.010340889,-0.116806313,0.004802847,-0.000239729,0.000252359,0.001239017,1.132533073,0.120431043,9.743488312
1784246183.245567,0.010344314,-0.116805822,0.004807651,0.000340621,-0.000109858,0.001652745,1.123846650,0.107110970,9.742049217
1784246183.247558,0.010345893,-0.116802402,0.004810215,0.000588954,0.000151899,0.001667964,1.166500926,0.107187644,9.717432976
1784246183.249564,0.010350975,-0.116799496,0.004808105,0.000881655,0.000542360,0.001192943,1.157459259,0.103931591,9.750580788
1784246183.251560,0.010345877,-0.116803490,0.004804768,0.000602694,0.000384237,0.000500662,1.137619853,0.131287366,9.719801903
1784246183.253560,0.010336628,-0.116799064,0.004801497,-0.000575922,0.000369337,0.000031456,1.134910345,0.128751770,9.703194618
1784246183.255566,0.010340095,-0.116799645,0.004798284,-0.000908346,0.000515135,-0.000362803,1.136334777,0.099868469,9.729909897
1784246183.257566,0.010341021,-0.116800949,0.004799137,-0.000431911,0.000234398,-0.000452460,1.134714842,0.114242122,9.727758408
1784246183.259567,0.010333950,-0.116795108,0.004804703,-0.000678184,0.000482166,0.000151720,1.124337912,0.109872490,9.730860710
1784246183.261566,0.010330559,-0.116795912,0.004801235,-0.001218180,0.000704099,0.000338791,1.126365900,0.091121592,9.717739105
1784246183.263572,0.010333732,-0.116799884,0.004801000,-0.000966789,0.000195729,0.000003014,1.132542968,0.081703857,9.707822800
1784246183.265578,0.010335850,-0.116797425,0.004806913,-0.000258404,0.000032173,0.000338049,1.140223145,0.087286532,9.728041649
1784246183.267576,0.010338004,-0.116793409,0.004804728,0.000173403,0.000454683,0.000458640,1.152684212,0.078210831,9.721718788
1784246183.269577,0.010338514,-0.116793305,0.004800182,0.000252833,0.000607225,-0.000140718,1.151076913,0.093493134,9.717779160
1784246183.271575,0.010333225,-0.116794817,0.004804669,-0.000091967,0.000377608,-0.000074432,1.144785523,0.092687242,9.716423035
1784246183.273577,0.010334796,-0.116792589,0.004813922,-0.000162818,0.000364738,0.000895646,1.138740301,0.113278553,9.729998589
1784246183.275588,0.010337101,-0.116787188,0.004826924,0.000259246,0.000797026,0.002129054,1.137422323,0.115138516,9.722835541
1784246183.277582,0.010335330,-0.116784252,0.004828284,0.000279051,0.001154141,0.002521905,1.137259841,0.102913208,9.741138458
1784246183.279582,0.010337080,-0.116783381,0.004824693,0.000184187,0.001098352,0.001686948,1.131115556,0.113805167,9.732685089
1784246183.281590,0.010338751,-0.116779163,0.004823709,0.000296111,0.001038867,0.000898354,1.148778081,0.090652891,9.743312836
1784246183.283596,0.010343436,-0.116774686,0.004825042,0.000614670,0.001243084,0.000632508,1.155057907,0.089746431,9.733450890
1784246183.285603,0.010345141,-0.116772272,0.004824216,0.000919638,0.001445065,0.000439255,1.132012010,0.115407459,9.757802963
1784246183.287627,0.010345683,-0.116774887,0.004823676,0.000847489,0.001109954,0.000205059,1.143761992,0.121593028,9.748886108
1784246183.289602,0.010340227,-0.116776146,0.004824039,0.000284851,0.000546458,0.000176274,1.140663028,0.124394178,9.738590240
1784246183.291632,0.010340983,-0.116770566,0.004826161,-0.000137689,0.000674963,0.000338805,1.145380497,0.106399760,9.740272522
1784246183.293607,0.010346153,-0.116769053,0.004829943,0.000297544,0.000957672,0.000603856,1.157957673,0.105940282,9.719210625
1784246183.295612,0.010348638,-0.116771348,0.004827992,0.000718709,0.000696291,0.000505676,1.158722758,0.095968716,9.733942032
1784246183.297613,0.010348686,-0.116771609,0.004829550,0.000662833,0.000384458,0.000324589,1.137175322,0.095761731,9.738851547
1784246183.299605,0.010349310,-0.116769582,0.004835475,0.000587396,0.000406333,0.000735555,1.150221825,0.098295487,9.737088203
1784246183.301613,0.010348897,-0.116772749,0.004834351,0.000513040,0.000261592,0.000853496,1.126442313,0.098209471,9.728994370
1784246183.303603,0.010346122,-0.116777644,0.004829923,0.000147868,-0.000322380,0.000268337,1.124245524,0.100227199,9.701208115
1784246183.305606,0.010344964,-0.116778061,0.004835325,-0.000154621,-0.000678174,0.000293681,1.133836985,0.115622945,9.724180222
1784246183.307612,0.010347913,-0.116780221,0.004839358,0.000077888,-0.000747467,0.000837423,1.155112743,0.130605668,9.721158981
1784246183.309616,0.010352881,-0.116775520,0.004842868,0.000650126,-0.000369203,0.001056044,1.143577218,0.104329228,9.719634056
1784246183.311612,0.010357463,-0.116765283,0.004848967,0.001148367,0.000768667,0.001346604,1.141273022,0.101447634,9.750997543
1784246183.313612,0.010350702,-0.116763823,0.004847046,0.000677798,0.001374253,0.001284928,1.133880615,0.119209796,9.723754883
1784246183.315635,0.010342588,-0.116763681,0.004841858,-0.000647915,0.001074032,0.000584440,1.146853089,0.117918223,9.756039619
1784246183.317624,0.010344678,-0.116761751,0.004837777,-0.001034232,0.000886403,-0.000141386,1.148625612,0.077290364,9.732467651
1784246183.319626,0.010351097,-0.116757244,0.004835835,-0.000227415,0.001079415,-0.000576318,1.122903705,0.065526299,9.731920242
1784246183.321620,0.010349419,-0.116754942,0.004836570,0.000250652,0.001183103,-0.000550557,1.140441179,0.068844423,9.737785339
1784246183.323621,0.010349251,-0.116758324,0.004835140,0.000158949,0.000722854,-0.000445215,1.148781061,0.089865059,9.728064537
1784246183.325622,0.010351590,-0.116757974,0.004833228,0.000236672,0.000333229,-0.000567118,1.150859714,0.114371829,9.743467331
1784246183.327625,0.010344725,-0.116758287,0.004827536,-0.000192140,0.000254055,-0.000890227,1.145844817,0.106921487,9.729067802
1784246183.329630,0.010340354,-0.116762169,0.004825334,-0.000959911,-0.000104920,-0.001091907,1.152491331,0.063313663,9.737762451
1784246183.331622,0.010336723,-0.116765276,0.004829176,-0.001051569,-0.000465121,-0.000642926,1.152411819,0.057013594,9.741757393
1784246183.333622,0.010341540,-0.116764799,0.004831304,-0.000464693,-0.000429914,-0.000096530,1.142282486,0.110020526,9.740741730
1784246183.335633,0.010343347,-0.116766579,0.004827070,0.000036309,-0.000419625,-0.000258061,1.130226851,0.114696704,9.734930992
1784246183.337634,0.010332423,-0.116767727,0.004823836,-0.000702355,-0.000524786,-0.000612789,1.132606745,0.123849757,9.703609467
1784246183.339637,0.010326196,-0.116768919,0.004821695,-0.001710419,-0.000543547,-0.000673059,1.141805053,0.106557056,9.724578857
1784246183.341630,0.010331189,-0.116766050,0.004819589,-0.001356580,-0.000262630,-0.000767751,1.125539303,0.134549722,9.723846436
1784246183.343632,0.010337016,-0.116763175,0.004820244,-0.000264261,0.000220451,-0.000743596,1.142898440,0.121871620,9.711228371
1784246183.345642,0.010343273,-0.116763934,0.004815446,0.000511304,0.000339705,-0.000907846,1.133173943,0.098536208,9.733933449
1784246183.347658,0.010346147,-0.116765261,0.004815727,0.000874303,0.000140770,-0.001029414,1.133492827,0.086969323,9.721755981
1784246183.349647,0.010343486,-0.116766870,0.004819633,0.000684223,-0.000093231,-0.000469328,1.151216030,0.105937481,9.731757164
1784246183.351647,0.010333589,-0.116769828,0.004813831,-0.000359231,-0.000414051,-0.000370468,1.159577370,0.128749967,9.722048759
1784246183.353642,0.010331479,-0.116774634,0.004803858,-0.001191970,-0.000875216,-0.001238526,1.169938803,0.095812254,9.735745430
1784246183.355651,0.010334904,-0.116779424,0.004802348,-0.000875636,-0.001096236,-0.001688272,1.150148153,0.092446551,9.740636826
1784246183.357644,0.010334718,-0.116779566,0.004796915,-0.000479661,-0.000936818,-0.001725030,1.152074695,0.101567194,9.714692116
1784246183.359648,0.010339493,-0.116776586,0.004792892,-0.000114937,-0.000496413,-0.001930399,1.144982457,0.110046431,9.732225418
1784246183.361655,0.010335642,-0.116772741,0.004795881,-0.000028737,0.000074689,-0.001483188,1.150326490,0.105199330,9.711129189
1784246183.363663,0.010336066,-0.116771393,0.004796688,-0.000221089,0.000383273,-0.000797368,1.155276299,0.106464066,9.713382721
1784246183.365659,0.010344250,-0.116768487,0.004794391,0.000381902,0.000674824,-0.000747498,1.170540571,0.073609009,9.769676208
1784246183.367660,0.010343749,-0.116767682,0.004796157,0.000766373,0.000851365,-0.000639248,1.129996777,0.132233351,9.726526260
1784246183.369653,0.010341467,-0.116770320,0.004799032,0.000407375,0.000498229,-0.000130845,1.140971184,0.113554686,9.750178337
1784246183.371657,0.010343886,-0.116776116,0.004798010,0.000232044,-0.000190719,0.000038683,1.112114668,0.103095256,9.760843277
1784246183.373660,0.010347259,-0.116776921,0.004798620,0.000467747,-0.000569318,-0.000035123,1.137603402,0.091946922,9.707444191
1784246183.375669,0.010348761,-0.116778225,0.004800922,0.000714564,-0.000541274,0.000129544,1.123503208,0.116053686,9.745244980
1784246183.377665,0.010348848,-0.116777681,0.004802222,0.000678216,-0.000428961,0.000321878,1.140586138,0.116089582,9.709394455
1784246183.379664,0.010344314,-0.116779186,0.004801621,0.000199712,-0.000377381,0.000316690,1.138658524,0.106552780,9.730852127
1784246183.381666,0.010342904,-0.116782375,0.004798818,-0.000368141,-0.000605880,0.000058355,1.143922448,0.096615925,9.732586861
1784246183.383669,0.010342559,-0.116786085,0.004801113,-0.000476417,-0.000920621,0.000032285,1.165184975,0.073500305,9.731562614
1784246183.385672,0.010341952,-0.116792060,0.004801565,-0.000357876,-0.001243250,0.000211658,1.125815511,0.084245749,9.740560532
1784246183.387703,0.010346881,-0.116793856,0.004798070,0.000038236,-0.001352971,-0.000089725,1.140306473,0.095238537,9.743782997
1784246183.389679,0.010345416,-0.116794132,0.004801055,0.000257361,-0.001127274,-0.000127168,1.152043462,0.099295594,9.719162941
1784246183.391719,0.010345341,-0.116792232,0.004803163,0.000129843,-0.000674318,0.000261898,1.125560641,0.099155039,9.723619461
1784246183.393678,0.010349690,-0.116789542,0.004800427,0.000383641,-0.000147435,0.000113733,1.123296857,0.096998036,9.715980530
1784246183.395693,0.010353666,-0.116782509,0.004801940,0.000824934,0.000522059,-0.000064412,1.129430413,0.124420255,9.755167961
1784246183.397685,0.010356889,-0.116783798,0.004799317,0.001071126,0.000740491,-0.000177757,1.146875620,0.118499719,9.737213135
1784246183.399680,0.010356447,-0.116783254,0.004800554,0.000956678,0.000488693,-0.000245032,1.138702512,0.110952891,9.742089272
1784246183.401678,0.010353549,-0.116777852,0.004801181,0.000443623,0.000758213,-0.000021423,1.152211428,0.113589004,9.725082397
1784246183.403770,0.010352387,-0.116775379,0.004799664,-0.000000651,0.001082417,-0.000038444,1.129807830,0.116151266,9.720145226
1784246183.405693,0.010351761,-0.116776109,0.004799203,-0.000166242,0.000867466,-0.000143365,1.137013197,0.081512831,9.726655006
1784246183.407692,0.010345632,-0.116779491,0.004800546,-0.000599075,0.000316822,0.000012183,1.152094364,0.101723000,9.692726135
1784246183.409694,0.010350802,-0.116775252,0.004800059,-0.000494341,0.000289469,0.000074093,1.153452396,0.105448052,9.733550072
1784246183.411724,0.010354773,-0.116772063,0.004804529,0.000292010,0.000747090,0.000249345,1.120749831,0.109931186,9.729063034
1784246183.413698,0.010347504,-0.116770543,0.004800138,-0.000004703,0.000892843,0.000212121,1.133061290,0.088731959,9.726697922
1784246183.415697,0.010341307,-0.116770364,0.004796735,-0.000928178,0.000703430,-0.000269062,1.114184737,0.088321954,9.755369186
1784246183.417720,0.010335958,-0.116768986,0.004798731,-0.001421125,0.000560961,-0.000204147,1.142683506,0.104369335,9.715599060
1784246183.419709,0.010337360,-0.116767190,0.004802604,-0.001255024,0.000628846,0.000278178,1.154335499,0.103701949,9.725468636
1784246183.421696,0.010337360,-0.116767190,0.004802604,-0.000663742,0.000708784,0.000702670,1.154335499,0.103701949,9.725468636
1784246183.423701,0.010339691,-0.116764762,0.004800536,-0.000286108,0.000770468,0.000542497,1.136082172,0.116823606,9.740331650
1784246183.425700,0.010339691,-0.116764762,0.004800536,-0.000064115,0.000818855,-0.000043601,1.136082172,0.116823606,9.740331650
1784246183.427718,0.010338526,-0.116764009,0.004800802,-0.000030880,0.000763059,-0.000074138,1.116344452,0.115901202,9.716544151
1784246183.429709,0.010346136,-0.116763055,0.004799130,0.000155222,0.000648559,-0.000078486,1.149567366,0.117651969,9.725553513
1784246183.431704,0.010347316,-0.116760917,0.004798159,0.000419128,0.000673308,-0.000333573,1.160128713,0.101692289,9.745637894
1784246183.433708,0.010348821,-0.116758317,0.004799174,0.000522131,0.000852743,-0.000265918,1.107578158,0.097087964,9.731657982
1784246183.435714,0.010347535,-0.116757803,0.004802988,0.000468617,0.000874747,0.000125542,1.139689922,0.117730774,9.732270241
1784246183.437711,0.010346065,-0.116761774,0.004805684,0.000207071,0.000406313,0.000552079,1.128824592,0.109001733,9.719202995
1784246183.439713,0.010352203,-0.116759270,0.004806511,0.000433360,0.000098118,0.000610927,1.149059534,0.111923285,9.712963104
1784246183.441714,0.010353684,-0.116758384,0.004802889,0.000747438,0.000198745,0.000204551,1.141654849,0.096050456,9.753205299
1784246183.443733,0.010352149,-0.116757952,0.004800232,0.000487753,0.000206428,-0.000273150,1.139473438,0.098595634,9.714213371
1784246183.445728,0.010351909,-0.116754957,0.004797757,0.000191442,0.000356620,-0.000530255,1.171699524,0.128651947,9.713990211
1784246183.447719,0.010353204,-0.116757989,0.004790875,0.000136696,0.000250188,-0.001025382,1.127690196,0.127305895,9.730526924
1784246183.449726,0.010354683,-0.116759613,0.004788289,0.000056562,-0.000204896,-0.001388243,1.139418721,0.095326349,9.733022690
1784246183.451722,0.010354250,-0.116757885,0.004782837,-0.000107042,-0.000211963,-0.001542633,1.160937428,0.093280815,9.729891777
1784246183.453727,0.010353442,-0.116757900,0.004776907,-0.000204463,0.000072079,-0.001888132,1.171974182,0.114305101,9.714793205
1784246183.455724,0.010353159,-0.116759792,0.004781095,-0.000189134,0.000040096,-0.001491153,1.168438911,0.118427269,9.708539963
1784246183.457726,0.010356775,-0.116764091,0.004783857,0.000141826,-0.000386066,-0.000644088,1.165902376,0.133063227,9.734187126
1784246183.459733,0.010368087,-0.116769403,0.004784878,0.000996371,-0.000881356,-0.000315895,1.156394005,0.088029534,9.720439911
1784246183.461732,0.010371666,-0.116769701,0.004786052,0.001604003,-0.000971357,-0.000183635,1.143120766,0.105894715,9.752372742
1784246183.463738,0.010372288,-0.116767868,0.004783283,0.001365145,-0.000560488,-0.000266232,1.142343760,0.114557378,9.732700348
1784246183.465734,0.010373733,-0.116768889,0.004782056,0.001028189,-0.000312529,-0.000471362,1.151794195,0.116276182,9.725995064
1784246183.467735,0.010376251,-0.116770409,0.004778545,0.000978842,-0.000403554,-0.000694206,1.152103424,0.105036423,9.730854988
1784246183.469738,0.010376971,-0.116772369,0.004769416,0.000799323,-0.000483106,-0.001380351,1.143086910,0.101980701,9.735758781
1784246183.471741,0.010377466,-0.116770223,0.004769701,0.000562147,-0.000289583,-0.001608190,1.139339089,0.089429736,9.743295670
1784246183.473744,0.010377101,-0.116769858,0.004773177,0.000497167,-0.000028974,-0.000924896,1.146702886,0.104978211,9.748783112
1784246183.475750,0.010374258,-0.116769210,0.004769843,0.000196070,0.000056946,-0.000644728,1.168891311,0.120070279,9.728726387
1784246183.477747,0.010372788,-0.116768084,0.004768549,-0.000184862,0.000159160,-0.000747545,1.147253513,0.111857221,9.725514412
1784246183.479743,0.010369982,-0.116769269,0.004772645,-0.000446088,0.000176349,-0.000317288,1.137479544,0.119236931,9.713447571
1784246183.481748,0.010368738,-0.116768420,0.004771645,-0.000618547,0.000170569,0.000014127,1.139045119,0.101193734,9.727678299
1784246183.483749,0.010363395,-0.116766304,0.004765990,-0.000885499,0.000333860,-0.000393596,1.161082029,0.104959600,9.725483894
1784246183.485756,0.010351794,-0.116763502,0.004764306,-0.001783787,0.000586177,-0.000654891,1.147981644,0.135536179,9.733736992
1784246183.487789,0.010347495,-0.116765559,0.004766140,-0.002370197,0.000478168,-0.000341308,1.142580628,0.135878250,9.758393288
1784246183.489763,0.010356260,-0.116769902,0.004771572,-0.001573499,-0.000047796,0.000229571,1.168131351,0.096140131,9.755919456
1784246183.491804,0.010359378,-0.116768941,0.004776717,-0.000466864,-0.000221636,0.000809919,1.143139124,0.105634339,9.725919724
1784246183.493764,0.010357141,-0.116767421,0.004774193,-0.000306129,0.000057543,0.000764584,1.145858765,0.107842825,9.725487709
1784246183.495768,0.010352966,-0.116767555,0.004770696,-0.000749211,0.000180176,0.000206716,1.122401237,0.099049024,9.744239807
1784246183.497761,0.010352016,-0.116765857,0.004767324,-0.000945651,0.000232595,-0.000271897,1.147523999,0.097475380,9.731251717
1784246183.499767,0.010353507,-0.116766371,0.004768720,-0.000709590,0.000282921,-0.000331063,1.122150064,0.075586893,9.704635620
1784246183.501765,0.010353264,-0.116770364,0.004772366,-0.000434368,-0.000062391,0.000093219,1.147250056,0.073835194,9.716752052
1784246183.503802,0.010348570,-0.116772756,0.004779436,-0.000470293,-0.000349943,0.000816919,1.150888920,0.118250854,9.765011787
1784246183.505776,0.010348524,-0.116769843,0.004782071,-0.000491222,-0.000091057,0.001274537,1.164941430,0.092552170,9.762170792
1784246183.507772,0.010352121,-0.116769254,0.004778700,-0.000124199,0.000170063,0.000850743,1.124473453,0.083078094,9.718134880
1784246183.509767,0.010353226,-0.116772160,0.004774083,0.000248185,-0.000069728,0.000034334,1.131240964,0.122901119,9.713465691
1784246183.511801,0.010352950,-0.116768993,0.004776426,0.000303463,-0.000064638,-0.000144562,1.145375609,0.105954982,9.739821434
1784246183.513993,0.010350078,-0.116768479,0.004777913,0.000038416,0.000227582,0.000177532,1.129847646,0.121329658,9.747975349
1784246183.515813,0.010348259,-0.116767131,0.004779526,-0.000264421,0.000315872,0.000375202,1.121002674,0.129759118,9.712602615
1784246183.517812,0.010347120,-0.116765849,0.004784433,-0.000340531,0.000413302,0.000736238,1.129243493,0.105520412,9.703936577
1784246183.519787,0.010339036,-0.116764970,0.004787167,-0.000812495,0.000451997,0.001124771,1.136472583,0.111089759,9.726844788
1784246183.521818,0.010334123,-0.116766609,0.004778485,-0.001518113,0.000273520,0.000521547,1.133997202,0.092265978,9.732101440
1784246183.523801,0.010336000,-0.116766721,0.004770954,-0.001398481,0.000051432,-0.000693628,1.135345101,0.092668071,9.736139297
1784246183.525800,0.010339055,-0.116765656,0.004769932,-0.000713653,0.000078423,-0.001125575,1.140367389,0.098152064,9.711969376
1784246183.527820,0.010342847,-0.116766252,0.004773807,-0.000035794,0.000091508,-0.000681819,1.158319831,0.099577211,9.731274605
1784246183.529819,0.010340170,-0.116767578,0.004779608,0.000130206,-0.000006521,0.000145783,1.152601838,0.109071858,9.729537010
1784246183.531808,0.010339533,-0.116764411,0.004782711,-0.000053441,0.000177450,0.000731569,1.152160883,0.108327955,9.708909035
1784246183.533819,0.010341572,-0.116764218,0.004775924,0.000014555,0.000386715,0.000274509,1.138744116,0.112090468,9.708023071
1784246183.535796,0.010346704,-0.116763957,0.004775410,0.000424226,0.000339059,-0.000347826,1.159130931,0.091994874,9.724950790
1784246183.537796,0.010348872,-0.116763711,0.004777223,0.000811479,0.000281844,-0.000223516,1.113898039,0.099333130,9.719574928
1784246183.539865,0.010346923,-0.116765507,0.004779798,0.000602847,0.000063803,0.000136057,1.155802131,0.075962603,9.717223167
1784246183.541810,0.010346944,-0.116767325,0.004779202,0.000286934,-0.000236379,0.000252539,1.174396753,0.092688978,9.725866318
1784246183.543799,0.010347793,-0.116764903,0.004780361,0.000278340,-0.000060690,0.000213582,1.163612127,0.091486268,9.725399971
1784246183.545803,0.010348204,-0.116764158,0.004785717,0.000345390,0.000244064,0.000583443,1.171726942,0.096141830,9.749198914
1784246183.547807,0.010348674,-0.116764404,0.004785986,0.000355478,0.000214835,0.000797267,1.122480631,0.104539029,9.728133202
1784246183.549801,0.010349710,-0.116762750,0.004787605,0.000345356,0.000195281,0.000700291,1.120309234,0.110000536,9.720098495
1784246183.551811,0.010348972,-0.116760120,0.004791497,0.000285281,0.000378045,0.000883385,1.144127727,0.112421751,9.714756012
1784246183.553806,0.010347339,-0.116753563,0.004787274,0.000047844,0.000911582,0.000639602,1.134156704,0.105279118,9.729044914
1784246183.555814,0.010347075,-0.116750024,0.004785066,-0.000141621,0.001356979,0.000047107,1.148230910,0.082182340,9.738327026
1784246183.557808,0.010352547,-0.116756730,0.004787769,0.000251989,0.000773208,0.000026456,1.152266741,0.117674708,9.717487335
1784246183.559809,0.010360051,-0.116765380,0.004790756,0.000964490,-0.000342506,0.000315123,1.144894242,0.101649635,9.716032028
1784246183.561813,0.010353762,-0.116766982,0.004795839,0.000709223,-0.000806507,0.000778852,1.147194743,0.107339457,9.730865479
1784246183.563820,0.010347536,-0.116768286,0.004794645,-0.000375784,-0.000719746,0.000937093,1.162533641,0.113879316,9.728681564
1784246183.565818,0.010346971,-0.116768926,0.004787823,-0.000874304,-0.000600489,0.000204712,1.130258918,0.117381282,9.735396385
1784246183.567831,0.010342113,-0.116771266,0.004789859,-0.001040441,-0.000642948,-0.000130658,1.143611550,0.107436344,9.723690033
1784246183.569827,0.010339542,-0.116767891,0.004793178,-0.001268520,-0.000389054,0.000330466,1.150246739,0.099302687,9.721401215
1784246183.571827,0.010339199,-0.116766684,0.004786930,-0.001195674,0.000030970,0.000072369,1.138033986,0.093418196,9.751838684
1784246183.573820,0.010338080,-0.116770022,0.004783517,-0.001038461,-0.000165269,-0.000587631,1.125970483,0.097220719,9.742884636
1784246183.575823,0.010332280,-0.116774254,0.004786499,-0.001218707,-0.000669128,-0.000402996,1.151520967,0.094665930,9.741100311
1784246183.577828,0.010330438,-0.116776377,0.004790233,-0.001349823,-0.000913180,0.000219592,1.118336201,0.094027296,9.701610565
1784246183.579830,0.010332454,-0.116769888,0.004788465,-0.000858828,-0.000446886,0.000280523,1.158026099,0.111747861,9.721488953
1784246183.581828,0.010331417,-0.116764233,0.004786178,-0.000494492,0.000417254,-0.000087350,1.142180085,0.102322511,9.752347946
1784246183.583828,0.010326092,-0.116768621,0.004787260,-0.000834338,0.000313671,-0.000089610,1.126139283,0.111117072,9.741628647
1784246183.585835,0.010326257,-0.116775624,0.004780491,-0.001036293,-0.000624360,-0.000402870,1.126293182,0.086089090,9.732501984
1784246183.587840,0.010328144,-0.116777241,0.004782259,-0.000656148,-0.001043292,-0.000646818,1.123216748,0.090691604,9.720871925
1784246183.589840,0.010319766,-0.116777971,0.004781537,-0.000864393,-0.000968142,-0.000353836,1.134136558,0.103903413,9.733521461
1784246183.591837,0.010306627,-0.116782524,0.004778557,-0.002066560,-0.001116843,-0.000341774,1.128221393,0.096845761,9.728538513
1784246183.593839,0.010304020,-0.116786525,0.004785978,-0.002511198,-0.001376911,0.000172303,1.165845156,0.092184916,9.749168396
1784246183.595854,0.010303923,-0.116788663,0.004788578,-0.001911768,-0.001397992,0.000819985,1.121713400,0.114494696,9.715643883
1784246183.597842,0.010305793,-0.116788290,0.004783929,-0.001289331,-0.001140163,0.000445196,1.142300606,0.108946897,9.702626228
1784246183.599845,0.010307075,-0.116792127,0.004777715,-0.000889867,-0.001056097,-0.000424206,1.137523770,0.086453721,9.723997116
1784246183.601852,0.010307322,-0.116799735,0.004774702,-0.000695410,-0.001534566,-0.000934355,1.137608647,0.094418451,9.737947464
1784246183.603847,0.010307302,-0.116799660,0.004779255,-0.000444477,-0.001654742,-0.000582475,1.128801703,0.108010411,9.732645035
1784246183.605848,0.010309288,-0.116796717,0.004778382,-0.000127626,-0.001024541,-0.000195559,1.135540724,0.108801045,9.735347748
1784246183.607858,0.010309751,-0.116795287,0.004774373,0.000033438,-0.000453156,-0.000490838,1.152130008,0.106462970,9.719206810
1784246183.609850,0.010309655,-0.116799563,0.004773475,0.000001220,-0.000485388,-0.000690630,1.157993197,0.109056912,9.721920967
1784246183.611851,0.010301663,-0.116798975,0.004777295,-0.000530489,-0.000561038,-0.000241565,1.155642033,0.100536242,9.727243423
1784246183.613851,0.010297338,-0.116796978,0.004776726,-0.001202749,-0.000199426,0.000141599,1.126162767,0.113328248,9.745678902
1784246183.615859,0.010302073,-0.116800435,0.004776947,-0.000862934,-0.000212826,0.000077521,1.146757722,0.109464191,9.747915268
1784246183.617854,0.010307164,-0.116800971,0.004776692,0.000033460,-0.000427243,-0.000023424,1.158324480,0.100018829,9.732173920
1784246183.619859,0.010306051,-0.116798021,0.004773878,0.000276498,-0.000074050,-0.000257241,1.150660396,0.096590102,9.724075317
1784246183.621860,0.010306245,-0.116797514,0.004776529,0.000146415,0.000257117,-0.000192977,1.150036335,0.117805220,9.703138351
1784246183.623907,0.010310514,-0.116796240,0.004773934,0.000339405,0.000351383,-0.000164575,1.134338498,0.121707402,9.749775887
1784246183.625911,0.010308877,-0.116793208,0.004769685,0.000302043,0.000586733,-0.000594534,1.117492795,0.100948632,9.737970352
1784246183.627885,0.010307991,-0.116791882,0.004772480,0.000038448,0.000722299,-0.000511190,1.120716095,0.106017195,9.712450027
1784246183.629914,0.010306323,-0.116789013,0.004777259,-0.000119479,0.000762929,0.000163017,1.113975883,0.107647270,9.747424126
1784246183.631882,0.010299900,-0.116788954,0.004779120,-0.000615125,0.000706745,0.000635035,1.137284279,0.104727298,9.738012314
1784246183.633881,0.010296404,-0.116791219,0.004774321,-0.001158786,0.000365673,0.000345120,1.160603762,0.102703266,9.728607178
1784246183.635884,0.010298394,-0.116788454,0.004768894,-0.001045320,0.000295135,-0.000423886,1.121109366,0.103142448,9.737986565
1784246183.637875,0.010300608,-0.116784789,0.004772874,-0.000489417,0.000649306,-0.000439532,1.151325822,0.114099339,9.717911720
1784246183.639874,0.010308869,-0.116786689,0.004775521,0.000309548,0.000665979,0.000053801,1.146146178,0.095621303,9.742445946
1784246183.641879,0.010310466,-0.116789199,0.004768411,0.000762132,0.000252078,-0.000329514,1.143717527,0.116783105,9.732267380
1784246183.643886,0.010309795,-0.116789564,0.004766022,0.000478179,-0.000005169,-0.000880261,1.147157073,0.102990218,9.712456703
1784246183.645885,0.010312714,-0.116787478,0.004768471,0.000436026,0.000125765,-0.000647625,1.119440317,0.076294735,9.736020088
1784246183.647887,0.010321308,-0.116789982,0.004772372,0.001144186,0.000067085,-0.000134853,1.142881393,0.122141533,9.736336708
1784246183.649884,0.010324840,-0.116785608,0.004771929,0.001662110,0.000169527,0.000040939,1.138030767,0.128549352,9.726061821
1784246183.651888,0.010320636,-0.116784751,0.004773255,0.001156038,0.000470113,0.000096649,1.154792666,0.104573041,9.728165627
1784246183.653884,0.010321186,-0.116786882,0.004775681,0.000637341,0.000239396,0.000351111,1.134980083,0.099008873,9.727213860
1784246183.655888,0.010321328,-0.116787128,0.004776446,0.000548139,-0.000003345,0.000464320,1.115681648,0.099627748,9.737958908
1784246183.657886,0.010319376,-0.116785929,0.004772418,0.000251657,0.000058852,0.000132563,1.141451001,0.115010463,9.733599663
1784246183.659887,0.010323516,-0.116781458,0.004772036,0.000274280,0.000408240,-0.000215355,1.170167208,0.117472999,9.776681900
1784246183.661888,0.010327261,-0.116779387,0.004774314,0.000724532,0.000727761,-0.000088671,1.154965639,0.119717874,9.740367889
1784246183.663891,0.010329627,-0.116780832,0.004768339,0.000886791,0.000604545,-0.000359666,1.161218405,0.116571613,9.730488777
1784246183.665899,0.010328196,-0.116779327,0.004762231,0.000589846,0.000468472,-0.001081503,1.139060855,0.102534443,9.728137016
1784246183.667902,0.010325436,-0.116781220,0.004766928,0.000136084,0.000313258,-0.000849867,1.120299459,0.109517604,9.725026131
1784246183.669894,0.010322036,-0.116783306,0.004768023,-0.000289012,-0.000071881,-0.000177338,1.152704597,0.117583118,9.729591370
1784246183.671898,0.010328438,-0.116782457,0.004763647,-0.000052712,-0.000174140,-0.000371516,1.137020588,0.120376728,9.743044853
1784246183.673897,0.010328700,-0.116779782,0.004763538,0.000322073,0.000073830,-0.000619165,1.138040543,0.093065649,9.738386154
1784246183.675904,0.010317050,-0.116773181,0.004758119,-0.000630374,0.000645228,-0.000727137,1.137394786,0.113298990,9.729549408
1784246183.677904,0.010309256,-0.116770044,0.004751532,-0.001865105,0.001123640,-0.001185395,1.130554557,0.103603229,9.719167709
1784246183.679901,0.010307351,-0.116772801,0.004749597,-0.002102482,0.000870048,-0.001359068,1.132859945,0.110547878,9.746563911
1784246183.681903,0.010307867,-0.116773792,0.004747189,-0.001682236,0.000407597,-0.001269569,1.147134423,0.138375357,9.714028358
1784246183.683914,0.010307386,-0.116770364,0.004744528,-0.001353592,0.000466779,-0.001256283,1.136885762,0.107967369,9.724134445
1784246183.685914,0.010308979,-0.116765991,0.004753797,-0.000949238,0.000881337,-0.000468046,1.128693104,0.098237962,9.720926285
1784246183.687937,0.010306835,-0.116767958,0.004762315,-0.000588075,0.000817987,0.000862424,1.143144250,0.106485747,9.732201576
1784246183.689954,0.010303210,-0.116770752,0.004759892,-0.000798517,0.000295503,0.001088126,1.132220626,0.094458826,9.741976738
1784246183.691929,0.010305989,-0.116767175,0.004752422,-0.000746358,0.000279510,0.000135694,1.151599765,0.101366259,9.743832588
1784246183.693961,0.010307705,-0.116762958,0.004756836,-0.000288662,0.000710768,-0.000139817,1.135365486,0.094450392,9.737497330
1784246183.695927,0.010301141,-0.116763145,0.004757608,-0.000519942,0.000775162,0.000289000,1.137836576,0.112022489,9.719229698
1784246183.697922,0.010296836,-0.116764799,0.004750604,-0.001161042,0.000435612,-0.000123587,1.153615475,0.118893243,9.732738495
1784246183.699917,0.010298993,-0.116773702,0.004748513,-0.001127095,-0.000355574,-0.000679112,1.139866948,0.095317431,9.733471870
1784246183.702033,0.010295263,-0.116774976,0.004750152,-0.000994889,-0.000900648,-0.000505803,1.134198189,0.107226752,9.707090378
1784246183.703962,0.010292482,-0.116770789,0.004753741,-0.001161605,-0.000451475,0.000039939,1.141788363,0.106020063,9.737128258
1784246183.705947,0.010295500,-0.116774127,0.004748134,-0.000885566,-0.000269217,-0.000104223,1.145757079,0.100151174,9.736196518
1784246183.707942,0.010298937,-0.116777726,0.004741237,-0.000308835,-0.000675822,-0.000969829,1.153073788,0.074900858,9.745458603
1784246183.709944,0.010295702,-0.116778240,0.004741506,-0.000176079,-0.000701599,-0.001166119,1.135242224,0.083346747,9.723974228
1784246183.711937,0.010291691,-0.116780289,0.004740964,-0.000531354,-0.000610497,-0.000821822,1.139741778,0.121787868,9.728710175
1784246183.713934,0.010290803,-0.116778933,0.004743561,-0.000808443,-0.000526930,-0.000408473,1.132408619,0.108911224,9.725481033
1784246183.715937,0.010288054,-0.116780087,0.004737013,-0.000972556,-0.000409916,-0.000522170,1.168268085,0.105731726,9.729980469
1784246183.717940,0.010282833,-0.116786599,0.004734963,-0.001313827,-0.000824488,-0.000896964,1.143964648,0.100596689,9.739785194
1784246183.719942,0.010274484,-0.116788976,0.004732122,-0.001853573,-0.001233127,-0.000882225,1.136819482,0.104199238,9.750113487
1784246183.721943,0.010270325,-0.116782144,0.004724649,-0.002218035,-0.000628841,-0.001245505,1.152093291,0.104146861,9.729954720
1784246183.723944,0.010272868,-0.116779089,0.004721158,-0.001827118,0.000291049,-0.001632798,1.140570045,0.115555771,9.721496582
1784246183.725954,0.010273317,-0.116784237,0.004714434,-0.001225726,0.000147691,-0.001900914,1.128198385,0.132227734,9.730559349
1784246183.727955,0.010277183,-0.116785601,0.004715368,-0.000647773,-0.000338006,-0.001809306,1.146675467,0.103545301,9.761325836
1784246183.729994,0.010277901,-0.116785549,0.004722436,-0.000061952,-0.000303271,-0.000819503,1.138162136,0.102129802,9.723649979
1784246183.731955,0.010280265,-0.116787218,0.004726939,0.000291692,-0.000296727,0.000154064,1.150520086,0.121319555,9.712129593
1784246183.733988,0.010281375,-0.116788551,0.004723611,0.000350731,-0.000411607,0.000176346,1.141097307,0.123060428,9.736340523
1784246183.735971,0.010283495,-0.116788417,0.004716847,0.000288259,-0.000381515,-0.000565132,1.144050241,0.108974427,9.758669853
1784246183.737955,0.010286973,-0.116789393,0.004712113,0.000496357,-0.000343554,-0.001231161,1.143965602,0.099389553,9.720500946
1784246183.739959,0.010282323,-0.116790324,0.004715055,0.000302559,-0.000334491,-0.001012988,1.129665017,0.104488373,9.722311974
1784246183.741960,0.010274148,-0.116787873,0.004718328,-0.000560779,-0.000089987,-0.000222059,1.148490548,0.103684485,9.738465309
1784246183.743958,0.010270755,-0.116786182,0.004725093,-0.001116833,0.000193792,0.000607553,1.138587832,0.100726105,9.731263161
1784246183.745969,0.010272356,-0.116786726,0.004727101,-0.000872810,0.000196528,0.001049346,1.159724355,0.105694704,9.750594139
1784246183.747975,0.010271715,-0.116786890,0.004723221,-0.000585956,0.000093888,0.000630653,1.132083535,0.082030386,9.725756645
1784246183.749974,0.010267166,-0.116787612,0.004722572,-0.000684573,-0.000030680,0.000180460,1.119591713,0.088027582,9.723990440
1784246183.751962,0.010267125,-0.116787359,0.004724925,-0.000666626,-0.000088941,0.000268014,1.118298411,0.090891577,9.701590538
1784246183.753968,0.010269429,-0.116788611,0.004726243,-0.000274883,-0.000208017,0.000422230,1.135802150,0.093539178,9.738836288
1784246183.755970,0.010276760,-0.116790518,0.004727319,0.000497427,-0.000443121,0.000390107,1.139101028,0.107309416,9.749688148
1784246183.757972,0.010277756,-0.116787851,0.004727934,0.000937282,-0.000270862,0.000332321,1.166951418,0.108411305,9.733581543
1784246183.759967,0.010273244,-0.116786979,0.004727143,0.000465427,0.000151378,0.000254516,1.136189342,0.123343058,9.705403328
1784246183.761968,0.010271984,-0.116788089,0.004732826,0.000009612,0.000205981,0.000557284,1.141525865,0.082468897,9.710077286
1784246183.763975,0.010272279,-0.116789214,0.004736890,0.000054383,0.000041933,0.001066139,1.151963949,0.093398981,9.729434967
1784246183.765985,0.010271672,-0.116789483,0.004739441,0.000106182,-0.000022455,0.001220551,1.120690107,0.103380293,9.705260277
1784246183.767983,0.010271722,-0.116784103,0.004737013,0.000040772,0.000330390,0.000901858,1.133824110,0.077931225,9.732009888
1784246183.769978,0.010269925,-0.116779715,0.004731771,-0.000093092,0.000861561,0.000147582,1.134455681,0.057179965,9.750706673
1784246183.771976,0.010268746,-0.116778582,0.004730244,-0.000266220,0.000960899,-0.000331416,1.166441679,0.066293411,9.734656334
1784246183.773977,0.010265684,-0.116781645,0.004734183,-0.000416425,0.000615670,-0.000050912,1.147123933,0.103132933,9.755496979
1784246183.775985,0.010265447,-0.116785102,0.004737833,-0.000421512,0.000054959,0.000494859,1.155699253,0.106661446,9.747906685
1784246183.777982,0.010263892,-0.116785839,0.004737054,-0.000405187,-0.000243741,0.000568159,1.149421215,0.106367104,9.737586975
1784246183.779988,0.010259951,-0.116783164,0.004735535,-0.000658634,0.000011491,0.000298837,1.115715742,0.139108121,9.730591774
1784246183.781997,0.010264910,-0.116782442,0.004738753,-0.000372556,0.000299016,0.000320575,1.146424174,0.116863079,9.716131210
1784246183.783988,0.010270800,-0.116781853,0.004738810,0.000448704,0.000339653,0.000372547,1.155550599,0.092924096,9.726745605
1784246183.785998,0.010272117,-0.116777793,0.004734651,0.000743103,0.000591401,-0.000058184,1.140739083,0.092675388,9.725384712
1784246183.787998,0.010266989,-0.116773210,0.004735084,0.000254750,0.001015701,-0.000263431,1.121251225,0.076398931,9.718089104
1784246183.789994,0.010259707,-0.116775155,0.004733788,-0.000558281,0.000896199,-0.000163340,1.144062161,0.109066628,9.745668411
1784246183.791995,0.010253870,-0.116782002,0.004734610,-0.001195193,0.000035437,-0.000058702,1.160785079,0.081134982,9.736987114
1784246183.793994,0.010253223,-0.116789058,0.004730584,-0.001245908,-0.000882623,-0.000218113,1.150132656,0.090702407,9.733900070
1784246183.796008,0.010253199,-0.116789743,0.004725970,-0.000933864,-0.001138656,-0.000746580,1.125975251,0.096448809,9.725394249
1784246183.798003,0.010252389,-0.116791368,0.004730097,-0.000740343,-0.000986256,-0.000570122,1.140595675,0.118596114,9.734967232
1784246183.800004,0.010254979,-0.116795190,0.004734854,-0.000367760,-0.001061486,0.000171518,1.140475988,0.110761382,9.765851021
1784246183.802007,0.010254137,-0.116799727,0.004738961,-0.000098482,-0.001314259,0.000710688,1.152928591,0.099592157,9.738890648
1784246183.804003,0.010255063,-0.116804779,0.004736594,-0.000046796,-0.001583962,0.000633415,1.141962409,0.082367755,9.723526955
1784246183.806016,0.010252945,-0.116807587,0.004733594,-0.000151479,-0.001668030,0.000108175,1.149345994,0.098478675,9.712877274
1784246183.808010,0.010254315,-0.116806760,0.004733173,-0.000187791,-0.001352495,-0.000145931,1.151516914,0.093824066,9.733473778
1784246183.810005,0.010263335,-0.116802596,0.004739562,0.000603481,-0.000630791,0.000214549,1.141251564,0.098845720,9.738875389
1784246183.812010,0.010268474,-0.116802640,0.004741191,0.001450259,-0.000162614,0.000585575,1.141468644,0.078370474,9.719466209
1784246183.814014,0.010264010,-0.116804488,0.004736132,0.001123931,-0.000239268,0.000184120,1.139826775,0.092162624,9.736142159
1784246183.816016,0.010260032,-0.116808087,0.004732906,0.000233227,-0.000538508,-0.000363454,1.161850333,0.132196799,9.737316132
1784246183.818010,0.010254038,-0.116811104,0.004728640,-0.000561424,-0.000845368,-0.000690876,1.146378875,0.113263495,9.718349457
1784246183.820012,0.010253733,-0.116809383,0.004722406,-0.000918514,-0.000673883,-0.001161519,1.106462717,0.117568351,9.751963615
1784246183.822013,0.010256137,-0.116809495,0.004713263,-0.000651251,-0.000354218,-0.001899595,1.119741797,0.101774462,9.743804932
1784246183.824017,0.010256056,-0.116805986,0.004710380,-0.000348013,-0.000069847,-0.002220194,1.135266542,0.086374365,9.739237785
1784246183.826027,0.010255354,-0.116803735,0.004720700,-0.000182609,0.000309715,-0.001117041,1.128333569,0.106243402,9.729944229
1784246183.828025,0.010261774,-0.116802782,0.004725165,0.000369340,0.000452808,0.000137832,1.127651930,0.086983651,9.730266571
1784246183.830031,0.010270554,-0.116802171,0.004723208,0.001314420,0.000412736,0.000149462,1.146567702,0.092969127,9.736599922
1784246183.832023,0.010270970,-0.116801612,0.004724011,0.001569085,0.000353441,-0.000041493,1.159170866,0.095956586,9.734839439
1784246183.834029,0.010267455,-0.116802849,0.004729718,0.000993213,0.000260693,0.000431674,1.134795785,0.120554909,9.721972466
1784246183.836035,0.010265202,-0.116804659,0.004730189,0.000391148,0.000033103,0.000775190,1.144535542,0.110471532,9.736264229
1784246183.838037,0.010264677,-0.116803057,0.004732226,0.000117475,0.000011182,0.000755724,1.134716749,0.113851383,9.719687462
1784246183.840066,0.010269882,-0.116799966,0.004735156,0.000409303,0.000295238,0.000852306,1.153367877,0.099916711,9.755483627
1784246183.842039,0.010273831,-0.116796516,0.004735859,0.000912834,0.000625803,0.000797454,1.127264857,0.091122799,9.715947151
1784246183.844036,0.010271982,-0.116794832,0.004740753,0.000898186,0.000743628,0.000936721,1.110192180,0.089546248,9.716369629
1784246183.846044,0.010273505,-0.116792701,0.004741428,0.000723783,0.000741121,0.001055476,1.170891047,0.099070027,9.716937065
1784246183.848034,0.010272486,-0.116797261,0.004731318,0.000486594,0.000368698,0.000128846,1.141332150,0.105155326,9.733536720
1784246183.850035,0.010264752,-0.116803847,0.004722296,-0.000378059,-0.000467582,-0.001128099,1.120885491,0.121943459,9.740797043
1784246183.852037,0.010262483,-0.116808601,0.004724891,-0.000991954,-0.001082288,-0.001177289,1.158467054,0.111275077,9.724176407
1784246183.854042,0.010264906,-0.116805062,0.004730977,-0.000691793,-0.000769944,-0.000269006,1.146343231,0.110550277,9.721919060
1784246183.856045,0.010264923,-0.116795674,0.004726960,-0.000371271,0.000413332,-0.000071192,1.157569289,0.111690015,9.730454445
1784246183.858040,0.010268380,-0.116793245,0.004724921,-0.000084140,0.001098197,-0.000487595,1.138321280,0.114733115,9.715213776
1784246183.860050,0.010272914,-0.116794743,0.004726407,0.000441448,0.000835633,-0.000451695,1.173042178,0.129012734,9.723855972
1784246183.862060,0.010272720,-0.116798513,0.004731934,0.000637754,0.000229068,0.000113402,1.145630360,0.122555345,9.673128128
1784246183.864051,0.010274678,-0.116800092,0.004735260,0.000618089,-0.000175942,0.000669430,1.142693758,0.106882229,9.740274429
1784246183.866049,0.010279114,-0.116802454,0.004733577,0.000859108,-0.000380534,0.000551898,1.147555113,0.100963689,9.744723320
1784246183.868050,0.010279244,-0.116802916,0.004732197,0.000909456,-0.000472349,0.000159516,1.147727251,0.114075392,9.727770805
1784246183.870048,0.010277392,-0.116800286,0.004733999,0.000497550,-0.000158186,0.000163910,1.142354012,0.115853548,9.739434242
1784246183.872055,0.010278893,-0.116797477,0.004741639,0.000361296,0.000299250,0.000764354,1.155376196,0.116169773,9.734516144
1784246183.874064,0.010281902,-0.116796583,0.004743462,0.000586187,0.000503218,0.001165462,1.137604356,0.093169965,9.724489212
1784246183.876065,0.010277912,-0.116799429,0.004742651,0.000313085,0.000263745,0.000931306,1.134076238,0.097752795,9.716444969
1784246183.878065,0.010276265,-0.116798557,0.004740532,-0.000174962,0.000057850,0.000525418,1.141348124,0.106092565,9.727713585
1784246183.880060,0.010277726,-0.116801299,0.004744867,-0.000151571,-0.000098110,0.000537183,1.148333788,0.126663417,9.720678329
1784246183.882059,0.010277036,-0.116803005,0.004752489,0.000006786,-0.000379227,0.001194909,1.154214859,0.093024023,9.715089798
1784246183.884059,0.010273698,-0.116804078,0.004751539,-0.000200354,-0.000380556,0.001349745,1.148265600,0.122882582,9.748451233
1784246183.886071,0.010276691,-0.116802372,0.004744352,-0.000219885,-0.000160643,0.000435027,1.163892865,0.114370428,9.720168114
1784246183.888067,0.010287469,-0.116801068,0.004741571,0.000689473,0.000081038,-0.000464087,1.136561036,0.118676484,9.730927467
1784246183.890068,0.010290123,-0.116798528,0.004741186,0.001315033,0.000290619,-0.000649608,1.139157534,0.109781317,9.716975212
1784246183.892067,0.010289187,-0.116800770,0.004735117,0.000954752,0.000200881,-0.000913767,1.149472475,0.107987612,9.698592186
1784246183.894075,0.010288963,-0.116803192,0.004736284,0.000526545,-0.000115469,-0.000981503,1.146826506,0.113248199,9.719695091
1784246183.896074,0.010288417,-0.116803437,0.004738308,0.000305254,-0.000206231,-0.000488372,1.147048831,0.096057780,9.742449760
1784246183.898069,0.010291146,-0.116799183,0.004738067,0.000383669,0.000121823,-0.000252917,1.154207826,0.093373396,9.728990555
1784246183.900071,0.010299482,-0.116796099,0.004734515,0.001022757,0.000573289,-0.000530577,1.152604342,0.109901004,9.738957405
1784246183.902086,0.010308259,-0.116795354,0.004734973,0.001901616,0.000663732,-0.000733521,1.142510653,0.129247859,9.745796204
1784246183.904151,0.010310671,-0.116796337,0.004741999,0.002103357,0.000477598,-0.000107237,1.150257945,0.102228567,9.751009941
1784246183.906086,0.010317927,-0.116797492,0.004746015,0.002176033,0.000215259,0.000600906,1.146305203,0.107007928,9.716068268
1784246183.908081,0.010321735,-0.116797872,0.004752037,0.002410377,0.000058743,0.001027002,1.161781430,0.089199498,9.735246658
1784246183.910087,0.010318545,-0.116797835,0.004754527,0.001841445,0.000096802,0.001319029,1.142692447,0.106872685,9.741618156
1784246183.912084,0.010320937,-0.116796210,0.004752357,0.001266938,0.000255569,0.000990689,1.153133512,0.116204880,9.733618736
1784246183.914082,0.010325097,-0.116802916,0.004752995,0.001331532,-0.000136852,0.000568916,1.133889079,0.120896704,9.738561630
1784246183.916090,0.010327140,-0.116805874,0.004755579,0.001392573,-0.000730856,0.000584896,1.111682415,0.102824740,9.736630440
1784246183.918094,0.010326896,-0.116807692,0.004754951,0.001151216,-0.000854181,0.000543652,1.126934528,0.103004098,9.746957779
1784246183.920095,0.010327213,-0.116807163,0.004759172,0.000850480,-0.000763457,0.000640777,1.147285342,0.114945270,9.732259750
1784246183.922088,0.010321354,-0.116808310,0.004769664,0.000340802,-0.000645105,0.001505640,1.150503159,0.083999492,9.730719566
1784246183.924090,0.010321690,-0.116815098,0.004768908,0.000002201,-0.000953119,0.001790554,1.128532887,0.085625090,9.730708122
1784246183.926099,0.010324501,-0.116820075,0.004764875,0.000225191,-0.001446137,0.000950357,1.145405412,0.107406981,9.724587440
1784246183.928098,0.010323666,-0.116814047,0.004756452,0.000198752,-0.000990196,-0.000162928,1.156719208,0.115317009,9.725995064
1784246183.930104,0.010322384,-0.116812199,0.004757053,-0.000068985,-0.000153494,-0.000628544,1.167148709,0.123343468,9.712605476
1784246183.932098,0.010319153,-0.116813481,0.004759019,-0.000343347,-0.000033516,-0.000248521,1.172668815,0.097696796,9.717826843
1784246183.934098,0.010316030,-0.116819538,0.004756656,-0.000710759,-0.000429178,-0.000155154,1.145495653,0.112576202,9.690546989
1784246183.936107,0.010314746,-0.116823375,0.004751072,-0.000906788,-0.000894969,-0.000611515,1.123431444,0.108597338,9.722781181
1784246183.938102,0.010324768,-0.116823740,0.004752208,-0.000106458,-0.000939251,-0.000814465,1.154589534,0.087976225,9.731196404
1784246183.940103,0.010332751,-0.116823569,0.004756265,0.001147239,-0.000694296,-0.000382043,1.141892791,0.077360697,9.734703064
1784246183.942114,0.010337272,-0.116822727,0.004751932,0.001646281,-0.000437393,-0.000392182,1.141765118,0.105025560,9.751020432
1784246183.944145,0.010340167,-0.116814710,0.004749290,0.001636034,0.000206315,-0.000812810,1.159526825,0.126325741,9.748036385
1784246183.946122,0.010344569,-0.116810545,0.004752997,0.001684039,0.000905321,-0.000576309,1.165855527,0.091457509,9.725401878
1784246183.948117,0.010340997,-0.116809614,0.004749042,0.001280709,0.001005505,-0.000443100,1.147213459,0.070302382,9.709556580
1784246183.950118,0.010338202,-0.116813622,0.004751768,0.000601221,0.000524782,-0.000367807,1.147479653,0.093478702,9.726293564
1784246183.952113,0.010338853,-0.116812482,0.004764119,0.000519874,0.000199588,0.000752896,1.140437126,0.104375817,9.718734741
1784246183.954123,0.010339656,-0.116807006,0.004766367,0.000612201,0.000591357,0.001518904,1.141091704,0.120179087,9.700455666
1784246183.956119,0.010338159,-0.116805077,0.004765343,0.000428867,0.000920881,0.001192242,1.148196340,0.115041874,9.717018127
1784246183.958129,0.010338269,-0.116809875,0.004768221,0.000233534,0.000477300,0.001004521,1.147735596,0.116572380,9.754687309
1784246183.960122,0.010340626,-0.116812870,0.004772949,0.000376128,-0.000175115,0.001227422,1.153167605,0.119715422,9.743951797
1784246183.962120,0.010345001,-0.116815947,0.004767238,0.000699605,-0.000541002,0.000777001,1.157732010,0.125132024,9.730093002
1784246183.964126,0.010348207,-0.116814911,0.004759990,0.000868010,-0.000513854,-0.000361929,1.159569740,0.091506198,9.729879379
1784246183.966127,0.010350464,-0.116811566,0.004765849,0.000939416,-0.000048414,-0.000394946,1.141359925,0.106994867,9.726821899
1784246183.968143,0.010352613,-0.116807088,0.004768218,0.001046450,0.000502066,0.000232131,1.155482531,0.124709651,9.730537415
1784246183.970128,0.010356922,-0.116810180,0.004767502,0.001157183,0.000491518,0.000235415,1.169221282,0.109402493,9.716105461
1784246183.972132,0.010350578,-0.116814502,0.004761580,0.000599619,-0.000118270,-0.000253961,1.144077778,0.107973926,9.710243225
1784246183.974134,0.010348980,-0.116817877,0.004762041,-0.000187115,-0.000613162,-0.000484990,1.149516463,0.113197818,9.721939087
1784246183.976132,0.010354026,-0.116821833,0.004759619,0.000035291,-0.000947151,-0.000507467,1.141888618,0.113295533,9.721931458
1784246183.978131,0.010362943,-0.116818391,0.004756896,0.000926291,-0.000728459,-0.000826989,1.165232658,0.113898866,9.721061707
1784246183.980132,0.010366491,-0.116816163,0.004755043,0.001417795,-0.000081798,-0.001003137,1.148641348,0.114194259,9.709391594
1784246183.982135,0.010360215,-0.116819218,0.004753153,0.000758101,-0.000050826,-0.000955010,1.145029664,0.112851851,9.715656281
1784246183.984150,0.010356111,-0.116820306,0.004757063,-0.000179252,-0.000368089,-0.000471274,1.150146604,0.091217138,9.724488258
1784246183.986155,0.010357521,-0.116820775,0.004753961,-0.000353586,-0.000423817,-0.000261507,1.166224957,0.085961759,9.741506577
1784246183.988286,0.010364007,-0.116818182,0.004755765,0.000264545,-0.000165024,-0.000340515,1.137719154,0.102990128,9.729484558
1784246183.990189,0.010373447,-0.116816111,0.004757092,0.001276886,0.000213996,-0.000161444,1.136563897,0.118698724,9.727789879
1784246183.992200,0.010380181,-0.116812468,0.004759200,0.002033181,0.000561792,-0.000012512,1.143438578,0.093508184,9.729429245
1784246183.994219,0.010383707,-0.116811849,0.004761765,0.002239153,0.000710107,0.000221213,1.138634086,0.103928603,9.721869469
1784246183.996197,0.010384666,-0.116811812,0.004760219,0.001971126,0.000571889,0.000190873,1.148915887,0.101060919,9.728585243
1784246183.998174,0.010381401,-0.116812274,0.004760310,0.001268936,0.000387333,0.000059187,1.147682190,0.109262295,9.711600304
1784246184.000202,0.010376806,-0.116817750,0.004762715,0.000301515,-0.000032179,0.000285875,1.158275962,0.094773650,9.713759422
1784246184.002167,0.010369767,-0.116818979,0.004762888,-0.000657024,-0.000389271,0.000486429,1.141350031,0.143291831,9.726160049
1784246184.004170,0.010376007,-0.116818130,0.004755773,-0.000754029,-0.000381477,-0.000087094,1.128319740,0.106132112,9.745635033
1784246184.006175,0.010380549,-0.116817623,0.004755727,-0.000045660,-0.000257540,-0.000611314,1.130436182,0.095781185,9.748259544
1784246184.008168,0.010377822,-0.116817206,0.004757119,-0.000073001,-0.000093935,-0.000253534,1.149466276,0.109963506,9.735816002
1784246184.010168,0.010383271,-0.116823032,0.004783638,-0.000490736,-0.000060106,-0.000107711,1.162367582,0.112264134,9.725084305
1784246184.012161,0.010382263,-0.116828091,0.004786928,-0.000491365,-0.000435069,-0.000002606,1.163105488,0.124977194,9.742201805
1784246184.014172,0.010380790,-0.116834082,0.004786275,-0.000585852,-0.001014010,0.000204489,1.132477641,0.114725180,9.726863861
1784246184.016169,0.010376936,-0.116834827,0.004786841,-0.000868126,-0.001144478,0.000194173,1.145305872,0.100541301,9.745165825
1784246184.018180,0.010370914,-0.116829500,0.004790395,-0.001265573,-0.000519369,0.000497246,1.146809578,0.112711206,9.732244492
1784246184.020176,0.010369486,-0.116824299,0.004787673,-0.001495432,0.000386793,0.000485965,1.140859127,0.103753604,9.742492676
1784246184.022166,0.010367935,-0.116824217,0.004784766,-0.001412542,0.000687116,0.000006792,1.141851902,0.113006182,9.762728691
1784246184.024171,0.010369510,-0.116825894,0.004785091,-0.001087249,0.000361959,-0.000164372,1.156456232,0.093382813,9.723611832
1784246184.026174,0.010372718,-0.116823323,0.004789728,-0.000469791,0.000298098,0.000181853,1.135473609,0.102192901,9.719613075
1784246184.028177,0.010372084,-0.116820581,0.004786143,-0.000160496,0.000578625,0.000182947,1.162933111,0.109432116,9.723272324
1784246184.030181,0.010374310,-0.116827115,0.004775845,-0.000155395,0.000269471,-0.000812316,1.154185891,0.128764898,9.729664803
1784246184.032178,0.010377361,-0.116830274,0.004774539,0.000114918,-0.000355376,-0.001412795,1.154417753,0.112051040,9.748387337
1784246184.034179,0.010376131,-0.116832867,0.004776399,0.000166918,-0.000652218,-0.001001151,1.136956573,0.114604093,9.735834122
1784246184.036188,0.010377981,-0.116834462,0.004776298,0.000133435,-0.000760252,-0.000610523,1.151509523,0.093360208,9.735711098
1784246184.038182,0.010378808,-0.116835900,0.004769112,0.000219818,-0.000764277,-0.000957177,1.140438914,0.105605252,9.734884262
1784246184.040180,0.010378969,-0.116834298,0.004765952,0.000049126,-0.000673587,-0.001390078,1.155466199,0.086179242,9.730289459
1784246184.042186,0.010378662,-0.116832636,0.004764006,-0.000109909,-0.000393369,-0.001343268,1.126098037,0.108765952,9.757307053
1784246184.044189,0.010385288,-0.116835393,0.004767789,0.000277119,-0.000413192,-0.000894425,1.127001405,0.108395539,9.744751930
1784246184.046190,0.010387865,-0.116834350,0.004768592,0.000775236,-0.000466958,-0.000404856,1.164141178,0.097786941,9.720508575
1784246184.048189,0.010391364,-0.116830803,0.004764162,0.000945609,-0.000032750,-0.000587434,1.147798777,0.120718487,9.738574028
1784246184.050200,0.010390453,-0.116834149,0.004761675,0.000705647,0.000018610,-0.000903012,1.152958155,0.137820870,9.718513489
1784246184.052192,0.010392485,-0.116838954,0.004764256,0.000487464,-0.000504471,-0.000648700,1.159080386,0.087543897,9.720887184
1784246184.054193,0.010392487,-0.116833918,0.004765766,0.000623657,-0.000296178,-0.000225011,1.148624659,0.112847194,9.709830284
1784246184.056192,0.010383938,-0.116833232,0.004763102,-0.000031910,0.000225344,-0.000186274,1.145011544,0.112302147,9.729998589
1784246184.058198,0.010380685,-0.116833568,0.004769900,-0.000786113,0.000191833,0.000236343,1.147519827,0.097036973,9.729902267
1784246184.060199,0.010385194,-0.116835400,0.004775208,-0.000380719,-0.000061520,0.000977699,1.150006294,0.117163293,9.730483055
1784246184.062196,0.010390254,-0.116839655,0.004774939,0.000419207,-0.000518194,0.000975501,1.162331820,0.098102078,9.742479324
1784246184.064197,0.010391719,-0.116839021,0.004771147,0.000753580,-0.000538560,0.000379536,1.153303504,0.129704118,9.725187302
1784246184.066201,0.010398447,-0.116828859,0.004764997,0.001062930,0.000420397,-0.000464281,1.139207721,0.115445837,9.739428520
1784246184.068203,0.010398244,-0.116823934,0.004757991,0.001110118,0.001320116,-0.001276725,1.132410526,0.109737180,9.735350609
1784246184.070200,0.010400164,-0.116821408,0.004756789,0.000830190,0.001418643,-0.001493095,1.134247065,0.113285184,9.737168312
1784246184.072212,0.010405377,-0.116818994,0.004753629,0.001021735,0.001322833,-0.001434403,1.139783263,0.125762284,9.736805916
1784246184.074208,0.010407431,-0.116818056,0.004756663,0.001160385,0.001233276,-0.001102929,1.124965906,0.124655806,9.730058670
1784246184.076209,0.010407120,-0.116819121,0.004758985,0.000932429,0.000935046,-0.000448082,1.138167143,0.104194708,9.748321533
1784246184.078208,0.010408082,-0.116818905,0.004762003,0.000765391,0.000627803,0.000028463,1.118225694,0.087885834,9.746404648
1784246184.080208,0.010407957,-0.116822928,0.004762731,0.000658926,0.000116494,0.000265734,1.120144963,0.095735729,9.710142136
1784246184.082214,0.010408206,-0.116826095,0.004762431,0.000507037,-0.000487850,0.000220551,1.145705342,0.094473965,9.715538025
1784246184.084215,0.010409161,-0.116826653,0.004759898,0.000472778,-0.000603507,-0.000045108,1.158967972,0.078956321,9.731591225
1784246184.086219,0.010405261,-0.116822906,0.004761286,0.000181351,-0.000217795,-0.000092028,1.158961892,0.114471838,9.714782715
1784246184.088218,0.010404821,-0.116819017,0.004767372,-0.000101386,0.000366285,0.000471077,1.144359112,0.094894655,9.721817017
1784246184.090221,0.010410791,-0.116811618,0.004771340,0.000400638,0.001071581,0.000974237,1.171465039,0.109780364,9.721937180
1784246184.092219,0.010418504,-0.116809748,0.004767402,0.001236641,0.001440855,0.000600601,1.145657897,0.092478603,9.744218826
1784246184.094220,0.010421563,-0.116807751,0.004764658,0.001660840,0.001246538,-0.000107707,1.148467422,0.101069845,9.728137016
1784246184.096229,0.010418946,-0.116807707,0.004766177,0.001316558,0.000983263,-0.000174123,1.144743204,0.090326615,9.733444214
1784246184.098230,0.010416390,-0.116813324,0.004771154,0.000661745,0.000342304,0.000352007,1.140284777,0.092230000,9.725831985
1784246184.100226,0.010420897,-0.116814554,0.004770823,0.000636747,-0.000164394,0.000555266,1.146415114,0.080823302,9.743696213
1784246184.102224,0.010415685,-0.116809078,0.004765368,0.000356990,0.000211475,0.000021104,1.135665655,0.083140679,9.752219200
1784246184.104236,0.010413875,-0.116804756,0.004769033,-0.000133895,0.000756495,-0.000060091,1.132890701,0.112006232,9.730433464
1784246184.106230,0.010417664,-0.116807505,0.004775049,0.000206053,0.000601722,0.000582813,1.170021415,0.101327695,9.716053009
1784246184.108230,0.010413593,-0.116806924,0.004775327,0.000180845,0.000295139,0.000851079,1.149615765,0.122087069,9.731858253
1784246184.110232,0.010410786,-0.116806410,0.004775150,-0.000376301,0.000331809,0.000686064,1.160415292,0.125027582,9.739956856
1784246184.112238,0.010409568,-0.116801895,0.004776593,-0.000580509,0.000626004,0.000621819,1.141016364,0.115937591,9.730016708
1784246184.114250,0.010412522,-0.116802320,0.004778910,-0.000350886,0.000745471,0.000701452,1.145148635,0.123517066,9.727828979
1784246184.116261,0.010413821,-0.116802000,0.004776880,-0.000041483,0.000544531,0.000505360,1.124708176,0.104789712,9.751899719
1784246184.118250,0.010413608,-0.116802424,0.004771718,-0.000013982,0.000385272,-0.000125276,1.146097541,0.089159437,9.706089020
1784246184.120243,0.010415434,-0.116802283,0.004769510,0.000059944,0.000232785,-0.000602857,1.146949649,0.086358421,9.720417976
1784246184.122242,0.010415406,-0.116801508,0.004771878,0.000185874,0.000207819,-0.000444725,1.148962259,0.105480105,9.737132072
1784246184.124244,0.010415031,-0.116801925,0.004769003,0.000042625,0.000192276,-0.000347938,1.162158728,0.119330548,9.718852043
1784246184.126247,0.010411414,-0.116806418,0.004771718,-0.000300790,-0.000176785,-0.000225647,1.141240954,0.096736275,9.720479965
1784246184.128253,0.010413439,-0.116807759,0.004772442,-0.000299155,-0.000521683,0.000080039,1.151308179,0.074749328,9.706899643
1784246184.130254,0.010410323,-0.116809957,0.004769546,-0.000203883,-0.000519529,-0.000092851,1.130109668,0.104450822,9.726795197
1784246184.132256,0.010408349,-0.116810970,0.004770064,-0.000405517,-0.000497148,-0.000201062,1.124970078,0.087504268,9.724887848
1784246184.134256,0.010408889,-0.116808683,0.004767244,-0.000351735,-0.000320904,-0.000296734,1.142581344,0.096267879,9.720927238
1784246184.136256,0.010405118,-0.116808265,0.004762736,-0.000473514,-0.000098788,-0.000691097,1.155682325,0.103691071,9.724574089
1784246184.138256,0.010399815,-0.116805002,0.004762347,-0.000995483,0.000174359,-0.000761832,1.149730921,0.131910428,9.736405373
1784246184.140289,0.010399629,-0.116803117,0.004761387,-0.001158521,0.000441671,-0.000596014,1.162001252,0.106739923,9.725495338
1784246184.142264,0.010400114,-0.116803557,0.004757112,-0.000917697,0.000382421,-0.000782943,1.155296445,0.109056450,9.726848602
1784246184.144265,0.010394287,-0.116802365,0.004754716,-0.001121405,0.000379676,-0.000973650,1.172765136,0.106967248,9.737164497
1784246184.146269,0.010392546,-0.116800472,0.004755815,-0.001377437,0.000538505,-0.000732766,1.158823967,0.105277315,9.747900963
1784246184.148266,0.010391456,-0.116802409,0.004762326,-0.001134125,0.000394155,0.000001556,1.134665489,0.110204101,9.728631973
1784246184.150266,0.010392820,-0.116799831,0.004762061,-0.000829669,0.000324289,0.000428589,1.127811551,0.099590145,9.721382141
1784246184.152270,0.010396830,-0.116797455,0.004762239,-0.000314358,0.000561093,0.000272401,1.158671021,0.091101557,9.725392342
1784246184.154273,0.010398857,-0.116793640,0.004762135,0.000280569,0.000965334,0.000142208,1.148288250,0.086280763,9.728938103
1784246184.156268,0.010396335,-0.116791762,0.004765283,0.000297145,0.001226765,0.000299242,1.123126030,0.121892467,9.743937492
1784246184.158271,0.010396117,-0.116789922,0.004767099,0.000070874,0.001148801,0.000574232,1.157489538,0.104576699,9.722787857
1784246184.160275,0.010396793,-0.116789043,0.004771431,0.000123055,0.001107331,0.000829145,1.143411160,0.090455145,9.717751503
1784246184.162281,0.010396282,-0.116788022,0.004775619,0.000160092,0.001022138,0.001177005,1.130013347,0.097610578,9.743787766
1784246184.164278,0.010399594,-0.116787478,0.004775428,0.000348229,0.000744340,0.001104539,1.133199453,0.100359857,9.729461670
1784246184.166281,0.010397869,-0.116787896,0.004771695,0.000340741,0.000438741,0.000527441,1.150759339,0.103449412,9.704392433
1784246184.168284,0.010392936,-0.116788827,0.004767844,-0.000260899,0.000223651,-0.000074393,1.127319098,0.096009046,9.721807480
1784246184.170282,0.010387878,-0.116785012,0.004766169,-0.000895331,0.000356066,-0.000349056,1.146671772,0.103516690,9.765360832
1784246184.172281,0.010391732,-0.116782509,0.004774365,-0.000669545,0.000692561,0.000193408,1.132501364,0.117749624,9.742573738
1784246184.174284,0.010393446,-0.116782255,0.004775556,-0.000056350,0.000661983,0.000732180,1.136964440,0.115071133,9.733146667
1784246184.176285,0.010394257,-0.116785400,0.004775054,0.000116223,0.000250112,0.000562457,1.144606709,0.077901348,9.716775894
1784246184.178290,0.010396749,-0.116787463,0.004771811,0.000277473,-0.000174428,0.000131297,1.177170277,0.098563828,9.713801384
1784246184.180291,0.010387709,-0.116787903,0.004769164,-0.000252816,-0.000206286,-0.000254489,1.187118411,0.107148573,9.748836517
1784246184.182291,0.010378994,-0.116791472,0.004767527,-0.001382026,-0.000330697,-0.000338704,1.149054170,0.112285376,9.725070953
1784246184.184293,0.010375464,-0.116792969,0.004766699,-0.001899461,-0.000605165,-0.000310334,1.169378400,0.086020097,9.727612495
1784246184.186299,0.010369445,-0.116794832,0.004771822,-0.002041053,-0.000684311,0.000144623,1.175456882,0.106929585,9.737615585
1784246184.188301,0.010371037,-0.116794787,0.004769556,-0.001762824,-0.000619201,0.000332930,1.132884026,0.111548729,9.731775284
1784246184.190299,0.010371378,-0.116791025,0.004766791,-0.001247694,-0.000229611,-0.000105145,1.131519794,0.073022857,9.733321190
1784246184.192296,0.010376678,-0.116796568,0.004764400,-0.000623324,-0.000326246,-0.000462106,1.133571386,0.094479732,9.736598015
1784246184.194302,0.010373819,-0.116799019,0.004760584,-0.000299386,-0.000808882,-0.000778808,1.134771466,0.081150845,9.718580246
1784246184.196303,0.010369794,-0.116792955,0.004765452,-0.000634707,-0.000365784,-0.000446397,1.135295153,0.088626884,9.737459183
1784246184.198305,0.010379340,-0.116791517,0.004770835,-0.000009123,0.000250406,0.000322281,1.141141176,0.125433788,9.717526436
1784246184.200304,0.010386102,-0.116795696,0.004771554,0.001127279,0.000028198,0.000518561,1.159306645,0.105945289,9.716073990
1784246184.202308,0.010391634,-0.116797343,0.004774302,0.001663874,-0.000345643,0.000515491,1.143307090,0.118307613,9.707618713
1784246184.204325,0.010397916,-0.116794832,0.004776452,0.001950526,-0.000203540,0.000623708,1.157435536,0.100097090,9.722758293
1784246184.206320,0.010398924,-0.116799362,0.004778645,0.001849856,-0.000294674,0.000700967,1.161159635,0.111243762,9.723731995
1784246184.208313,0.010399996,-0.116799735,0.004785153,0.001556837,-0.000540680,0.001080832,1.158743978,0.132913947,9.705038071
1784246184.210311,0.010399627,-0.116802029,0.004779622,0.001130564,-0.000444512,0.000853305,1.155796051,0.114314929,9.742575645
1784246184.212315,0.010397075,-0.116802692,0.004776055,0.000495773,-0.000402972,0.000037015,1.141189456,0.093899064,9.741533279
1784246184.214314,0.010395754,-0.116800249,0.004780854,0.000197128,-0.000126694,0.000129956,1.137033939,0.083298318,9.727562904
1784246184.216315,0.010396319,-0.116799466,0.004782756,0.000233023,0.000177730,0.000541625,1.130997658,0.104363024,9.737556458
1784246184.218316,0.010404922,-0.116803773,0.004784246,0.000814867,-0.000108697,0.000550743,1.124108076,0.092252545,9.751818657
1784246184.220320,0.010412700,-0.116803408,0.004781686,0.001726185,-0.000464392,0.000196305,1.154422283,0.074092604,9.730659485
1784246184.222320,0.010410750,-0.116803408,0.004784355,0.001687705,-0.000428948,0.000101092,1.157196879,0.119187109,9.747988701
1784246184.224319,0.010413150,-0.116799742,0.004790382,0.001246813,0.000011432,0.000665198,1.145968795,0.117221393,9.729582787
1784246184.226329,0.010415174,-0.116797179,0.004795950,0.001216456,0.000508104,0.001240051,1.171688199,0.130589709,9.756592751
1784246184.228326,0.010418882,-0.116797164,0.004793936,0.001300655,0.000548222,0.001097596,1.159653544,0.134621143,9.715360641
1784246184.230330,0.010419769,-0.116794221,0.004793251,0.001093123,0.000708777,0.000596983,1.136828780,0.103868932,9.733523369
1784246184.232331,0.010416878,-0.116795242,0.004794734,0.000524640,0.000756470,0.000520072,1.130443335,0.095431790,9.734360695
1784246184.234329,0.010419880,-0.116798826,0.004797209,0.000447341,0.000210502,0.000641861,1.154384613,0.108143389,9.730877876
1784246184.236336,0.010425545,-0.116804942,0.004796197,0.000948348,-0.000533786,0.000494864,1.142666817,0.104642436,9.740259171
1784246184.238335,0.010423506,-0.116805844,0.004790547,0.000882783,-0.000870259,-0.000117210,1.150644302,0.096462898,9.742007256
1784246184.240332,0.010419822,-0.116805956,0.004791719,0.000242755,-0.000660338,-0.000344883,1.166910291,0.105656758,9.742979050
1784246184.242333,0.010417535,-0.116806746,0.004794879,-0.000170500,-0.000493638,0.000085129,1.152723432,0.081356116,9.720392227
1784246184.244341,0.010410766,-0.116814621,0.004792012,-0.000639701,-0.000926811,0.000142307,1.150108814,0.088488035,9.730299950
1784246184.246340,0.010409337,-0.116816141,0.004790183,-0.000963190,-0.001294466,-0.000159286,1.137817979,0.110256083,9.715631485
1784246184.248338,0.010408596,-0.116811663,0.004794361,-0.000829336,-0.000740976,0.000059414,1.137365937,0.111046456,9.731328964
1784246184.250341,0.010408998,-0.116810188,0.004803384,-0.000569093,-0.000181953,0.000941933,1.140656590,0.086349882,9.732965469
1784246184.252342,0.010410664,-0.116810173,0.004802735,-0.000255443,-0.000079931,0.001240352,1.148306131,0.123607188,9.709451675
1784246184.254349,0.010406147,-0.116814688,0.004792637,-0.000533880,-0.000334492,0.000209534,1.171432018,0.107492872,9.728647232
1784246184.256349,0.010406993,-0.116821185,0.004787032,-0.000831208,-0.000966905,-0.000868979,1.127471685,0.108964927,9.726821899
1784246184.258346,0.010407045,-0.116821982,0.004788596,-0.000576991,-0.001203238,-0.000912543,1.152556658,0.103445508,9.701704025
1784246184.260347,0.010412437,-0.116816223,0.004788460,-0.000038544,-0.000409249,-0.000613401,1.137601972,0.130334228,9.727866173
1784246184.262354,0.010415261,-0.116807766,0.004790138,0.000541368,0.000797223,-0.000409734,1.110333681,0.140816331,9.752116203
1784246184.264350,0.010419785,-0.116802201,0.004791554,0.000833656,0.001370769,-0.000136910,1.127759337,0.095936500,9.731222153
1784246184.266353,0.010421968,-0.116801433,0.004793380,0.001004729,0.001266955,0.000076918,1.131857395,0.101218969,9.737088203
1784246184.268355,0.010416284,-0.116803937,0.004788896,0.000474991,0.000804394,-0.000095439,1.132282734,0.099002026,9.733039856
1784246184.270356,0.010416946,-0.116808467,0.004782671,-0.000113014,0.000058831,-0.000747099,1.148375034,0.094261386,9.740646362
1784246184.272362,0.010418968,-0.116808943,0.004781257,0.000002222,-0.000347058,-0.001075783,1.164556384,0.097517274,9.757719040
1784246184.274360,0.010412218,-0.116810039,0.004782572,-0.000309412,-0.000317923,-0.000754439,1.156218767,0.112482376,9.747495651
1784246184.276369,0.010411278,-0.116811372,0.004785623,-0.000700514,-0.000350920,-0.000195974,1.125563502,0.137577340,9.739109039
1784246184.278363,0.010408551,-0.116813652,0.004783366,-0.000751110,-0.000501819,-0.000060249,1.133294582,0.109620772,9.750145912
1784246184.280365,0.010406910,-0.116815232,0.004779255,-0.000950333,-0.000679115,-0.000431356,1.129867554,0.122702144,9.743949890
1784246184.282365,0.010400766,-0.116814658,0.004781161,-0.001292931,-0.000610034,-0.000394031,1.128415108,0.111342676,9.705766678
1784246184.284374,0.010399999,-0.116812728,0.004785249,-0.001396449,-0.000312616,0.000176322,1.157587767,0.077486604,9.751756668
1784246184.286376,0.010404461,-0.116812073,0.004792702,-0.000713028,-0.000087904,0.000881898,1.159944773,0.086054973,9.739706993
1784246184.288376,0.010407856,-0.116810471,0.004791196,0.000057221,0.000093404,0.000981242,1.149727345,0.132288426,9.746271133
1784246184.290374,0.010409989,-0.116809994,0.004786443,0.000276937,0.000252036,0.000258939,1.127889156,0.108307734,9.755510330
1784246184.292378,0.010406968,-0.116810903,0.004782284,-0.000016630,0.000193271,-0.000395306,1.148067355,0.104297161,9.716051102
1784246184.294375,0.010405955,-0.116811320,0.004784484,-0.000323229,0.000040478,-0.000385278,1.158162355,0.086986609,9.737918854
1784246184.296379,0.010411527,-0.116810374,0.004789394,0.000104529,0.000062822,0.000165361,1.160262585,0.111665070,9.729112625
1784246184.298378,0.010410208,-0.116809584,0.004791340,0.000417165,0.000169195,0.000548947,1.162369490,0.100424588,9.730835915
1784246184.300378,0.010404470,-0.116812214,0.004792228,-0.000151699,0.000112389,0.000645854,1.147520423,0.099473543,9.765336990
1784246184.302387,0.010399397,-0.116812401,0.004791847,-0.000837776,0.000002713,0.000589274,1.157754421,0.127740309,9.741317749
1784246184.304382,0.010399558,-0.116814844,0.004793795,-0.001030314,-0.000080719,0.000584629,1.150405407,0.113522984,9.737632751
1784246184.306384,0.010400229,-0.116811872,0.004792776,-0.000788353,0.000070923,0.000492776,1.121293306,0.118373111,9.738084793
1784246184.308384,0.010401933,-0.116808131,0.004792152,-0.000427307,0.000504604,0.000229387,1.138719201,0.112299956,9.741648674
1784246184.310384,0.010405963,-0.116803281,0.004786930,0.000000138,0.000910640,-0.000268606,1.148445725,0.098871373,9.722294807
1784246184.312392,0.010403057,-0.116799273,0.004788974,0.000021933,0.001226227,-0.000415118,1.123421669,0.069714360,9.709080696
1784246184.314389,0.010395272,-0.116797663,0.004790615,-0.000562451,0.001243291,0.000017565,1.142101526,0.094002031,9.725396156
1784246184.316394,0.010391170,-0.116795018,0.004793580,-0.001061635,0.001166075,0.000404361,1.113065124,0.140686810,9.702353477
1784246184.318401,0.010394071,-0.116794877,0.004800577,-0.000775708,0.001047052,0.000975649,1.144695878,0.122680940,9.720201492
1784246184.320395,0.010402746,-0.116793752,0.004806332,0.000281123,0.000860645,0.001482878,1.147454381,0.127221450,9.706783295
1784246184.322430,0.010403609,-0.116790496,0.004803730,0.000837725,0.000929015,0.001221375,1.165392756,0.088515133,9.698930740
1784246184.324405,0.010398497,-0.116793647,0.004802063,0.000319775,0.000775223,0.000631131,1.134794593,0.121355452,9.735426903
1784246184.326406,0.010399695,-0.116793886,0.004800822,-0.000024140,0.000428283,0.000290148,1.130401373,0.128637537,9.727399826
1784246184.328403,0.010397200,-0.116788670,0.004808545,-0.000053939,0.000655377,0.000658531,1.135164380,0.114242733,9.726863861
1784246184.330407,0.010396983,-0.116782017,0.004811946,-0.000161757,0.001287727,0.001254291,1.146093965,0.128747568,9.746692657
1784246184.332404,0.010400982,-0.116779082,0.004809982,0.000121225,0.001586813,0.000983950,1.140676022,0.126119241,9.748016357
1784246184.334410,0.010406373,-0.116781004,0.004813098,0.000646694,0.001225609,0.000730134,1.166673899,0.123952605,9.753855705
1784246184.336409,0.010399356,-0.116778843,0.004815713,0.000322860,0.000913662,0.000940978,1.172413111,0.111383013,9.683841705
1784246184.338410,0.010392638,-0.116773210,0.004818383,-0.000648975,0.001197993,0.001150411,1.157650113,0.117596187,9.718835831
1784246184.340409,0.010392607,-0.116772279,0.004823688,-0.000869888,0.001327101,0.001429683,1.169163346,0.144101202,9.751297951
1784246184.342409,0.010397901,-0.116776161,0.004817020,-0.000294849,0.000769676,0.000908597,1.144367576,0.096178114,9.730343819
1784246184.344414,0.010392651,-0.116779454,0.004809926,-0.000311052,0.000085172,-0.000267531,1.150431871,0.115759611,9.738096237
1784246184.346418,0.010378461,-0.116781481,0.004813808,-0.001552970,-0.000279537,-0.000259049,1.142816663,0.115552470,9.717912674
1784246184.348418,0.010371785,-0.116780080,0.004813513,-0.002509746,-0.000241553,0.000218086,1.140824914,0.101863176,9.756379128
1784246184.350418,0.010375399,-0.116781794,0.004804765,-0.002119210,-0.000183523,-0.000425278,1.122789979,0.093302451,9.732545853
1784246184.352418,0.010380048,-0.116780609,0.004797244,-0.001128421,-0.000163322,-0.001470621,1.185656786,0.096932650,9.738905907
1784246184.354420,0.010378342,-0.116779380,0.004793020,-0.000711695,0.000140567,-0.001888032,1.171477318,0.111499079,9.732259750
1784246184.356425,0.010368769,-0.116775878,0.004796945,-0.001276296,0.000527877,-0.001308027,1.144280791,0.089414179,9.736577034
1784246184.358423,0.010363022,-0.116774492,0.004797833,-0.001924520,0.000720263,-0.000507288,1.147777677,0.118119761,9.726003647
1784246184.360428,0.010361969,-0.116773978,0.004799249,-0.001855944,0.000658030,-0.000158901,1.176594734,0.126647443,9.735054016
1784246184.362426,0.010360566,-0.116777763,0.004805980,-0.001467052,0.000264841,0.000454533,1.136691332,0.131457493,9.760600090
1784246184.364427,0.010364541,-0.116774984,0.004806261,-0.000929012,0.000102319,0.000794197,1.131596088,0.116077378,9.727319717
1784246184.366434,0.010368922,-0.116773345,0.004803265,-0.000224115,0.000344850,0.000340126,1.141033888,0.116480909,9.716571808
1784246184.368435,0.010368563,-0.116776697,0.004801284,0.000068459,0.000128706,-0.000119562,1.130011559,0.097597860,9.745581627
1784246184.370434,0.010361692,-0.116782725,0.004792324,-0.000537279,-0.000576016,-0.000765671,1.118630767,0.119452976,9.717017174
1784246184.372434,0.010362199,-0.116782844,0.004785644,-0.000957352,-0.000871645,-0.001560040,1.132696629,0.133069336,9.730120659
1784246184.374434,0.010368488,-0.116780140,0.004791846,-0.000318832,-0.000490864,-0.001213265,1.133275747,0.107041128,9.734884262
1784246184.376438,0.010367464,-0.116778627,0.004798116,0.000145560,-0.000092890,-0.000075434,1.136939406,0.111227088,9.706671715
1784246184.378438,0.010369520,-0.116777875,0.004801000,0.000248142,0.000092794,0.000553938,1.147181392,0.106424466,9.733550072
1784246184.380439,0.010370732,-0.116778433,0.004798766,0.000449494,0.000104356,0.000416232,1.154055119,0.118410937,9.736771584
1784246184.382442,0.010366909,-0.116773814,0.004795080,0.000147879,0.000372036,-0.000080493,1.152494192,0.099709190,9.723199844
1784246184.384443,0.010362507,-0.116776802,0.004792110,-0.000489423,0.000409548,-0.000443893,1.156421423,0.127862498,9.726522446
1784246184.386453,0.010359691,-0.116781034,0.004794920,-0.000834611,-0.000161039,-0.000278525,1.165204406,0.110432826,9.704451561
1784246184.388447,0.010363829,-0.116780199,0.004791623,-0.000522867,-0.000348236,-0.000246147,1.126452208,0.097475700,9.706124306
1784246184.390448,0.010368209,-0.116780058,0.004789125,0.000124763,-0.000144611,-0.000635189,1.132746339,0.099923998,9.728562355
1784246184.392452,0.010369655,-0.116780072,0.004790324,0.000450554,-0.000050688,-0.000594205,1.148560286,0.108691536,9.727289200
1784246184.394453,0.010374426,-0.116778150,0.004790009,0.000724870,0.000124444,-0.000419281,1.139472246,0.099802785,9.733499527
1784246184.396460,0.010380145,-0.116772853,0.004789603,0.001200142,0.000609926,-0.000433833,1.149844885,0.103327371,9.723220825
1784246184.398455,0.010379406,-0.116768390,0.004793782,0.001239760,0.001108792,-0.000101128,1.123048067,0.113981783,9.722366333
1784246184.400457,0.010376022,-0.116766989,0.004795430,0.000649698,0.001135571,0.000355006,1.159452558,0.119660378,9.740371704
1784246184.402461,0.010372598,-0.116771445,0.004796559,0.000014779,0.000546424,0.000503061,1.180719018,0.133353278,9.729719162
1784246184.404542,0.010378122,-0.116774872,0.004796438,0.000039653,0.000005093,0.000430548,1.152127147,0.106440715,9.722346306
1784246184.406476,0.010377718,-0.116772115,0.004793147,0.000226534,0.000096889,0.000055768,1.141903877,0.114226446,9.717005730
1784246184.408469,0.010376196,-0.116773397,0.004792110,0.000001132,0.000167771,-0.000235860,1.113903522,0.138587773,9.744035721
1784246184.410475,0.010376815,-0.116771787,0.004800416,-0.000166345,0.000088578,0.000345238,1.129095912,0.130596086,9.706339836
1784246184.412468,0.010369775,-0.116767019,0.004805721,-0.000610424,0.000445464,0.001239707,1.151374459,0.082567796,9.741470337
1784246184.414470,0.010364750,-0.116766952,0.004802342,-0.001131132,0.000694338,0.001114715,1.154663563,0.094638407,9.739310265
1784246184.416470,0.010363052,-0.116765827,0.004800763,-0.001204627,0.000623453,0.000517290,1.182450652,0.127564013,9.721613884
1784246184.418473,0.010354600,-0.116772301,0.004798873,-0.001589206,0.000088519,0.000223268,1.156974673,0.100817531,9.748318672
1784246184.420479,0.010352891,-0.116779827,0.004799342,-0.001893058,-0.000787784,0.000150741,1.145266771,0.095775872,9.722271919
1784246184.422474,0.010352823,-0.116781652,0.004799547,-0.001532537,-0.001108893,0.000172806,1.124559045,0.091859259,9.743298531
1784246184.424474,0.010354862,-0.116784908,0.004797400,-0.000942588,-0.001219024,-0.000026532,1.126520872,0.105313241,9.738005638
1784246184.426477,0.010357512,-0.116794132,0.004794405,-0.000354996,-0.001803493,-0.000408980,1.142391562,0.118176036,9.727792740
1784246184.428476,0.010356097,-0.116799943,0.004796569,-0.000182004,-0.002336510,-0.000363659,1.164888859,0.123648472,9.736815453
1784246184.430517,0.010356370,-0.116793737,0.004794864,-0.000279575,-0.001643109,-0.000216661,1.178321123,0.119600140,9.714834213
1784246184.432505,0.010353472,-0.116790637,0.004787796,-0.000523539,-0.000538372,-0.000720270,1.160842299,0.122013293,9.722006798
1784246184.434511,0.010350996,-0.116797477,0.004788660,-0.000855733,-0.000597097,-0.000893631,1.155547500,0.093305290,9.736163139
1784246184.436508,0.010346348,-0.116800666,0.004793402,-0.001122250,-0.001058576,-0.000209963,1.141665101,0.093699716,9.705666542
1784246184.438500,0.010339797,-0.116800591,0.004794185,-0.001528916,-0.000978595,0.000308115,1.107679725,0.105183080,9.727226257
1784246184.440551,0.010342035,-0.116796941,0.004789278,-0.001457989,-0.000559988,-0.000015900,1.162631989,0.085575685,9.739258766
1784246184.442545,0.010342942,-0.116796382,0.004788274,-0.000917353,-0.000223205,-0.000431505,1.165320396,0.085105948,9.737466812
1784246184.444518,0.010333075,-0.116797723,0.004791725,-0.001195564,-0.000118593,-0.000086256,1.135957956,0.104900375,9.716043472
1784246184.446514,0.010327547,-0.116794735,0.004793182,-0.001812829,0.000122749,0.000382137,1.171310425,0.097212009,9.725443840
1784246184.448533,0.010327910,-0.116792843,0.004792389,-0.001663650,0.000420316,0.000363950,1.148370266,0.092603087,9.721806526
1784246184.450519,0.010327333,-0.116791442,0.004795269,-0.001194103,0.000578868,0.000405106,1.127248526,0.090182364,9.722218513
1784246184.452509,0.010327725,-0.116785914,0.004799053,-0.000813893,0.000944068,0.000743420,1.118268847,0.089442760,9.716377258
1784246184.454513,0.010327475,-0.116781190,0.004801202,-0.000499261,0.001336033,0.000936484,1.115600228,0.092095077,9.726254463
1784246184.456519,0.010330019,-0.116780870,0.004797713,-0.000182341,0.001263745,0.000569824,1.127273083,0.092403084,9.724923134
1784246184.458524,0.010334990,-0.116778523,0.004798808,0.000354971,0.001100449,0.000194276,1.148430705,0.097943649,9.726771355
1784246184.460521,0.010340805,-0.116776936,0.004801670,0.001053765,0.001065736,0.000318791,1.163157701,0.091447487,9.731676102
1784246184.462522,0.010339942,-0.116777927,0.004799643,0.001144861,0.000811962,0.000245095,1.150838137,0.112176538,9.737175941
1784246184.464521,0.010335993,-0.116783127,0.004795791,0.000394624,0.000278124,-0.000172869,1.143045306,0.098409742,9.733942986
1784246184.466524,0.010327529,-0.116788402,0.004800870,-0.000608321,-0.000397159,0.000061882,1.139874339,0.095781274,9.731232643
1784246184.468525,0.010319681,-0.116784960,0.004806072,-0.001461767,-0.000405666,0.000867207,1.148112655,0.108706824,9.725943565
1784246184.470533,0.010321154,-0.116781063,0.004806167,-0.001479639,0.000160146,0.001042832,1.167867303,0.109356135,9.725070000
1784246184.472529,0.010320901,-0.116783045,0.004814652,-0.000954568,0.000205552,0.001332051,1.158546209,0.117575131,9.720182419
1784246184.474534,0.010323331,-0.116787747,0.004814485,-0.000559005,-0.000229380,0.001522106,1.146059513,0.124017127,9.718866348
1784246184.476533,0.010328982,-0.116787992,0.004811897,0.000039588,-0.000436706,0.000867382,1.164067268,0.129524797,9.731024742
1784246184.478533,0.010330368,-0.116791762,0.004815477,0.000511208,-0.000589674,0.000643194,1.149715900,0.092176035,9.716423988
1784246184.480534,0.010328673,-0.116794437,0.004819798,0.000418834,-0.000771616,0.001002292,1.154256582,0.097405046,9.729015350
1784246184.482541,0.010325975,-0.116790175,0.004822403,0.000068207,-0.000360906,0.001230365,1.151136875,0.100044034,9.741583824
1784246184.484538,0.010325397,-0.116787188,0.004818854,-0.000164525,0.000247354,0.000856716,1.136389971,0.066767655,9.722077370
1784246184.486559,0.010320138,-0.116789639,0.004813081,-0.000572865,0.000228380,0.000040010,1.127584457,0.080775790,9.721261978
1784246184.488545,0.010313995,-0.116786726,0.004817412,-0.001197349,0.000196543,0.000022085,1.163222909,0.095609523,9.713319778
1784246184.490548,0.010317788,-0.116784059,0.004815811,-0.000960284,0.000668648,0.000211456,1.138944149,0.091075070,9.701612473
1784246184.492542,0.010326508,-0.116779774,0.004810399,0.000137303,0.001097354,-0.000424875,1.102122903,0.091733739,9.738343239
1784246184.494540,0.010327822,-0.116776451,0.004819368,0.000824092,0.001172350,-0.000149812,1.148537755,0.106893338,9.728174210
1784246184.496545,0.010329284,-0.116780221,0.004824565,0.000918951,0.000686622,0.000823141,1.147498369,0.096868455,9.753663063
1784246184.498545,0.010326046,-0.116780646,0.004822259,0.000572602,0.000215687,0.000808542,1.145559549,0.121592291,9.745749474
1784246184.500547,0.010324974,-0.116781779,0.004818774,0.000033733,0.000005132,0.000238584,1.158990979,0.118347682,9.736775398
1784246184.502549,0.010322162,-0.116783038,0.004817316,-0.000323385,-0.000202968,-0.000122718,1.125983596,0.096919015,9.722260475
1784246184.504552,0.010324051,-0.116780505,0.004814063,-0.000309578,-0.000105420,-0.000402151,1.154779196,0.102847971,9.718739510
1784246184.506562,0.010331506,-0.116779208,0.004812234,0.000389703,0.000138867,-0.000711965,1.111552119,0.090853795,9.719069481
1784246184.508550,0.010329300,-0.116777316,0.004812742,0.000627238,0.000317988,-0.000649258,1.136557937,0.079847552,9.709608078
1784246184.510553,0.010326653,-0.116778784,0.004815195,0.000236612,0.000236350,-0.000244618,1.136359453,0.102495834,9.738445282
1784246184.512560,0.010328404,-0.116779566,0.004813748,0.000203597,-0.000004831,-0.000112921,1.130491614,0.101080410,9.759055138
1784246184.514563,0.010332452,-0.116776980,0.004813955,0.000544729,0.000104739,-0.000213382,1.128688812,0.099419668,9.743799210
1784246184.516559,0.010335590,-0.116775952,0.004814558,0.000902777,0.000308598,-0.000159338,1.132807255,0.105674349,9.738911629
1784246184.518559,0.010334593,-0.116773851,0.004818425,0.000837294,0.000440855,0.000168252,1.143693924,0.114571914,9.728219032
1784246184.520559,0.010335033,-0.116770461,0.004822105,0.000574023,0.000718080,0.000642237,1.138309836,0.115047522,9.734045029
1784246184.522564,0.010335186,-0.116767533,0.004823167,0.000437534,0.000974655,0.000789352,1.163440108,0.114344381,9.724649429
1784246184.524563,0.010333430,-0.116769135,0.004825514,0.000190328,0.000857616,0.000822388,1.155996561,0.129675969,9.724290848
1784246184.526567,0.010334317,-0.116765313,0.004820508,0.000011825,0.000828881,0.000431580,1.125322938,0.117847979,9.741673470
1784246184.528569,0.010339795,-0.116759740,0.004817665,0.000375607,0.001237149,-0.000265135,1.140670180,0.124858029,9.736351967
1784246184.530573,0.010337673,-0.116760522,0.004818006,0.000383629,0.001264916,-0.000377455,1.145823956,0.105542615,9.733990669
1784246184.532584,0.010335491,-0.116765127,0.004810981,-0.000159989,0.000590428,-0.000680645,1.156260848,0.115653060,9.742584229
1784246184.534614,0.010339711,-0.116765648,0.004806038,-0.000102832,0.000114729,-0.001315900,1.149572492,0.118503384,9.731836319
1784246184.536581,0.010338922,-0.116765290,0.004803491,0.000068371,0.000107004,-0.001487754,1.146088719,0.127896145,9.740411758
1784246184.538585,0.010334650,-0.116764687,0.004803210,-0.000313652,0.000140513,-0.001234447,1.151790619,0.115437485,9.717920303
1784246184.540573,0.010337759,-0.116764240,0.004801563,-0.000391996,0.000270542,-0.001012905,1.162817001,0.100005843,9.725901604
1784246184.542574,0.010343399,-0.116763093,0.004794697,0.000167277,0.000397829,-0.001373857,1.157405376,0.098238476,9.732162476
1784246184.544581,0.010346738,-0.116760530,0.004793230,0.000683763,0.000543378,-0.001636338,1.132520676,0.081932440,9.738758087
1784246184.546589,0.010346227,-0.116759129,0.004790723,0.000679721,0.000669406,-0.001485062,1.130896211,0.095457852,9.729877472
1784246184.548587,0.010345247,-0.116752610,0.004783636,0.000318744,0.001019167,-0.001716975,1.133838773,0.079669006,9.739642143
1784246184.550583,0.010342415,-0.116750620,0.004787413,0.000019354,0.001343698,-0.001452346,1.136642098,0.087805919,9.724452972
1784246184.552597,0.010341248,-0.116753057,0.004792306,-0.000116738,0.000980277,-0.000450448,1.158319950,0.099577226,9.731274605
1784246184.554600,0.010344659,-0.116758093,0.004792947,0.000123557,0.000281437,0.000024820,1.135516047,0.105770238,9.720533371
1784246184.556597,0.010349480,-0.116762042,0.004790238,0.000642292,-0.000335931,-0.000188615,1.122443557,0.102626361,9.745158195
1784246184.558589,0.010348354,-0.116762780,0.004788181,0.000679365,-0.000565126,-0.000487828,1.154383063,0.108130679,9.732670784
1784246184.560625,0.010341321,-0.116759375,0.004793649,-0.000085222,-0.000223564,-0.000054361,1.147297621,0.077857308,9.718123436
1784246184.562633,0.010339786,-0.116761960,0.004792605,-0.000661834,-0.000100965,0.000332889,1.140716434,0.090063937,9.714609146
1784246184.564623,0.010337832,-0.116765738,0.004791049,-0.000705253,-0.000408488,0.000089881,1.192652702,0.080399640,9.719977379
1784246184.566630,0.010338291,-0.116762385,0.004798577,-0.000534873,-0.000224143,0.000475054,1.141346335,0.069703415,9.741379738
1784246184.568619,0.010343598,-0.116760336,0.004801319,0.000080138,0.000209405,0.000992770,1.137575507,0.092941023,9.756767273
1784246184.570646,0.010344827,-0.116762206,0.004798156,0.000471767,0.000170292,0.000645781,1.135299206,0.087848611,9.720865250
1784246184.572627,0.010343784,-0.116761446,0.004802277,0.000339918,0.000055414,0.000536273,1.133886933,0.119664125,9.722862244
1784246184.574619,0.010344474,-0.116762698,0.004797107,0.000153971,-0.000008529,0.000330102,1.134713173,0.112606078,9.705780983
1784246184.576621,0.010337889,-0.116766512,0.004793312,-0.000417731,-0.000371405,-0.000309945,1.145941615,0.115385033,9.735848427
1784246184.578620,0.010337337,-0.116770834,0.004799606,-0.000765708,-0.000821246,-0.000000910,1.147273302,0.114039801,9.733598709
1784246184.580616,0.010338887,-0.116770595,0.004803644,-0.000475030,-0.000887707,0.000695886,1.152232647,0.116594389,9.743482590
1784246184.582621,0.010335525,-0.116767228,0.004795987,-0.000562950,-0.000423270,0.000285234,1.138462782,0.091229893,9.743755341
1784246184.584628,0.010336117,-0.116767712,0.004790518,-0.000625826,-0.000116959,-0.000663964,1.148850083,0.096895717,9.747388840
1784246184.586657,0.010344583,-0.116774350,0.004788496,0.000170189,-0.000570633,-0.001069049,1.124422193,0.117427409,9.739426613
1784246184.588631,0.010347013,-0.116776533,0.004792478,0.000873945,-0.001014334,-0.000732769,1.143133879,0.105592996,9.731746674
1784246184.590623,0.010347912,-0.116775133,0.004790629,0.000850113,-0.000774249,-0.000413300,1.161023498,0.100038372,9.724555969
1784246184.592623,0.010350442,-0.116774984,0.004796242,0.000852325,-0.000438232,-0.000071330,1.151710272,0.072754607,9.734682083
1784246184.594622,0.010349065,-0.116777062,0.004797879,0.000887581,-0.000375240,0.000411505,1.162251592,0.091795675,9.747368813
1784246184.596626,0.010344361,-0.116777517,0.004798879,0.000388986,-0.000376147,0.000509427,1.160728574,0.112199500,9.716114998
1784246184.598623,0.010342118,-0.116780177,0.004801500,-0.000156415,-0.000483392,0.000670137,1.117293954,0.119543359,9.706705093
1784246184.600650,0.010343880,-0.116773151,0.004804750,-0.000187534,-0.000116151,0.000898587,1.127313137,0.095961332,9.728531837
1784246184.602641,0.010344816,-0.116769604,0.004815014,0.000064493,0.000577411,0.001555220,1.110091805,0.118237399,9.714312553
1784246184.604633,0.010347337,-0.116770521,0.004819478,0.000368430,0.000522948,0.002102850,1.129616737,0.101269968,9.733948708
1784246184.606633,0.010351482,-0.116771236,0.004813763,0.000679577,0.000183071,0.001399102,1.153047800,0.109853923,9.744785309
1784246184.608632,0.010351906,-0.116770692,0.004814576,0.000764123,0.000118437,0.000652549,1.126210690,0.114923306,9.710269928
1784246184.610635,0.010354897,-0.116769768,0.004816459,0.000789271,0.000158532,0.000632623,1.131240249,0.122894756,9.714362144
1784246184.612634,0.010359161,-0.116765268,0.004816946,0.001063756,0.000455298,0.000565850,1.147595763,0.102904968,9.723665237
1784246184.614634,0.010353958,-0.116764277,0.004821651,0.000757082,0.000693402,0.000769248,1.152422071,0.093062900,9.712846756
1784246184.616636,0.010352951,-0.116764694,0.004816396,0.000133048,0.000531296,0.000571932,1.157306314,0.088135682,9.703852654
1784246184.618652,0.010357396,-0.116767056,0.004814724,0.000273941,0.000193891,-0.000077538,1.149860263,0.105068348,9.730404854
1784246184.620650,0.010357584,-0.116770893,0.004823792,0.000571006,-0.000257859,0.000405238,1.158632159,0.088769525,9.738379478
1784246184.622647,0.010361168,-0.116774887,0.004824688,0.000749653,-0.000695649,0.000936787,1.145272255,0.097033933,9.734383583
1784246184.624643,0.010367066,-0.116777599,0.004823762,0.001207545,-0.000959683,0.000602770,1.155109406,0.093800329,9.730338097
1784246184.626647,0.010365468,-0.116776571,0.004828086,0.001218739,-0.000808229,0.000631622,1.143014312,0.133728102,9.744929314
1784246184.628646,0.010355767,-0.116772711,0.004826374,0.000146639,-0.000254710,0.000725600,1.139568806,0.106643021,9.716506958
1784246184.630646,0.010347330,-0.116770983,0.004823184,-0.001157395,0.000174929,0.000342084,1.159207344,0.097866081,9.718263626
1784246184.632652,0.010347701,-0.116773292,0.004819689,-0.001442441,0.000067982,-0.000137157,1.162466764,0.106867723,9.706666946
1784246184.634655,0.010349568,-0.116774857,0.004818215,-0.000964920,-0.000179529,-0.000450032,1.132358193,0.104866870,9.727250099
1784246184.636653,0.010348590,-0.116773099,0.004826367,-0.000615843,-0.000076735,0.000117901,1.131558776,0.114971608,9.756901741
1784246184.638655,0.010348237,-0.116775222,0.004828947,-0.000453415,-0.000074627,0.000819911,1.125691295,0.110319100,9.728621483
1784246184.640655,0.010352089,-0.116775475,0.004823848,-0.000190772,-0.000302992,0.000409625,1.148408890,0.096555263,9.733037949
1784246184.642656,0.010349086,-0.116776019,0.004828532,-0.000161375,-0.000360609,0.000273550,1.170747995,0.088620663,9.737493515
1784246184.644659,0.010348268,-0.116778582,0.004834097,-0.000250021,-0.000387934,0.000914452,1.170646071,0.116489023,9.725118637
1784246184.646664,0.010347606,-0.116778485,0.004830492,-0.000222423,-0.000369294,0.000804046,1.129578948,0.098540872,9.739758492
1784246184.648668,0.010346763,-0.116776265,0.004826343,-0.000324775,-0.000116421,0.000074890,1.147291899,0.115402766,9.730917931
1784246184.650671,0.010350260,-0.116772301,0.004825613,-0.000125615,0.000333835,-0.000291910,1.150324225,0.106400125,9.731310844
1784246184.652667,0.010354117,-0.116768435,0.004831674,0.000417018,0.000779565,0.000092034,1.130984187,0.104258083,9.752349854
1784246184.654673,0.010355932,-0.116766013,0.004837524,0.000809675,0.000957543,0.000822206,1.132899761,0.111672744,9.714291573
1784246184.656671,0.010360464,-0.116768464,0.004839612,0.001109774,0.000656726,0.001080975,1.140954375,0.111801006,9.744786263
1784246184.658675,0.010364574,-0.116765529,0.004839001,0.001402575,0.000511548,0.000818721,1.123496532,0.113162801,9.710705757
1784246184.660670,0.010367158,-0.116767041,0.004837865,0.001435757,0.000426947,0.000428933,1.127056599,0.112884685,9.743434906
1784246184.662670,0.010365658,-0.116768263,0.004834422,0.001059413,0.000082533,-0.000001649,1.113202691,0.116745189,9.729547501
1784246184.664677,0.010362482,-0.116767675,0.004832865,0.000388632,-0.000056208,-0.000297278,1.134899497,0.090672500,9.702502251
1784246184.666682,0.010361036,-0.116765156,0.004827038,-0.000114985,0.000095867,-0.000673720,1.132812977,0.105718873,9.732634544
1784246184.668683,0.010360448,-0.116766058,0.004820490,-0.000318671,0.000171108,-0.001308929,1.137136459,0.128992915,9.728304863
1784246184.670688,0.010363205,-0.116769381,0.004817727,-0.000200978,-0.000210036,-0.001593160,1.139991522,0.106027164,9.739368439
1784246184.672684,0.010364347,-0.116768837,0.004817018,0.000047733,-0.000383781,-0.001420293,1.124651790,0.101507723,9.772501945
1784246184.674683,0.010360891,-0.116767801,0.004816491,-0.000166383,-0.000237320,-0.001094899,1.143656135,0.111436188,9.728198051
1784246184.676685,0.010353205,-0.116766855,0.004813396,-0.000936649,-0.000105448,-0.000948947,1.144305944,0.090017952,9.714611053
1784246184.678689,0.010347886,-0.116762720,0.004808724,-0.001620759,0.000263593,-0.001112075,1.149738550,0.095597565,9.739311218
1784246184.680685,0.010347811,-0.116763040,0.004812266,-0.001488043,0.000451310,-0.000851273,1.157200098,0.118402474,9.732290268
1784246184.682685,0.010347065,-0.116764747,0.004820427,-0.000981626,0.000200568,0.000167594,1.174316645,0.122755833,9.719333649
1784246184.684690,0.010346663,-0.116768554,0.004822088,-0.000777305,-0.000177648,0.000800166,1.134296060,0.116509937,9.724636078
1784246184.686726,0.010344706,-0.116767980,0.004822618,-0.000770318,-0.000304553,0.000756140,1.129307985,0.112106286,9.722808838
1784246184.688744,0.010344828,-0.116766863,0.004821524,-0.000689314,-0.000108615,0.000527225,1.126210690,0.116950087,9.740322113
1784246184.690747,0.010352471,-0.116768442,0.004822901,0.000018842,-0.000134757,0.000342502,1.086792469,0.122447193,9.731352806
1784246184.692727,0.010357182,-0.116762377,0.004824254,0.000863553,0.000183862,0.000336699,1.163968205,0.121448778,9.732765198
1784246184.694745,0.010364029,-0.116762035,0.004825389,0.001318738,0.000651690,0.000333531,1.162090063,0.114736460,9.734962463
1784246184.696721,0.010371285,-0.116760053,0.004816308,0.001739350,0.000707977,-0.000392294,1.156524897,0.099193603,9.725441933
1784246184.698712,0.010377085,-0.116760246,0.004810256,0.002027489,0.000626172,-0.001409161,1.157083154,0.107753150,9.717876434
1784246184.700733,0.010384053,-0.116763011,0.004815611,0.002340993,0.000325495,-0.001176320,1.159892797,0.119587846,9.749786377
1784246184.702760,0.010387111,-0.116760649,0.004817015,0.002443512,0.000284593,-0.000482402,1.155664682,0.101930998,9.720080376
1784246184.704736,0.010387844,-0.116757505,0.004821640,0.002087997,0.000601421,0.000024358,1.135017037,0.101731613,9.722300529
1784246184.706782,0.010393639,-0.116755858,0.004818009,0.001973925,0.000778879,0.000032423,1.149639964,0.088334791,9.752714157
1784246184.708749,0.010393577,-0.116760597,0.004817930,0.001795124,0.000353095,-0.000271826,1.132423282,0.109838948,9.721004486
1784246184.710724,0.010394647,-0.116762623,0.004814531,0.001354661,-0.000206061,-0.000441193,1.146202803,0.100120008,9.739785194
1784246184.712724,0.010397373,-0.116767608,0.004811301,0.001196871,-0.000631719,-0.000799092,1.132747293,0.101147063,9.745606422
1784246184.714723,0.010395288,-0.116763100,0.004808993,0.000778993,-0.000507223,-0.000949567,1.142186999,0.137939766,9.721194267
1784246184.716737,0.010395482,-0.116757296,0.004812219,0.000354926,0.000319961,-0.000603977,1.133413434,0.117449142,9.720156670
1784246184.718727,0.010394673,-0.116761528,0.004813930,0.000256104,0.000342767,-0.000102390,1.135669231,0.120352633,9.748870850
1784246184.720727,0.010393241,-0.116767839,0.004818603,-0.000005951,-0.000467308,0.000384465,1.126130104,0.110640474,9.745661736
1784246184.722735,0.010390840,-0.116766877,0.004827386,-0.000248367,-0.000699888,0.001228443,1.151294470,0.111421123,9.716549873
1784246184.724733,0.010390240,-0.116764970,0.004827447,-0.000381201,-0.000237828,0.001521928,1.171271205,0.094876826,9.738879204
1784246184.726743,0.010390549,-0.116760924,0.004825051,-0.000383560,0.000300510,0.000960775,1.180398226,0.105694152,9.713402748
1784246184.728797,0.010392733,-0.116761975,0.004824458,-0.000134919,0.000420438,0.000478654,1.149746418,0.096064590,9.736624718
1784246184.730758,0.010401117,-0.116764687,0.004824891,0.000620354,0.000122856,0.000252564,1.138899088,0.089908876,9.739712715
1784246184.732749,0.010405167,-0.116766900,0.004828797,0.001331802,-0.000169436,0.000376525,1.145190239,0.088281386,9.705187798
1784246184.734776,0.010400917,-0.116769262,0.004829350,0.001017590,-0.000428053,0.000573562,1.124889970,0.081197828,9.729780197
1784246184.736752,0.010399113,-0.116766281,0.004828840,0.000359097,-0.000268287,0.000465634,1.189668894,0.093837403,9.725888252
1784246184.738745,0.010390540,-0.116767250,0.004830717,-0.000427285,-0.000059371,0.000513400,1.162791729,0.097778745,9.724094391
1784246184.740819,0.010387815,-0.116772830,0.004824458,-0.001095490,-0.000443801,0.000165968,1.160383105,0.122342996,9.739492416
1784246184.742770,0.010390086,-0.116771474,0.004823352,-0.000874727,-0.000567720,-0.000373967,1.136536479,0.116455749,9.728224754
1784246184.744756,0.010390754,-0.116770066,0.004832188,-0.000404070,-0.000217443,0.000228492,1.152986407,0.104100384,9.734885216
1784246184.746755,0.010391292,-0.116771929,0.004834072,-0.000154457,-0.000178582,0.000882645,1.130734324,0.119612157,9.735859871
1784246184.748763,0.010393389,-0.116772473,0.004834273,0.000081494,-0.000291197,0.000762780,1.129154086,0.099544287,9.725419044
1784246184.750756,0.010399344,-0.116769284,0.004835526,0.000636773,-0.000052830,0.000587595,1.124394178,0.115584694,9.746587753
1784246184.752757,0.010396729,-0.116763905,0.004833058,0.000702418,0.000521339,0.000317253,1.123950601,0.115631752,9.740758896
1784246184.754758,0.010389516,-0.116757102,0.004833706,-0.000223099,0.001237654,0.000192633,1.155213952,0.100704141,9.704380035
1784246184.756767,0.010390765,-0.116756946,0.004841042,-0.000559045,0.001409976,0.000732252,1.131094098,0.111609876,9.726394653
1784246184.758778,0.010396658,-0.116758168,0.004847584,0.000183848,0.000965116,0.001412579,1.123763323,0.099158958,9.726306915
1784246184.760763,0.010397904,-0.116758831,0.004847111,0.000652420,0.000501040,0.001383793,1.129152179,0.100745082,9.745601654
1784246184.762762,0.010392631,-0.116759829,0.004848308,0.000198930,0.000173196,0.001090839,1.130005360,0.095520221,9.722702980
1784246184.764769,0.010390637,-0.116761327,0.004841618,-0.000365898,-0.000096670,0.000479740,1.140785813,0.096691146,9.727652550
1784246184.766770,0.010403524,-0.116758928,0.004834817,0.000383892,-0.000067590,-0.000648306,1.125298977,0.114416912,9.720129967
1784246184.768784,0.010409070,-0.116760239,0.004833014,0.001454534,0.000018277,-0.001198104,1.131309748,0.092338637,9.726718903
1784246184.770778,0.010402023,-0.116757579,0.004837992,0.000966048,0.000034643,-0.000644154,1.146290302,0.106080212,9.720544815
1784246184.772782,0.010396972,-0.116756029,0.004844320,-0.000040041,0.000247695,0.000391294,1.141700268,0.096813180,9.708825111
1784246184.774778,0.010396053,-0.116759911,0.004847145,-0.000324794,0.000003303,0.000945523,1.138643384,0.104001746,9.711557388
1784246184.776777,0.010390032,-0.116761394,0.004845573,-0.000659870,-0.000386138,0.000824390,1.137289166,0.104765460,9.732633591
1784246184.778776,0.010391310,-0.116756864,0.004844099,-0.000824480,-0.000074844,0.000432706,1.151678801,0.108069785,9.746118546
1784246184.780783,0.010392071,-0.116755076,0.004848453,-0.000436271,0.000396338,0.000492522,1.162413836,0.104017816,9.729513168
1784246184.782785,0.010388882,-0.116755016,0.004848029,-0.000446309,0.000436096,0.000642252,1.159645319,0.097371034,9.724088669
1784246184.784784,0.010390909,-0.116750076,0.004846468,-0.000377577,0.000718773,0.000337672,1.129296303,0.074424095,9.729291916
1784246184.786803,0.010392197,-0.116747640,0.004844716,-0.000036179,0.001084327,-0.000009222,1.098810673,0.075428352,9.705956459
1784246184.788799,0.010388773,-0.116745770,0.004846419,-0.000170715,0.001083113,0.000006747,1.122024536,0.105297610,9.748313904
1784246184.790797,0.010386673,-0.116744168,0.004847452,-0.000470066,0.000903081,0.000233684,1.140806556,0.099286705,9.740671158
1784246184.792790,0.010385648,-0.116745815,0.004853436,-0.000492454,0.000534169,0.000668768,1.151091099,0.095224574,9.726308823
1784246184.794790,0.010384044,-0.116744086,0.004855069,-0.000489016,0.000426980,0.001022758,1.135944605,0.105605498,9.742948532
1784246184.796807,0.010386385,-0.116742186,0.004853439,-0.000319960,0.000584407,0.000740658,1.142013788,0.123605005,9.721101761
1784246184.798798,0.010388130,-0.116741672,0.004854409,0.000037230,0.000589015,0.000462703,1.142061353,0.090847217,9.728064537
1784246184.800797,0.010380513,-0.116742216,0.004855914,-0.000319902,0.000417266,0.000547088,1.139569283,0.107052825,9.721890450
1784246184.802804,0.010379802,-0.116745085,0.004854697,-0.000763092,0.000060907,0.000480619,1.148032904,0.103213646,9.742497444
1784246184.804801,0.010378200,-0.116746321,0.004851544,-0.000724082,-0.000254382,0.000071427,1.145688176,0.095147304,9.746926308
1784246184.806798,0.010374298,-0.116741933,0.004846240,-0.000942902,0.000006127,-0.000477053,1.147556782,0.101383030,9.748762131
1784246184.808801,0.010377192,-0.116740838,0.004844403,-0.000811223,0.000372426,-0.000821014,1.157307982,0.091795318,9.756330490
1784246184.810799,0.010381612,-0.116742738,0.004840855,-0.000141371,0.000218769,-0.001018861,1.142152429,0.100482978,9.759061813
1784246184.812807,0.010383513,-0.116746753,0.004842354,0.000306182,-0.000236156,-0.000930292,1.163962483,0.085841067,9.762575150
1784246184.814804,0.010380381,-0.116750062,0.004842512,0.000178914,-0.000618556,-0.000559894,1.141890168,0.114118338,9.732249260
1784246184.816803,0.010378899,-0.116745554,0.004843923,-0.000142637,-0.000318800,-0.000269152,1.118581533,0.116631649,9.735828400
1784246184.818834,0.010380265,-0.116742164,0.004848346,-0.000065659,0.000308646,0.000198149,1.141782641,0.104758844,9.725464821
1784246184.820819,0.010383522,-0.116736986,0.004852433,0.000315695,0.000779341,0.000683580,1.142810106,0.080341846,9.754898071
1784246184.822841,0.010382107,-0.116737187,0.004850611,0.000356702,0.000875236,0.000638319,1.133486390,0.086918443,9.728929520
1784246184.824839,0.010372340,-0.116741203,0.004846240,-0.000504617,0.000363608,0.000131344,1.149716854,0.094615795,9.751410484
1784246184.826826,0.010366861,-0.116741642,0.004844740,-0.001403593,-0.000024511,-0.000184344,1.147920370,0.129782632,9.723836899
1784246184.828824,0.010362078,-0.116740167,0.004839848,-0.001765147,0.000050013,-0.000484069,1.142613411,0.099762544,9.733502388
1784246184.830830,0.010360987,-0.116740383,0.004836103,-0.001793458,0.000066876,-0.000882770,1.137889385,0.117709257,9.738545418
1784246184.832824,0.010357745,-0.116738163,0.004834078,-0.001687377,0.000130685,-0.000992212,1.133939862,0.087760933,9.735659599
1784246184.834850,0.010350497,-0.116737381,0.004836212,-0.001881356,0.000267434,-0.000638624,1.130830050,0.090479404,9.737017632
1784246184.836839,0.010347088,-0.116736248,0.004835502,-0.002023665,0.000294515,-0.000291186,1.129600644,0.099926069,9.733939171
1784246184.838835,0.010352761,-0.116734110,0.004832930,-0.001347561,0.000434376,-0.000451364,1.140480161,0.108362958,9.725037575
1784246184.840836,0.010355853,-0.116729550,0.004838342,-0.000383103,0.000780949,-0.000204903,1.136602402,0.122650884,9.739023209
1784246184.842841,0.010349709,-0.116732143,0.004839965,-0.000444257,0.000715349,0.000350743,1.170382142,0.093331769,9.705691338
