time_sec,roll_rad,pitch_rad,yaw_rad,gyro_x,gyro_y,gyro_z,acc_x,acc_y,acc_z
1784246352.423896,-0.001821291,-0.113359846,0.002125211,0.001091111,0.000967868,-0.000031670,1.121547818,-0.010522779,9.717531204
1784246352.426022,-0.001814253,-0.113360681,0.002116004,0.001421303,0.000615209,-0.000958024,1.118815660,-0.012426388,9.738140106
1784246352.427864,-0.001808973,-0.113363706,0.002115347,0.001750052,0.000194250,-0.001453118,1.111992598,0.015197899,9.709168434
1784246352.429805,-0.001808702,-0.113363460,0.002120624,0.001644340,-0.000043004,-0.000784998,1.121183515,-0.001341961,9.750318527
1784246352.431792,-0.001809453,-0.113358930,0.002121256,0.001210899,0.000291205,-0.000169658,1.103129745,-0.009242062,9.759666443
1784246352.433790,-0.001804812,-0.113353066,0.002120242,0.001063035,0.000913613,-0.000170307,1.110558391,-0.027931588,9.728169441
1784246352.435792,-0.001798041,-0.113348380,0.002123082,0.001479596,0.001378823,-0.000079622,1.091786981,-0.019811245,9.754207611
1784246352.437791,-0.001789786,-0.113345623,0.002117513,0.002070421,0.001464740,-0.000357496,1.104394913,-0.017192250,9.741234779
1784246352.439779,-0.001792204,-0.113348223,0.002113362,0.001827393,0.001033048,-0.000960888,1.097320080,-0.007766209,9.751599312
1784246352.441788,-0.001795664,-0.113348722,0.002116063,0.000923664,0.000542424,-0.000752724,1.104686499,0.005777779,9.723896027
1784246352.443778,-0.001794062,-0.113346376,0.002116211,0.000448764,0.000487358,-0.000328325,1.107725978,-0.039137464,9.733923912
1784246352.445841,-0.001790728,-0.113347478,0.002118086,0.000554658,0.000407037,-0.000126972,1.102372289,-0.033556581,9.777890205
1784246352.447815,-0.001792313,-0.113348134,0.002121058,0.000593020,0.000149733,0.000217112,1.107793212,0.004253744,9.743617058
1784246352.449771,-0.001787877,-0.113352150,0.002120099,0.000673538,-0.000235050,0.000268188,1.117013693,0.024319269,9.740615845
1784246352.451774,-0.001786781,-0.113352410,0.002118241,0.000842080,-0.000460445,-0.000037107,1.102998257,-0.020815922,9.749279976
1784246352.453773,-0.001785434,-0.113351129,0.002118443,0.000696920,-0.000298432,-0.000149809,1.097597480,-0.023307510,9.731324196
1784246352.455765,-0.001788133,-0.113345809,0.002122067,0.000377359,0.000197446,0.000166994,1.089489818,0.012114340,9.742304802
1784246352.457769,-0.001790837,-0.113341577,0.002126846,-0.000125698,0.000721493,0.000741243,1.107783198,0.002957554,9.736883163
1784246352.459774,-0.001792034,-0.113342889,0.002128465,-0.000406298,0.000653235,0.001012793,1.103315115,-0.032398712,9.739342690
1784246352.461776,-0.001791386,-0.113345236,0.002123330,-0.000360002,0.000227140,0.000504895,1.116501212,-0.018630946,9.732717514
1784246352.463782,-0.001786094,-0.113345273,0.002119231,0.000037717,0.000041460,-0.000297074,1.107943177,-0.021212656,9.733141899
1784246352.465776,-0.001781246,-0.113338925,0.002115701,0.000622980,0.000496538,-0.000805334,1.100371957,-0.015802978,9.742135048
1784246352.467783,-0.001783108,-0.113331303,0.002119167,0.000655315,0.001296855,-0.000614004,1.116307378,0.002838778,9.738235474
1784246352.469778,-0.001780801,-0.113326296,0.002121225,0.000550386,0.001788831,-0.000078194,1.120825648,0.003839369,9.715381622
1784246352.471773,-0.001783265,-0.113323063,0.002120314,0.000399205,0.001861821,0.000021600,1.100519657,-0.004505380,9.728310585
1784246352.473785,-0.001784508,-0.113326296,0.002119096,-0.000060045,0.001361889,-0.000089855,1.092756152,-0.015609852,9.728679657
1784246352.475779,-0.001781560,-0.113329478,0.002117166,-0.000037435,0.000562526,-0.000281217,1.112261295,0.002423484,9.740919113
1784246352.477786,-0.001776505,-0.113326900,0.002113166,0.000345866,0.000409662,-0.000652320,1.097253203,0.022812178,9.736103058
1784246352.479779,-0.001768711,-0.113325663,0.002116105,0.000989304,0.000598591,-0.000631584,1.093891263,0.003275682,9.717144966
1784246352.481784,-0.001771832,-0.113321900,0.002118601,0.001077593,0.000773335,-0.000129477,1.109413981,-0.010923618,9.732760429
1784246352.483782,-0.001772881,-0.113318592,0.002119694,0.000511019,0.001069762,0.000182087,1.129459023,-0.023687089,9.727317810
1784246352.485786,-0.001773900,-0.113322280,0.002121855,0.000237539,0.000780448,0.000370361,1.109864712,-0.011723546,9.718409538
1784246352.487798,-0.001776344,-0.113330409,0.002117110,-0.000095714,-0.000200510,0.000123924,1.082298994,0.010493975,9.731078148
1784246352.489808,-0.001780967,-0.113327675,0.002111663,-0.000639983,-0.000476908,-0.000541039,1.076938033,0.012774154,9.735123634
1784246352.491797,-0.001781310,-0.113313898,0.002114268,-0.000822943,0.000774494,-0.000547677,1.076475859,0.010648203,9.719866753
1784246352.493792,-0.001776718,-0.113308951,0.002120140,-0.000360523,0.001747385,0.000152795,1.106168985,0.018185800,9.740566254
1784246352.495794,-0.001774137,-0.113309808,0.002126212,0.000200134,0.001462429,0.000874523,1.113491297,-0.006209954,9.755660057
1784246352.497799,-0.001775696,-0.113313936,0.002128868,0.000295804,0.000719345,0.001216296,1.111503124,-0.024734231,9.717880249
1784246352.499793,-0.001779968,-0.113322385,0.002130895,-0.000127775,-0.000337314,0.001244997,1.096726894,-0.023082977,9.701287270
1784246352.501801,-0.001784725,-0.113322586,0.002128629,-0.000703876,-0.000832325,0.000960130,1.092371225,-0.010238110,9.730058670
1784246352.503802,-0.001784210,-0.113318957,0.002128348,-0.000807351,-0.000421161,0.000558840,1.114375234,-0.008759776,9.734573364
1784246352.505801,-0.001781237,-0.113323510,0.002130697,-0.000325999,-0.000417172,0.000518468,1.109238386,0.013932659,9.766096115
1784246352.507803,-0.001781105,-0.113323629,0.002126185,-0.000121857,-0.000645016,0.000216762,1.114092708,0.005526680,9.742285728
1784246352.509804,-0.001786962,-0.113319598,0.002129170,-0.000563781,-0.000229318,0.000107585,1.117471814,-0.011580001,9.747559547
1784246352.511806,-0.001787688,-0.113311879,0.002125271,-0.000861682,0.000631007,0.000067299,1.115565896,-0.021755172,9.732696533
1784246352.513809,-0.001790077,-0.113309205,0.002119014,-0.000915203,0.001187970,-0.000612043,1.105547071,-0.033329736,9.740234375
1784246352.515807,-0.001789781,-0.113307647,0.002121892,-0.000833206,0.001175659,-0.000657779,1.101511240,-0.033258915,9.737542152
1784246352.517877,-0.001790729,-0.113308787,0.002124893,-0.000597274,0.000873040,-0.000078691,1.101279259,-0.015331545,9.737208366
1784246352.519933,-0.001791143,-0.113310337,0.002122050,-0.000517225,0.000439909,-0.000037250,1.110369682,-0.003990312,9.764188766
1784246352.521900,-0.001793925,-0.113308690,0.002116809,-0.000654335,0.000327797,-0.000547793,1.116056561,-0.018593399,9.728234291
1784246352.523887,-0.001793721,-0.113308810,0.002115887,-0.000717194,0.000352945,-0.000792701,1.118282676,-0.019165494,9.741683006
1784246352.525885,-0.001790725,-0.113308057,0.002118537,-0.000312760,0.000309425,-0.000483345,1.120836258,-0.030831084,9.739369392
1784246352.527859,-0.001788686,-0.113308527,0.002117655,0.000162898,0.000293879,-0.000275656,1.113102794,-0.003297039,9.724742889
1784246352.529832,-0.001789465,-0.113312751,0.002117700,0.000234862,-0.000055586,-0.000271091,1.114884615,-0.003828408,9.733260155
1784246352.531835,-0.001783605,-0.113309883,0.002116676,0.000506276,-0.000132315,-0.000302531,1.084329128,-0.007024337,9.733658791
1784246352.533833,-0.001783932,-0.113305159,0.002119415,0.000709023,0.000314606,-0.000142107,1.098116994,-0.017079962,9.736744881
1784246352.535830,-0.001792209,-0.113307185,0.002117268,-0.000105273,0.000308350,0.000007487,1.099812984,-0.025178974,9.738489151
1784246352.537832,-0.001800395,-0.113304503,0.002118148,-0.001169148,0.000237314,0.000043139,1.096719265,-0.021929873,9.728194237
1784246352.539829,-0.001807110,-0.113306023,0.002116452,-0.001835348,0.000220279,0.000087529,1.103641868,-0.004288445,9.755214691
1784246352.541830,-0.001809881,-0.113311253,0.002112781,-0.002017952,-0.000297269,-0.000225451,1.098618746,-0.012209010,9.743949890
1784246352.543846,-0.001817384,-0.113312818,0.002105553,-0.002295327,-0.000724524,-0.000814999,1.103673220,-0.002420286,9.744465828
1784246352.545832,-0.001817017,-0.113315225,0.002109756,-0.002225274,-0.000843818,-0.000737526,1.122949958,-0.041610893,9.739301682
1784246352.547866,-0.001811624,-0.113317490,0.002114959,-0.001072750,-0.000911027,0.000042845,1.114515066,-0.035519179,9.716916084
1784246352.549905,-0.001818038,-0.113317423,0.002115448,-0.000719058,-0.000791539,0.000412933,1.124418139,-0.032154188,9.729948997
1784246352.551864,-0.001826870,-0.113314137,0.002111660,-0.001577440,-0.000347487,0.000195355,1.109017611,-0.042420805,9.752285004
1784246352.553849,-0.001832089,-0.113313511,0.002106495,-0.002110825,0.000031442,-0.000359832,1.086000919,-0.053307537,9.749503136
1784246352.555847,-0.001837640,-0.113319784,0.002103568,-0.002271464,-0.000343162,-0.000731440,1.082100153,-0.042850945,9.735219955
1784246352.557845,-0.001842562,-0.113317244,0.002103671,-0.002244484,-0.000601714,-0.000658859,1.118083000,-0.036546949,9.729019165
1784246352.559854,-0.001840107,-0.113315113,0.002099572,-0.001693945,-0.000218930,-0.000746374,1.121259689,-0.032250665,9.749223709
1784246352.561853,-0.001841287,-0.113316931,0.002096371,-0.001204066,-0.000137586,-0.001045760,1.098955512,-0.024042621,9.706214905
1784246352.563853,-0.001852721,-0.113316350,0.002094993,-0.001734945,-0.000178521,-0.000977000,1.110727072,-0.014848513,9.715251923
1784246352.565853,-0.001856309,-0.113317385,0.002098747,-0.002230749,-0.000156157,-0.000439392,1.113515615,-0.005612547,9.734591484
1784246352.567889,-0.001850868,-0.113323227,0.002098426,-0.001475567,-0.000583551,-0.000102604,1.119993567,-0.027550312,9.720560074
1784246352.569870,-0.001850569,-0.113330886,0.002093489,-0.000729949,-0.001343228,-0.000473206,1.099389553,-0.021325996,9.764515877
1784246352.571860,-0.001851092,-0.113329262,0.002089581,-0.000614742,-0.001386835,-0.000939596,1.095500588,-0.011584084,9.724673271
1784246352.573860,-0.001848546,-0.113323085,0.002091056,-0.000377237,-0.000504844,-0.000858829,1.099012852,-0.017914247,9.726428986
1784246352.575868,-0.001850054,-0.113321774,0.002095598,-0.000205802,0.000116153,-0.000222456,1.114482284,-0.000213537,9.729696274
1784246352.577874,-0.001849220,-0.113326140,0.002094680,-0.000214138,-0.000077107,0.000092912,1.123348236,-0.010097813,9.717535973
1784246352.579859,-0.001850173,-0.113328762,0.002091769,-0.000239998,-0.000484570,-0.000184314,1.094571114,-0.013447098,9.736316681
1784246352.581857,-0.001853905,-0.113325827,0.002097134,-0.000472002,-0.000331892,0.000067191,1.126141667,-0.037196968,9.742919922
1784246352.583862,-0.001857736,-0.113322757,0.002101805,-0.000709717,0.000226843,0.000776297,1.138482332,-0.019360621,9.732734680
1784246352.585866,-0.001859870,-0.113321148,0.002102528,-0.000810766,0.000545095,0.000967560,1.141091228,-0.025320355,9.747045517
1784246352.587867,-0.001860325,-0.113322936,0.002099426,-0.000777915,0.000473123,0.000563815,1.101444602,-0.003490593,9.709936142
1784246352.589888,-0.001862701,-0.113325857,0.002104112,-0.000739869,0.000112893,0.000538776,1.109686136,-0.025696188,9.730425835
1784246352.591882,-0.001866950,-0.113324776,0.002109140,-0.000911245,-0.000042930,0.001098471,1.111909986,-0.028717576,9.710231781
1784246352.593977,-0.001871469,-0.113326296,0.002111245,-0.001161086,-0.000046107,0.001344153,1.104803920,-0.022779839,9.707125664
1784246352.595900,-0.001874065,-0.113333143,0.002110529,-0.001275669,-0.000586689,0.001123098,1.105989099,-0.035819754,9.711525917
1784246352.597889,-0.001881128,-0.113336496,0.002102745,-0.001575894,-0.001100171,0.000311185,1.134023190,-0.017056962,9.731849670
1784246352.599903,-0.001888735,-0.113332696,0.002102314,-0.002130446,-0.000750979,-0.000222633,1.104220748,-0.031129919,9.748318672
1784246352.601889,-0.001893082,-0.113332137,0.002108130,-0.002316921,-0.000252487,0.000292782,1.076556563,-0.019415451,9.725949287
1784246352.603883,-0.001888130,-0.113329157,0.002103779,-0.001639692,-0.000021889,0.000307774,1.071592689,-0.021194931,9.733107567
1784246352.605901,-0.001887491,-0.113325164,0.002101624,-0.000871225,0.000380665,-0.000257219,1.078270793,-0.026558133,9.719180107
1784246352.607887,-0.001891489,-0.113327384,0.002101104,-0.000840580,0.000299652,-0.000346804,1.100601792,-0.034152884,9.738880157
1784246352.609885,-0.001890643,-0.113334000,0.002100788,-0.000790199,-0.000480409,-0.000289675,1.121902943,-0.017753141,9.725555420
1784246352.611933,-0.001887368,-0.113333464,0.002094099,-0.000351504,-0.000762146,-0.000715169,1.114439130,-0.040980570,9.728986740
1784246352.613905,-0.001884668,-0.113331936,0.002095731,0.000155241,-0.000358098,-0.000913135,1.116658449,-0.042416789,9.737945557
1784246352.615902,-0.001888260,-0.113334544,0.002097066,0.000122882,-0.000279067,-0.000463478,1.138853312,-0.025653724,9.734935760
1784246352.617942,-0.001894771,-0.113334790,0.002087667,-0.000640921,-0.000263415,-0.000805235,1.114143968,-0.026389241,9.756875992
1784246352.619900,-0.001894808,-0.113333181,0.002086491,-0.000976796,0.000034813,-0.001250822,1.114460230,-0.038385008,9.742005348
1784246352.621898,-0.001890640,-0.113335922,0.002094878,-0.000377560,-0.000051880,-0.000456568,1.103473425,-0.021018442,9.713860512
1784246352.623924,-0.001886600,-0.113331817,0.002104232,0.000494003,0.000128167,0.000792000,1.096355319,-0.015176091,9.724203110
1784246352.625905,-0.001881877,-0.113326311,0.002106305,0.001117933,0.000820080,0.001271433,1.107676625,-0.045605686,9.698463440
1784246352.627902,-0.001879651,-0.113325156,0.002106613,0.001390565,0.001095755,0.001023424,1.108149648,-0.040960491,9.737498283
1784246352.629931,-0.001878952,-0.113324359,0.002103644,0.001279055,0.000977821,0.000533602,1.106930614,-0.030621057,9.734873772
1784246352.631912,-0.001876025,-0.113318309,0.002107386,0.001182296,0.001178623,0.000413018,1.111688256,-0.008277315,9.734573364
1784246352.633905,-0.001876979,-0.113317780,0.002114394,0.001073999,0.001321107,0.001011062,1.093941569,-0.027026447,9.756853104
1784246352.635909,-0.001882515,-0.113319553,0.002111761,0.000375429,0.000893824,0.001081750,1.121587038,-0.007377510,9.716206551
1784246352.637906,-0.001881443,-0.113322116,0.002107394,-0.000132969,0.000461312,0.000356344,1.116932034,-0.019993300,9.734503746
1784246352.639911,-0.001877577,-0.113318719,0.002112034,0.000186584,0.000496231,0.000246131,1.104968905,-0.007698603,9.728293419
1784246352.641905,-0.001870968,-0.113316141,0.002113772,0.000891298,0.000766354,0.000528991,1.116357327,0.006069898,9.724806786
1784246352.643915,-0.001869016,-0.113319576,0.002116154,0.001183738,0.000570311,0.000606149,1.131875753,-0.008164382,9.745352745
1784246352.645915,-0.001867324,-0.113324098,0.002115679,0.001048268,-0.000054061,0.000550810,1.107135057,-0.014011524,9.730049133
1784246352.647949,-0.001869404,-0.113326088,0.002116053,0.000697119,-0.000469525,0.000402004,1.106938362,-0.028127253,9.762238503
1784246352.649917,-0.001871775,-0.113324739,0.002116480,0.000174193,-0.000373877,0.000385654,1.135847569,-0.014414449,9.735005379
1784246352.651922,-0.001876588,-0.113319129,0.002119862,-0.000328371,0.000199763,0.000592980,1.122015834,-0.009162388,9.714402199
1784246352.653922,-0.001880285,-0.113321006,0.002122232,-0.000786982,0.000455771,0.000887380,1.124991655,-0.022663727,9.717456818
1784246352.655918,-0.001879060,-0.113321282,0.002123869,-0.000727228,0.000243038,0.000937782,1.108648181,0.000258287,9.736867905
1784246352.657923,-0.001875432,-0.113318227,0.002119777,-0.000299740,0.000374900,0.000489309,1.107287169,0.000157892,9.753453255
1784246352.659930,-0.001877734,-0.113321111,0.002121527,-0.000225387,0.000293303,0.000197338,1.124457955,0.009397473,9.746356010
1784246352.661927,-0.001872784,-0.113317437,0.002121474,0.000027434,0.000266166,0.000237862,1.123135686,0.010008950,9.725735664
1784246352.663927,-0.001863581,-0.113309346,0.002119913,0.000872173,0.001069119,-0.000033865,1.108944178,-0.011489836,9.750241280
1784246352.665929,-0.001863112,-0.113306411,0.002114520,0.001144245,0.001605759,-0.000557563,1.112977147,-0.012799615,9.738132477
1784246352.667933,-0.001866551,-0.113308929,0.002108043,0.000502786,0.001215223,-0.001179432,1.084194779,-0.017810373,9.738519669
1784246352.669929,-0.001873838,-0.113310933,0.002101994,-0.000492558,0.000594320,-0.001617119,1.099927902,-0.017382395,9.712984085
1784246352.671929,-0.001868255,-0.113310434,0.002098517,-0.000546880,0.000331982,-0.001807482,1.096254587,-0.023264825,9.727737427
1784246352.673932,-0.001864373,-0.113309652,0.002095714,0.000229541,0.000383286,-0.001817150,1.098367453,-0.032430854,9.752786636
1784246352.675935,-0.001866037,-0.113306724,0.002099444,0.000361704,0.000584007,-0.001282418,1.118678570,-0.025261458,9.716089249
1784246352.677934,-0.001866571,-0.113309756,0.002106551,0.000236218,0.000440318,-0.000190817,1.099773169,-0.028330602,9.740710258
1784246352.679935,-0.001860830,-0.113316678,0.002103317,0.000590833,-0.000331929,0.000077889,1.134396553,-0.024951132,9.707139969
1784246352.681941,-0.001857949,-0.113313764,0.002097934,0.000945741,-0.000512247,-0.000590565,1.101036906,0.001703093,9.736420631
1784246352.683977,-0.001854546,-0.113307573,0.002100884,0.001068163,0.000237164,-0.000639593,1.120004535,0.010125504,9.714972496
1784246352.685944,-0.001854437,-0.113307588,0.002102928,0.001027387,0.000583303,-0.000153126,1.114654779,0.013711419,9.724405289
1784246352.687948,-0.001848350,-0.113308959,0.002102252,0.001065150,0.000332307,-0.000054162,1.101606369,0.011161756,9.728411674
1784246352.689944,-0.001845509,-0.113307647,0.002101674,0.001256827,0.000238901,-0.000179878,1.099603295,-0.006670099,9.719328880
1784246352.691948,-0.001844925,-0.113306865,0.002104313,0.001162381,0.000315824,-0.000018300,1.130855083,-0.019256519,9.731831551
1784246352.693950,-0.001845313,-0.113303199,0.002109093,0.000969036,0.000640867,0.000479797,1.114171863,-0.025359768,9.738052368
1784246352.695954,-0.001851753,-0.113298871,0.002105588,0.000307287,0.001119478,0.000482139,1.112820625,-0.027004005,9.719658852
1784246352.697948,-0.001859037,-0.113302566,0.002101440,-0.000740379,0.000883586,-0.000061865,1.114316940,0.023508715,9.733434677
1784246352.699953,-0.001861589,-0.113305174,0.002100753,-0.001219783,0.000239706,-0.000297878,1.132658362,0.019187296,9.741045952
1784246352.701961,-0.001864859,-0.113308884,0.002106135,-0.001245267,-0.000254608,0.000144323,1.120064855,-0.020503761,9.737641335
1784246352.703957,-0.001866247,-0.113305651,0.002107555,-0.001132513,-0.000148923,0.000595629,1.116301298,0.003601156,9.757070541
1784246352.705956,-0.001862881,-0.113301702,0.002107321,-0.000645932,0.000448341,0.000494698,1.111154437,-0.015022776,9.739012718
1784246352.707958,-0.001861370,-0.113300875,0.002104413,-0.000184782,0.000650182,0.000113161,1.101658463,-0.019937726,9.754216194
1784246352.709963,-0.001863894,-0.113296837,0.002099483,-0.000282093,0.000803553,-0.000436216,1.108000875,-0.016704429,9.729135513
1784246352.711982,-0.001863283,-0.113293402,0.002102141,-0.000351944,0.001092940,-0.000456351,1.119720697,0.025212489,9.736141205
1784246352.713991,-0.001858435,-0.113290690,0.002108266,0.000046291,0.001186600,0.000233061,1.110539317,0.010722448,9.774146080
1784246352.715979,-0.001863373,-0.113289058,0.002116966,0.000008523,0.001129604,0.001185368,1.120893240,0.011667384,9.748608589
1784246352.718017,-0.001863979,-0.113290109,0.002119786,-0.000400561,0.000877314,0.001696815,1.114209890,0.014152407,9.726202011
1784246352.720001,-0.001859195,-0.113293864,0.002120475,-0.000104378,0.000330896,0.001454560,1.115357757,-0.002830130,9.718023300
1784246352.721993,-0.001859203,-0.113295428,0.002118749,0.000238140,-0.000120536,0.000953052,1.111605167,-0.015822701,9.724661827
1784246352.724039,-0.001867922,-0.113293245,0.002122239,-0.000376554,-0.000045870,0.000877412,1.121393085,0.012875518,9.703783035
1784246352.726012,-0.001872353,-0.113288999,0.002129137,-0.001056570,0.000403247,0.001437902,1.093585968,0.014140608,9.701971054
1784246352.728010,-0.001865634,-0.113289781,0.002126967,-0.000667624,0.000471888,0.001358778,1.106007814,0.005159945,9.745414734
1784246352.730002,-0.001862967,-0.113292702,0.002122865,0.000010112,0.000036532,0.000504780,1.101352215,-0.009485783,9.734107018
1784246352.732005,-0.001863408,-0.113293506,0.002127252,0.000159741,-0.000225901,0.000369808,1.117231965,0.002636872,9.701920509
1784246352.734005,-0.001864341,-0.113294944,0.002129074,0.000015956,-0.000291017,0.000705027,1.109153390,0.003941154,9.722096443
1784246352.736004,-0.001863741,-0.113294937,0.002126892,-0.000069040,-0.000281902,0.000498281,1.101390481,-0.005133366,9.752068520
1784246352.738008,-0.001855471,-0.113291517,0.002130932,0.000541117,0.000023036,0.000422607,1.117018461,-0.012422475,9.740829468
1784246352.740010,-0.001854642,-0.113287322,0.002138705,0.001077519,0.000528080,0.001037117,1.110644817,-0.020360772,9.734495163
1784246352.742003,-0.001856914,-0.113288358,0.002138059,0.000742360,0.000599280,0.001247302,1.113635898,0.003442059,9.721200943
1784246352.744017,-0.001855329,-0.113285638,0.002132462,0.000408805,0.000549651,0.000497121,1.118638873,0.009583507,9.730659485
1784246352.745998,-0.001855152,-0.113282979,0.002131852,0.000331300,0.000763812,-0.000065772,1.150425673,0.001725313,9.707326889
1784246352.748003,-0.001854714,-0.113283217,0.002131436,0.000219148,0.000864214,-0.000115196,1.114441037,0.032591946,9.716007233
1784246352.750039,-0.001853122,-0.113278687,0.002128055,0.000211606,0.001063768,-0.000348948,1.112931848,-0.016399201,9.740350723
1784246352.752006,-0.001855465,-0.113272823,0.002126370,0.000064575,0.001481097,-0.000590152,1.112947345,-0.015061677,9.741255760
1784246352.754000,-0.001857252,-0.113270231,0.002126078,-0.000242753,0.001713840,-0.000531907,1.107601047,-0.011043705,9.752932549
1784246352.755993,-0.001857818,-0.113268614,0.002124842,-0.000343245,0.001593962,-0.000472842,1.114898205,-0.002100158,9.742238045
1784246352.758000,-0.001859269,-0.113273494,0.002130308,-0.000423450,0.000946298,-0.000035806,1.118073940,-0.037023526,9.733050346
1784246352.759997,-0.001858626,-0.113274850,0.002134548,-0.000358336,0.000272944,0.000642679,1.088644385,-0.020190343,9.750166893
1784246352.761997,-0.001857518,-0.113271907,0.002130567,-0.000140927,0.000306653,0.000472222,1.099097013,-0.009145810,9.753386497
1784246352.764014,-0.001854544,-0.113271601,0.002130741,0.000109324,0.000403986,0.000059769,1.104922414,-0.010091031,9.749797821
1784246352.766006,-0.001858097,-0.113272578,0.002127271,-0.000018817,0.000207809,-0.000170473,1.077126145,-0.009146716,9.730051041
1784246352.768006,-0.001860520,-0.113274790,0.002132982,-0.000422852,-0.000150289,0.000075297,1.105534554,0.001324824,9.718488693
1784246352.770008,-0.001860442,-0.113280080,0.002130174,-0.000467240,-0.000701953,0.000271167,1.098306894,-0.001398146,9.736397743
1784246352.772011,-0.001865087,-0.113287419,0.002126275,-0.000699853,-0.001367788,-0.000219746,1.104514718,-0.007330739,9.740400314
1784246352.774013,-0.001862735,-0.113292500,0.002122299,-0.000778889,-0.001871263,-0.000667589,1.097311258,-0.011483069,9.707190514
1784246352.776013,-0.001866430,-0.113294318,0.002122287,-0.000742584,-0.001862618,-0.000738872,1.099030495,-0.016560821,9.725092888
1784246352.778017,-0.001865804,-0.113287024,0.002122822,-0.000744261,-0.001047934,-0.000479461,1.086580157,-0.006589215,9.731422424
1784246352.780019,-0.001865363,-0.113284871,0.002115280,-0.000524304,-0.000183521,-0.000830176,1.112672210,-0.000311368,9.746730804
1784246352.782014,-0.001870453,-0.113287725,0.002115638,-0.000750643,-0.000179831,-0.001053667,1.109679937,-0.025340432,9.743429184
1784246352.784026,-0.001878497,-0.113292783,0.002117322,-0.001374230,-0.000644382,-0.000533841,1.098068476,-0.019084843,9.766769409
1784246352.786023,-0.001888470,-0.113293476,0.002116058,-0.002170281,-0.000834681,-0.000227078,1.128178120,-0.017481059,9.739014626
1784246352.788023,-0.001893022,-0.113293566,0.002114621,-0.002582629,-0.000577697,-0.000235808,1.111752868,-0.041305002,9.716428757
1784246352.790024,-0.001887813,-0.113293618,0.002114310,-0.001851783,-0.000347278,-0.000294443,1.111047745,-0.026402682,9.701279640
1784246352.792021,-0.001882102,-0.113296323,0.002114041,-0.000617006,-0.000438982,-0.000337489,1.116447210,-0.022703929,9.738519669
1784246352.794022,-0.001887570,-0.113298774,0.002116609,-0.000352276,-0.000626598,-0.000099752,1.080517054,-0.024944481,9.740264893
1784246352.796029,-0.001896415,-0.113298178,0.002121907,-0.001098381,-0.000540147,0.000560588,1.103808284,0.009182187,9.750817299
1784246352.798037,-0.001896213,-0.113295071,0.002121675,-0.001439008,-0.000154043,0.000827139,1.122595429,0.003619234,9.743179321
1784246352.800065,-0.001894582,-0.113296881,0.002115051,-0.001072080,-0.000035972,0.000136848,1.139581442,-0.040374801,9.724530220
1784246352.802038,-0.001902692,-0.113300264,0.002118269,-0.001244054,-0.000378974,-0.000080281,1.133515239,-0.021165537,9.743478775
1784246352.804032,-0.001907665,-0.113305725,0.002127252,-0.001662813,-0.000776428,0.000861414,1.093605757,-0.020456716,9.715647697
1784246352.806037,-0.001911945,-0.113305122,0.002125581,-0.001747130,-0.000796148,0.001188248,1.094561815,-0.014736926,9.728686333
1784246352.808041,-0.001916786,-0.113304175,0.002130248,-0.001877253,-0.000538014,0.001138922,1.115256429,-0.008088387,9.764616013
1784246352.810040,-0.001913577,-0.113298632,0.002129201,-0.001462077,-0.000013369,0.001087623,1.126917601,-0.011519486,9.722014427
1784246352.812067,-0.001910635,-0.113295712,0.002123290,-0.000703631,0.000566663,0.000275851,1.089744806,-0.004415097,9.735025406
1784246352.814053,-0.001906556,-0.113299087,0.002124026,-0.000158822,0.000304550,-0.000192981,1.131327271,-0.018671226,9.711660385
1784246352.816047,-0.001911218,-0.113299020,0.002120969,-0.000252829,-0.000080644,-0.000283656,1.139281988,-0.029058736,9.708911896
1784246352.818058,-0.001916527,-0.113294624,0.002120884,-0.000838205,0.000328288,-0.000346692,1.110533357,-0.028131912,9.756413460
1784246352.820050,-0.001920992,-0.113290645,0.002128045,-0.001172974,0.000890985,0.000294977,1.098475933,-0.024278525,9.740285873
1784246352.822064,-0.001921384,-0.113291956,0.002127348,-0.001132476,0.000830301,0.000688048,1.076162338,-0.013306768,9.749750137
1784246352.824085,-0.001924302,-0.113290973,0.002128497,-0.001051050,0.000482093,0.000557594,1.099146128,-0.007541193,9.716632843
1784246352.826063,-0.001926810,-0.113292240,0.002127555,-0.001136368,0.000229987,0.000462338,1.100213289,-0.031239966,9.707962990
1784246352.828074,-0.001923773,-0.113295488,0.002127534,-0.000784536,-0.000155350,0.000266117,1.100053430,-0.007069754,9.711705208
1784246352.830062,-0.001922094,-0.113301352,0.002127050,-0.000242276,-0.000745133,0.000121904,1.130231142,-0.034008048,9.728149414
1784246352.832063,-0.001927552,-0.113301516,0.002123900,-0.000459255,-0.000951310,-0.000127295,1.134773850,0.008016749,9.732906342
1784246352.834058,-0.001931532,-0.113302156,0.002123285,-0.001028165,-0.000629320,-0.000270753,1.129065514,0.017181078,9.714578629
1784246352.836065,-0.001930380,-0.113299742,0.002121180,-0.000988720,-0.000219767,-0.000355512,1.131067038,-0.000562983,9.748987198
1784246352.838065,-0.001925624,-0.113303125,0.002123665,-0.000366054,-0.000144692,-0.000273144,1.115914345,0.006930233,9.730639458
1784246352.840069,-0.001924793,-0.113299958,0.002129023,0.000123080,-0.000039486,0.000292648,1.093878388,-0.032389253,9.755023956
1784246352.842062,-0.001924704,-0.113303378,0.002121677,0.000136446,-0.000045269,0.000072005,1.122962356,-0.040702254,9.737513542
1784246352.844073,-0.001920854,-0.113311827,0.002112642,0.000266744,-0.000818659,-0.001085675,1.123808026,-0.044364218,9.746906281
1784246352.846071,-0.001921337,-0.113311835,0.002115153,0.000398751,-0.001152572,-0.001259778,1.137341022,-0.038700476,9.745162010
1784246352.848073,-0.001927345,-0.113305584,0.002115778,-0.000092521,-0.000385962,-0.000659845,1.120475888,-0.022428539,9.755561829
1784246352.850070,-0.001928815,-0.113303475,0.002120061,-0.000503390,0.000316296,-0.000095720,1.113442421,-0.011864922,9.731862068
1784246352.852069,-0.001929129,-0.113306917,0.002123108,-0.000430750,0.000139128,0.000438355,1.113504887,-0.007318544,9.722476006
1784246352.854068,-0.001925339,-0.113311887,0.002122286,-0.000092719,-0.000458666,0.000446176,1.127480149,-0.001711432,9.727906227
1784246352.856071,-0.001926351,-0.113313757,0.002126868,0.000118283,-0.000786442,0.000560729,1.140300989,-0.015952552,9.754278183
1784246352.858080,-0.001932404,-0.113316864,0.002131894,-0.000341686,-0.000823493,0.001113676,1.113882780,-0.011124194,9.752937317
1784246352.860078,-0.001937858,-0.113314442,0.002133577,-0.000998686,-0.000558030,0.001355143,1.126997828,-0.003186289,9.747173309
1784246352.862075,-0.001935998,-0.113306962,0.002123551,-0.001033972,0.000267189,0.000452166,1.109973431,-0.039134406,9.729441643
1784246352.864080,-0.001935390,-0.113303162,0.002120136,-0.000641728,0.000974276,-0.000601530,1.128875971,-0.036494154,9.702130318
1784246352.866082,-0.001934151,-0.113303974,0.002123912,-0.000291967,0.000924961,-0.000433484,1.110357046,-0.044112250,9.735688210
1784246352.868087,-0.001934667,-0.113306083,0.002124620,-0.000078701,0.000455732,-0.000024716,1.091764927,-0.021606265,9.754643440
1784246352.870082,-0.001938117,-0.113307886,0.002122496,-0.000284838,0.000048018,-0.000088911,1.093898177,-0.031016763,9.750998497
1784246352.872100,-0.001938373,-0.113304459,0.002127998,-0.000431499,0.000144955,0.000191458,1.087127686,0.002291119,9.741791725
1784246352.874094,-0.001940021,-0.113299139,0.002127391,-0.000443481,0.000645978,0.000488510,1.107557416,-0.015440647,9.741250038
1784246352.876141,-0.001940879,-0.113298796,0.002117011,-0.000614702,0.000803259,-0.000361562,1.114805579,-0.009315236,9.748916626
1784246352.878102,-0.001944865,-0.113295645,0.002119819,-0.000903731,0.000828063,-0.000728866,1.112782717,0.006640167,9.714047432
1784246352.880091,-0.001951888,-0.113295078,0.002125594,-0.001406094,0.000860305,0.000140435,1.126105070,-0.004759956,9.718021393
1784246352.882095,-0.001950302,-0.113294274,0.002121924,-0.001374898,0.000720507,0.000286035,1.101684213,-0.019330781,9.731802940
1784246352.884093,-0.001946200,-0.113291942,0.002125763,-0.000627113,0.000738169,0.000177299,1.113288760,0.011139466,9.710489273
1784246352.886097,-0.001938364,-0.113295726,0.002127875,0.000383564,0.000437923,0.000440066,1.094023824,-0.020704119,9.749719620
1784246352.888095,-0.001934515,-0.113304481,0.002116394,0.001005058,-0.000583220,-0.000402117,1.108273268,-0.031070368,9.732629776
1784246352.890101,-0.001937628,-0.113307066,0.002115911,0.000699475,-0.001246385,-0.001106653,1.077549696,-0.011376369,9.727795601
1784246352.892109,-0.001937219,-0.113304675,0.002115594,0.000321053,-0.000922609,-0.000839424,1.099356532,-0.027260410,9.716955185
1784246352.894101,-0.001937790,-0.113300942,0.002111698,0.000195102,-0.000272825,-0.000894932,1.112384796,-0.026896503,9.705312729
1784246352.896099,-0.001936973,-0.113301478,0.002112215,0.000137232,0.000001847,-0.000882266,1.102885365,-0.032243516,9.718271255
1784246352.898105,-0.001935925,-0.113302894,0.002115612,0.000361626,-0.000127794,-0.000405106,1.140205145,-0.026436526,9.716550827
1784246352.900107,-0.001934233,-0.113302141,0.002120253,0.000615814,-0.000134879,0.000213908,1.128264427,-0.046690132,9.750930786
1784246352.902105,-0.001932009,-0.113302171,0.002122541,0.000765977,-0.000049224,0.000593096,1.115924358,-0.027743399,9.755075455
1784246352.904107,-0.001939414,-0.113305978,0.002128025,0.000293408,-0.000269313,0.000993195,1.121821284,-0.024072288,9.732240677
1784246352.906107,-0.001951686,-0.113305338,0.002130518,-0.001027051,-0.000383895,0.001409730,1.098948359,-0.023693224,9.720114708
1784246352.908116,-0.001952158,-0.113299809,0.002130155,-0.001566429,0.000052820,0.001265445,1.118381381,-0.013522876,9.704059601
1784246352.910110,-0.001948776,-0.113301411,0.002126946,-0.000947262,0.000219156,0.000655647,1.074518681,-0.001957559,9.731886864
1784246352.912112,-0.001947186,-0.113299027,0.002125695,-0.000388919,0.000213622,0.000138672,1.100177765,0.006070195,9.753932953
1784246352.914130,-0.001938400,-0.113293990,0.002122629,0.000239112,0.000603297,-0.000253445,1.124769688,-0.003036718,9.730135918
1784246352.916127,-0.001930803,-0.113292210,0.002125012,0.001129663,0.000845287,-0.000340074,1.133992434,-0.018515309,9.747979164
1784246352.918134,-0.001926900,-0.113296099,0.002135276,0.001716704,0.000530616,0.000514627,1.118903160,-0.006466172,9.718900681
1784246352.920131,-0.001925914,-0.113296904,0.002136614,0.001690468,0.000126393,0.001117520,1.119287133,-0.011847452,9.718866348
1784246352.922129,-0.001923858,-0.113297693,0.002135666,0.001439664,-0.000017049,0.000817070,1.117458105,-0.013714873,9.732750893
1784246352.924182,-0.001920391,-0.113297135,0.002137790,0.001403063,0.000020652,0.000635324,1.092633843,0.012099533,9.738719940
1784246352.926132,-0.001916076,-0.113293730,0.002140874,0.001559705,0.000332577,0.000757525,1.103383303,0.011402308,9.754418373
1784246352.928148,-0.001911466,-0.113291100,0.002136401,0.001675487,0.000616559,0.000395570,1.110495687,0.005108809,9.744520187
1784246352.930135,-0.001906122,-0.113290660,0.002139588,0.001830006,0.000624689,0.000130894,1.091684222,-0.030349271,9.724100113
1784246352.932132,-0.001904601,-0.113296531,0.002147385,0.001880444,0.000086102,0.000783383,1.136311889,-0.013486119,9.729631424
1784246352.934132,-0.001902074,-0.113301858,0.002154521,0.001768545,-0.000612407,0.001545602,1.109113932,-0.000423985,9.705927849
1784246352.936137,-0.001898675,-0.113300003,0.002149192,0.001712931,-0.000594032,0.001201258,1.108066201,-0.010919088,9.734552383
1784246352.938135,-0.001898334,-0.113303252,0.002142669,0.001403983,-0.000518220,0.000047738,1.146450758,-0.027206631,9.750624657
1784246352.940145,-0.001898012,-0.113302194,0.002145280,0.001032352,-0.000518840,-0.000233527,1.083888054,-0.004527952,9.761469841
1784246352.942140,-0.001896071,-0.113300674,0.002154773,0.000997602,-0.000204381,0.000628761,1.100082159,-0.001170315,9.764198303
1784246352.944143,-0.001894052,-0.113296293,0.002160989,0.001064068,0.000202263,0.001492737,1.110671759,-0.016907446,9.752900124
1784246352.946214,-0.001890705,-0.113298424,0.002158041,0.001111800,0.000251720,0.001272323,1.116180778,-0.007886847,9.734580040
1784246352.948149,-0.001891358,-0.113301381,0.002158328,0.000943738,-0.000157720,0.000729862,1.100629091,-0.031909894,9.738447189
1784246352.950148,-0.001892548,-0.113298647,0.002148726,0.000464227,-0.000125612,-0.000079234,1.094878912,-0.025103014,9.736691475
1784246352.952143,-0.001893202,-0.113297813,0.002145868,0.000118160,0.000151061,-0.000883857,1.120248079,-0.004872815,9.744467735
1784246352.954145,-0.001895254,-0.113298848,0.002151859,-0.000120964,0.000111954,-0.000406280,1.138500452,-0.015974069,9.760553360
1784246352.956142,-0.001898714,-0.113301218,0.002156691,-0.000425360,-0.000134441,0.000481764,1.111446619,0.010383811,9.757109642
1784246352.958148,-0.001897188,-0.113304935,0.002155774,-0.000503446,-0.000510490,0.000640428,1.120786428,0.000287486,9.710875511
1784246352.960154,-0.001898253,-0.113300413,0.002154495,-0.000445744,-0.000315038,0.000325567,1.123223901,-0.021210993,9.705360413
1784246352.962148,-0.001902379,-0.113296635,0.002151789,-0.000705381,0.000335131,0.000008285,1.130275607,-0.030414827,9.726827621
1784246352.964153,-0.001903097,-0.113294460,0.002150824,-0.000859579,0.000700289,-0.000205349,1.128989220,-0.025873452,9.720578194
1784246352.966155,-0.001897240,-0.113293707,0.002151930,-0.000269396,0.000759630,-0.000180496,1.100607395,0.002671532,9.727010727
1784246352.968160,-0.001889584,-0.113297634,0.002153917,0.000679237,0.000310403,-0.000019896,1.103013515,0.016894875,9.738760948
1784246352.970154,-0.001886915,-0.113300070,0.002156779,0.001168747,-0.000231557,0.000239998,1.113240957,-0.027232328,9.751040459
1784246352.972164,-0.001883454,-0.113297716,0.002157885,0.001295279,-0.000173687,0.000395380,1.086127996,-0.005798836,9.747117996
1784246352.974156,-0.001880451,-0.113296367,0.002154309,0.001318716,0.000105858,0.000076545,1.083689094,0.012850082,9.712265968
1784246352.976163,-0.001883568,-0.113298669,0.002149276,0.000845007,-0.000006976,-0.000519303,1.107144833,0.022844683,9.713697433
1784246352.978165,-0.001885617,-0.113301083,0.002152259,0.000170976,-0.000304607,-0.000467696,1.106569171,-0.025468342,9.703971863
1784246352.980163,-0.001885167,-0.113299504,0.002153817,-0.000028854,-0.000257125,-0.000012974,1.102611184,-0.017486844,9.722847939
1784246352.982171,-0.001886580,-0.113299444,0.002148190,-0.000117197,-0.000075507,-0.000276513,1.118459940,-0.004392318,9.743124008
1784246352.984210,-0.001885889,-0.113301277,0.002139183,-0.000326249,-0.000099316,-0.001173619,1.105258107,-0.019094156,9.755121231
1784246352.986177,-0.001881422,-0.113302581,0.002131283,-0.000099373,-0.000209528,-0.002025636,1.099516869,-0.011810707,9.749334335
1784246352.988175,-0.001881259,-0.113301560,0.002128982,0.000119837,-0.000221167,-0.002194559,1.089421272,0.006710190,9.746304512
1784246352.990175,-0.001887166,-0.113304429,0.002134064,-0.000320560,-0.000337037,-0.001362422,1.078588009,0.002692515,9.763752937
1784246352.992174,-0.001889387,-0.113302283,0.002135583,-0.000731068,-0.000296146,-0.000484887,1.078042865,-0.006978819,9.738584518
1784246352.994174,-0.001892988,-0.113299012,0.002132724,-0.000898708,0.000059644,-0.000403193,1.131804585,-0.013994235,9.746212959
1784246352.996177,-0.001900568,-0.113299683,0.002129326,-0.001420027,0.000126917,-0.000634212,1.137870908,-0.031986818,9.745205879
1784246352.998188,-0.001901884,-0.113301143,0.002128366,-0.001603141,-0.000006853,-0.000694902,1.124622226,-0.013927687,9.749792099
1784246353.000180,-0.001900990,-0.113303810,0.002132628,-0.001106211,-0.000239860,-0.000287573,1.110464573,0.003647279,9.761099815
1784246353.002185,-0.001905493,-0.113305904,0.002134932,-0.000998895,-0.000498403,0.000260988,1.097704053,0.024039041,9.751803398
1784246353.004185,-0.001907015,-0.113307916,0.002132014,-0.001262553,-0.000626299,0.000209108,1.088505507,0.004955280,9.742705345
1784246353.006188,-0.001908810,-0.113307342,0.002127417,-0.001324948,-0.000537887,-0.000314868,1.092619061,0.010361743,9.731087685
1784246353.008188,-0.001906353,-0.113304734,0.002128773,-0.001043047,-0.000244570,-0.000442058,1.137617111,-0.016257906,9.739029884
1784246353.010188,-0.001902228,-0.113304235,0.002128607,-0.000404389,-0.000037112,-0.000281335,1.147858977,-0.023897376,9.723747253
1784246353.012226,-0.001904215,-0.113304459,0.002125589,-0.000174878,-0.000007773,-0.000436081,1.098991513,-0.018892841,9.738079071
1784246353.014255,-0.001902305,-0.113299489,0.002126530,-0.000149219,0.000320558,-0.000457067,1.099453688,-0.018793665,9.723287582
1784246353.016208,-0.001902660,-0.113293678,0.002133104,0.000053230,0.000967871,0.000162024,1.111989737,0.015985711,9.724416733
1784246353.018204,-0.001903669,-0.113288671,0.002135050,-0.000143054,0.001442474,0.000720807,1.103349924,0.006681413,9.725245476
1784246353.020205,-0.001901866,-0.113288395,0.002134079,-0.000198483,0.001412500,0.000602417,1.073265910,-0.028661933,9.772064209
1784246353.022200,-0.001902676,-0.113291577,0.002136803,-0.000064198,0.000830584,0.000549433,1.094751239,0.000538263,9.722508430
1784246353.024203,-0.001901990,-0.113289602,0.002132951,-0.000110379,0.000427325,0.000330202,1.125067949,-0.015982460,9.722879410
1784246353.026207,-0.001897831,-0.113288015,0.002127975,0.000132024,0.000457994,-0.000386865,1.135849118,-0.013591663,9.745322227
1784246353.028212,-0.001900829,-0.113286734,0.002124788,0.000074382,0.000572415,-0.000836893,1.142601013,-0.012699304,9.733677864
1784246353.030207,-0.001906005,-0.113282152,0.002121965,-0.000580683,0.000859043,-0.000947954,1.109147668,-0.032073177,9.746074677
1784246353.032212,-0.001902892,-0.113278173,0.002119292,-0.000604305,0.001207062,-0.001045415,1.084494829,0.005226418,9.711769104
1784246353.034213,-0.001899261,-0.113279440,0.002125420,0.000005282,0.001018531,-0.000576328,1.095987082,-0.006833959,9.748912811
1784246353.036211,-0.001902752,-0.113286026,0.002127816,0.000042862,0.000163168,0.000157891,1.079317451,-0.012422469,9.745723724
1784246353.038208,-0.001899841,-0.113283761,0.002121832,-0.000070493,-0.000273464,-0.000118755,1.127873302,-0.006612954,9.723391533
1784246353.040210,-0.001894054,-0.113282435,0.002114366,0.000396938,-0.000052962,-0.001056538,1.116158485,-0.011305198,9.711245537
1784246353.042220,-0.001896850,-0.113286652,0.002117925,0.000460913,-0.000235537,-0.001056086,1.108576894,-0.006788262,9.719784737
1784246353.044227,-0.001901580,-0.113291107,0.002120681,-0.000149493,-0.000762199,-0.000282765,1.116467595,-0.021328250,9.734045982
1784246353.046223,-0.001904291,-0.113291897,0.002126143,-0.000573859,-0.000912871,0.000408283,1.096409082,-0.009482962,9.742621422
1784246353.048229,-0.001905359,-0.113295227,0.002123954,-0.000683068,-0.001004576,0.000551087,1.116191268,-0.008614246,9.710814476
1784246353.050224,-0.001901544,-0.113298416,0.002119180,-0.000401013,-0.001232736,-0.000085331,1.104449034,-0.011495940,9.759203911
1784246353.052237,-0.001898633,-0.113300055,0.002122342,0.000149136,-0.001224666,-0.000222503,1.127842546,-0.008071308,9.739521980
1784246353.054242,-0.001902525,-0.113299556,0.002128367,0.000045292,-0.000894230,0.000472854,1.107940197,-0.020424847,9.748389244
1784246353.056230,-0.001905942,-0.113296643,0.002135642,-0.000425571,-0.000345256,0.001305437,1.122387648,-0.012205663,9.763699532
1784246353.058238,-0.001910909,-0.113298431,0.002133631,-0.000823864,-0.000157408,0.001369141,1.112363219,-0.027471647,9.723243713
1784246353.060234,-0.001913781,-0.113297351,0.002133731,-0.001132288,-0.000143371,0.000927437,1.119273305,-0.013172258,9.716167450
1784246353.062240,-0.001915578,-0.113290429,0.002136665,-0.001116439,0.000438353,0.000916107,1.120195389,0.025816869,9.713280678
1784246353.064240,-0.001912754,-0.113286749,0.002136746,-0.000813198,0.001075199,0.000873400,1.113927364,-0.007937591,9.745785713
1784246353.066245,-0.001907369,-0.113289453,0.002136975,-0.000128681,0.000887604,0.000604721,1.129281044,-0.000470033,9.739123344
1784246353.068245,-0.001900874,-0.113287359,0.002133775,0.000622726,0.000659771,0.000156160,1.115685463,-0.011896852,9.732312202
1784246353.070249,-0.001902909,-0.113283895,0.002136127,0.000685983,0.000911781,0.000029517,1.107448816,-0.023592977,9.753748894
1784246353.072248,-0.001903798,-0.113284715,0.002142067,0.000366143,0.000843229,0.000603190,1.108518243,-0.011709471,9.718855858
1784246353.074249,-0.001900289,-0.113289617,0.002144505,0.000524736,0.000213315,0.000982392,1.103044629,-0.020043639,9.703555107
1784246353.076248,-0.001897201,-0.113293916,0.002148208,0.000891281,-0.000481161,0.001077205,1.092409849,0.030493950,9.735700607
1784246353.078251,-0.001897704,-0.113294043,0.002150707,0.000709701,-0.000658588,0.001201548,1.109949589,-0.004165436,9.726528168
1784246353.080255,-0.001902413,-0.113288425,0.002150888,0.000024610,-0.000114804,0.001114484,1.101315975,-0.011798725,9.744403839
1784246353.082250,-0.001901741,-0.113288395,0.002145770,-0.000292180,0.000300690,0.000509901,1.111263990,-0.008484237,9.701395035
1784246353.084255,-0.001902043,-0.113295488,0.002146357,-0.000242656,-0.000227612,0.000065285,1.080248475,-0.010143294,9.738566399
1784246353.086253,-0.001902346,-0.113301627,0.002153673,-0.000176945,-0.001031977,0.000587532,1.115502119,-0.027527796,9.725487709
1784246353.088261,-0.001900951,-0.113303028,0.002154280,0.000020087,-0.001205466,0.000952466,1.099162340,-0.005387234,9.728751183
1784246353.090257,-0.001901257,-0.113301955,0.002153070,0.000097958,-0.000841622,0.000643286,1.115255117,-0.009314625,9.748020172
1784246353.092264,-0.001901020,-0.113302469,0.002151646,0.000046515,-0.000574625,0.000291528,1.111143112,-0.016328508,9.733624458
1784246353.094261,-0.001896160,-0.113301225,0.002146200,0.000317169,-0.000381450,-0.000289174,1.123273134,-0.014339322,9.747099876
1784246353.096264,-0.001893798,-0.113298059,0.002145310,0.000661658,0.000009565,-0.000692530,1.128689528,-0.013343866,9.723347664
1784246353.098270,-0.001893739,-0.113295630,0.002141175,0.000588247,0.000423133,-0.000859805,1.083285093,-0.020327657,9.716087341
1784246353.100267,-0.001896949,-0.113298781,0.002141481,0.000168199,0.000295609,-0.000858273,1.116779685,-0.031329047,9.753708839
1784246353.102268,-0.001897198,-0.113304876,0.002143717,-0.000091233,-0.000412421,-0.000427266,1.094749331,-0.034230761,9.760394096
1784246353.104277,-0.001891823,-0.113306716,0.002140514,0.000299439,-0.000896584,-0.000419066,1.117862582,-0.050850287,9.787658691
1784246353.106272,-0.001890281,-0.113304876,0.002141931,0.000698538,-0.000710108,-0.000482113,1.100245953,0.008227699,9.702387810
1784246353.108272,-0.001884958,-0.113300011,0.002147696,0.000956906,-0.000091697,0.000088356,1.103218675,-0.004485818,9.720691681
1784246353.110274,-0.001885579,-0.113300785,0.002146707,0.000980809,0.000181474,0.000358274,1.101322055,0.025838932,9.744196892
1784246353.112278,-0.001887599,-0.113300465,0.002139406,0.000472800,0.000103246,-0.000277857,1.117361546,0.015411531,9.732488632
1784246353.114293,-0.001885548,-0.113296524,0.002131935,0.000161358,0.000354379,-0.001190757,1.098587155,-0.014080349,9.755146027
1784246353.116285,-0.001880838,-0.113296553,0.002131298,0.000439548,0.000511446,-0.001457997,1.106006145,-0.032849371,9.734859467
1784246353.118282,-0.001885361,-0.113295697,0.002134211,0.000385170,0.000426111,-0.000914076,1.108251333,-0.032458767,9.738898277
1784246353.120281,-0.001889322,-0.113295399,0.002138999,-0.000197670,0.000385145,-0.000085336,1.111698985,-0.043351222,9.752281189
1784246353.122280,-0.001887229,-0.113294870,0.002133244,-0.000277432,0.000337458,-0.000112973,1.115450025,-0.031181434,9.735326767
1784246353.124352,-0.001885456,-0.113290861,0.002125959,0.000012783,0.000556264,-0.000997627,1.101007342,0.000254276,9.751207352
1784246353.126309,-0.001886971,-0.113285281,0.002128650,0.000045679,0.001055920,-0.001044766,1.092978597,0.002762917,9.727900505
1784246353.128340,-0.001890653,-0.113282636,0.002132038,-0.000331528,0.001275487,-0.000304321,1.091330290,0.014477414,9.721698761
1784246353.130302,-0.001891936,-0.113285527,0.002129623,-0.000629811,0.000861821,-0.000111132,1.102468252,0.009653754,9.749923706
1784246353.132300,-0.001892171,-0.113282330,0.002130306,-0.000574422,0.000648853,-0.000186092,1.109081149,-0.001088167,9.736411095
1784246353.134298,-0.001889452,-0.113279626,0.002134464,-0.000259591,0.000884186,0.000177103,1.112635016,-0.005874128,9.709930420
1784246353.136308,-0.001887551,-0.113277197,0.002123611,0.000025324,0.001005897,-0.000352781,1.104199052,-0.034138456,9.730364799
1784246353.138304,-0.001886756,-0.113277242,0.002110009,0.000052809,0.000905817,-0.001931553,1.102993369,-0.022880845,9.724607468
1784246353.140301,-0.001889812,-0.113274261,0.002109563,-0.000181669,0.000867115,-0.002341761,1.097334862,-0.006838491,9.747122765
1784246353.142306,-0.001892120,-0.113272406,0.002116425,-0.000444903,0.000957278,-0.001232040,1.103661060,-0.003732377,9.739974022
1784246353.144313,-0.001894555,-0.113273345,0.002117333,-0.000603649,0.000752064,-0.000334818,1.120362282,0.004944173,9.749908447
1784246353.146307,-0.001892201,-0.113273881,0.002116154,-0.000466547,0.000441391,-0.000259355,1.116162658,-0.010056702,9.724703789
1784246353.148312,-0.001884902,-0.113277867,0.002113530,0.000210657,0.000030734,-0.000511372,1.129535317,-0.016195752,9.744851112
1784246353.150311,-0.001885565,-0.113276795,0.002113082,0.000506117,-0.000158740,-0.000622459,1.131592155,-0.032287516,9.735783577
1784246353.152311,-0.001883846,-0.113273062,0.002106231,0.000383915,0.000212396,-0.000953810,1.120443463,-0.025519751,9.749265671
1784246353.154310,-0.001886901,-0.113273576,0.002101833,0.000150281,0.000431876,-0.001448434,1.109447122,-0.008636119,9.726051331
1784246353.156355,-0.001888968,-0.113275155,0.002106295,-0.000188443,0.000228727,-0.001016774,1.117683768,-0.032096568,9.733977318
1784246353.158342,-0.001891706,-0.113278322,0.002111598,-0.000312937,-0.000176556,-0.000053687,1.124188781,-0.048554238,9.768400192
1784246353.160320,-0.001896183,-0.113275886,0.002111788,-0.000598927,-0.000198046,0.000378349,1.105896950,-0.003414907,9.754324913
1784246353.162316,-0.001892780,-0.113274306,0.002111009,-0.000513209,0.000127879,0.000244157,1.113869905,-0.013252714,9.737233162
1784246353.164322,-0.001892072,-0.113274805,0.002107739,-0.000144519,0.000201678,-0.000124802,1.090926170,-0.017890256,9.737630844
1784246353.166320,-0.001892728,-0.113275297,0.002102464,-0.000184189,0.000116430,-0.000665626,1.127676249,-0.022352008,9.731808662
1784246353.168328,-0.001894419,-0.113281295,0.002096743,-0.000396848,-0.000248793,-0.001206006,1.141945839,-0.030939139,9.716524124
1784246353.170333,-0.001894869,-0.113283388,0.002094160,-0.000517213,-0.000624329,-0.001419704,1.123713493,-0.014815289,9.750234604
1784246353.172324,-0.001899130,-0.113276720,0.002095202,-0.000706315,-0.000143720,-0.001101993,1.110236049,-0.016393322,9.744382858
1784246353.174332,-0.001897125,-0.113272429,0.002091881,-0.000676507,0.000637014,-0.000940086,1.092910409,-0.039014507,9.743324280
1784246353.176331,-0.001894223,-0.113271132,0.002090774,-0.000188152,0.000841973,-0.001021994,1.101115942,-0.029589983,9.726355553
1784246353.178380,-0.001892097,-0.113271475,0.002087391,0.000146217,0.000685528,-0.001083400,1.089673519,-0.008624807,9.760105133
1784246353.180341,-0.001892934,-0.113275431,0.002087966,0.000150524,0.000213270,-0.000986096,1.119993806,0.011662979,9.750849724
1784246353.182329,-0.001895096,-0.113275424,0.002091086,-0.000064224,-0.000113294,-0.000446113,1.110486865,0.003418715,9.730164528
1784246353.184331,-0.001890315,-0.113273613,0.002088521,0.000091579,0.000042972,-0.000302774,1.117393255,0.017689494,9.727123260
1784246353.186340,-0.001887330,-0.113272034,0.002089032,0.000532199,0.000262607,-0.000413865,1.119913578,0.004139849,9.737798691
1784246353.188343,-0.001884123,-0.113269635,0.002090843,0.000781105,0.000511500,-0.000187533,1.107097149,-0.015527110,9.754249573
1784246353.190336,-0.001881251,-0.113266453,0.002087870,0.000928007,0.000802621,-0.000256769,1.104930282,-0.010434060,9.735001564
1784246353.192380,-0.001878912,-0.113269635,0.002084264,0.000976975,0.000585557,-0.000670725,1.118143797,-0.031203212,9.733536720
1784246353.194348,-0.001880938,-0.113266386,0.002086121,0.000741369,0.000500137,-0.000611278,1.099604249,-0.043037008,9.729854584
1784246353.196349,-0.001882333,-0.113260038,0.002090169,0.000376575,0.001084643,-0.000023121,1.103725910,-0.037566952,9.709272385
1784246353.198354,-0.001881051,-0.113257475,0.002089741,0.000326847,0.001383232,0.000224462,1.104473948,-0.010488731,9.743518829
1784246353.200349,-0.001876822,-0.113258846,0.002088506,0.000629431,0.001077556,0.000005307,1.109183908,0.006613030,9.724353790
1784246353.202470,-0.001874602,-0.113259397,0.002090791,0.000901519,0.000655220,0.000025142,1.109461188,-0.007308132,9.728300095
1784246353.204419,-0.001870099,-0.113259867,0.002096725,0.001117615,0.000434366,0.000527503,1.105578184,0.006531836,9.742283821
1784246353.206380,-0.001870861,-0.113264374,0.002098912,0.001073198,0.000005555,0.000909706,1.100732803,-0.024202345,9.725493431
1784246353.208367,-0.001872347,-0.113267913,0.002104212,0.000676330,-0.000572887,0.001186076,1.111287713,-0.003839654,9.741326332
1784246353.210363,-0.001871310,-0.113265216,0.002096205,0.000430332,-0.000504446,0.000686185,1.118002772,-0.007290183,9.710374832
1784246353.212388,-0.001875449,-0.113262743,0.002093490,0.000022031,-0.000016926,-0.000199408,1.089239001,-0.008507768,9.744414330
1784246353.214376,-0.001882515,-0.113259465,0.002094370,-0.000801903,0.000285812,-0.000177765,1.085697293,-0.005246555,9.733223915
1784246353.216370,-0.001883674,-0.113258950,0.002098144,-0.001151383,0.000375109,0.000252860,1.100469351,-0.008549753,9.730076790
1784246353.218370,-0.001877431,-0.113260932,0.002104109,-0.000414907,0.000176047,0.000801343,1.086835861,-0.023112295,9.723246574
1784246353.220371,-0.001871920,-0.113259949,0.002110530,0.000591757,0.000061187,0.001328185,1.107158184,-0.012613582,9.722435951
1784246353.222368,-0.001874185,-0.113255396,0.002108042,0.000680140,0.000419547,0.001207971,1.094118714,-0.014686664,9.722411156
1784246353.224375,-0.001882588,-0.113252826,0.002106979,-0.000248492,0.000729750,0.000721952,1.110130787,-0.024923658,9.747017860
1784246353.226374,-0.001884959,-0.113257572,0.002106837,-0.000914125,0.000324644,0.000526860,1.119966865,-0.029383490,9.726375580
1784246353.228377,-0.001885318,-0.113260344,0.002103055,-0.000804341,-0.000209324,0.000131627,1.132948279,-0.033035334,9.712467194
1784246353.230377,-0.001880764,-0.113257743,0.002104021,-0.000248887,-0.000099574,-0.000134711,1.132844687,-0.003962991,9.719826698
1784246353.232378,-0.001881732,-0.113256410,0.002106217,0.000084779,0.000194587,0.000087538,1.113341689,-0.019953666,9.735395432
1784246353.234374,-0.001885929,-0.113254406,0.002109371,-0.000251599,0.000377802,0.000464971,1.120959163,-0.021350769,9.729117393
1784246353.236380,-0.001887261,-0.113251999,0.002110192,-0.000531808,0.000584201,0.000650019,1.076517344,0.013812558,9.715850830
1784246353.238383,-0.001880425,-0.113244861,0.002112734,-0.000172878,0.000945145,0.000678581,1.099012256,-0.016703911,9.745266914
1784246353.240386,-0.001874288,-0.113245942,0.002106634,0.000539309,0.000972449,0.000175289,1.117989779,-0.006581860,9.736831665
1784246353.242383,-0.001872721,-0.113242760,0.002105652,0.000858217,0.000851831,-0.000409076,1.097644091,-0.020101836,9.721483231
1784246353.244392,-0.001869375,-0.113233432,0.002114643,0.001076807,0.001387774,0.000197627,1.106096864,0.010726257,9.718549728
1784246353.246385,-0.001871527,-0.113237418,0.002119617,0.001030870,0.001291780,0.001069811,1.101405025,-0.005422343,9.729650497
1784246353.248385,-0.001871451,-0.113241188,0.002119365,0.000573418,0.000348002,0.001121988,1.100728393,0.013352649,9.736943245
1784246353.250388,-0.001869346,-0.113245197,0.002120011,0.000494062,-0.000340275,0.000835465,1.101882935,-0.001955694,9.745364189
1784246353.252386,-0.001869668,-0.113251306,0.002125184,0.000524805,-0.000934841,0.000987393,1.090553284,-0.010802981,9.749779701
1784246353.254392,-0.001864465,-0.113251083,0.002121806,0.000658127,-0.001205408,0.000810325,1.115697145,-0.011398020,9.725142479
1784246353.256390,-0.001862647,-0.113249242,0.002120846,0.000852538,-0.000860930,0.000251261,1.132267833,-0.013885519,9.730073929
1784246353.258395,-0.001859931,-0.113246791,0.002119135,0.000871398,-0.000231450,-0.000027735,1.101715922,-0.016242752,9.738548279
1784246353.260396,-0.001863565,-0.113246724,0.002116465,0.000504282,0.000105675,-0.000304469,1.073404789,0.016912214,9.726628304
1784246353.262394,-0.001862314,-0.113258906,0.002112147,0.000153023,-0.000744785,-0.000674774,1.103074670,-0.014944737,9.742592812
1784246353.264398,-0.001862248,-0.113261685,0.002113173,0.000219312,-0.001621126,-0.000728833,1.136711478,0.018036492,9.706521034
1784246353.266399,-0.001864937,-0.113257661,0.002111972,0.000025819,-0.001160412,-0.000527802,1.117933869,-0.011480819,9.732765198
1784246353.268408,-0.001870853,-0.113253169,0.002107149,-0.000632375,-0.000241133,-0.000721908,1.093695045,-0.012860448,9.718385696
1784246353.270407,-0.001872877,-0.113249682,0.002107092,-0.001058189,0.000391533,-0.000791225,1.105656385,-0.025984297,9.715175629
1784246353.272406,-0.001875691,-0.113253899,0.002108508,-0.001086704,0.000234978,-0.000447575,1.098877072,-0.029929709,9.715144157
1784246353.274408,-0.001885701,-0.113258451,0.002099357,-0.001617811,-0.000374115,-0.000760404,1.090922832,0.020077722,9.754013062
1784246353.276407,-0.001885083,-0.113258459,0.002099318,-0.001784342,-0.000531447,-0.001112714,1.100795746,0.018747265,9.734287262
1784246353.278410,-0.001875559,-0.113262638,0.002111617,-0.000625390,-0.000685945,-0.000049774,1.087251663,0.010564279,9.712254524
1784246353.280405,-0.001873416,-0.113264792,0.002114420,0.000343457,-0.000944939,0.000904467,1.110447764,-0.000133182,9.725657463
1784246353.282409,-0.001876654,-0.113264970,0.002108314,0.000150988,-0.000846856,0.000444476,1.115091562,-0.021952920,9.761388779
1784246353.284449,-0.001878172,-0.113262057,0.002104029,-0.000291588,-0.000409393,-0.000340360,1.116793036,0.003935631,9.709101677
1784246353.286418,-0.001876245,-0.113262355,0.002106549,-0.000199477,-0.000098495,-0.000369934,1.107945204,-0.020790135,9.736730576
1784246353.288416,-0.001870750,-0.113265350,0.002104459,0.000405108,-0.000310339,-0.000302808,1.087943673,-0.005253047,9.730085373
1784246353.290416,-0.001867096,-0.113265105,0.002103701,0.000936892,-0.000428213,-0.000488233,1.099831343,0.013367332,9.736495018
1784246353.292421,-0.001863757,-0.113265455,0.002112541,0.001216137,-0.000319574,0.000135775,1.127615929,0.011114097,9.751300812
1784246353.294424,-0.001863464,-0.113265701,0.002120076,0.001165411,-0.000205346,0.001185860,1.120785117,0.003924854,9.766490936
1784246353.296424,-0.001860382,-0.113267832,0.002117097,0.001020527,-0.000242093,0.001155716,1.116539359,-0.014681965,9.744400978
1784246353.298431,-0.001861679,-0.113269478,0.002115748,0.000824458,-0.000408228,0.000537126,1.118106246,0.002037514,9.721643448
1784246353.300429,-0.001870526,-0.113271743,0.002109251,-0.000149873,-0.000537403,-0.000059290,1.123698711,-0.017363152,9.730491638
1784246353.302429,-0.001875570,-0.113273494,0.002102392,-0.001148497,-0.000662288,-0.000837389,1.116594791,-0.010192816,9.743083954
1784246353.304432,-0.001874525,-0.113275245,0.002096443,-0.001241951,-0.000651885,-0.001438757,1.135728717,0.012916930,9.735179901
1784246353.306433,-0.001876755,-0.113276258,0.002093126,-0.001093016,-0.000593977,-0.001659600,1.108100533,-0.006595282,9.756548882
1784246353.308436,-0.001876278,-0.113278091,0.002093279,-0.000968022,-0.000608513,-0.001405580,1.103225708,-0.002405002,9.743120193
1784246353.310435,-0.001869583,-0.113279767,0.002098483,-0.000209635,-0.000665396,-0.000714276,1.116354108,0.006044461,9.728392601
1784246353.312438,-0.001869098,-0.113277093,0.002095232,0.000346525,-0.000417448,-0.000443724,1.103137374,-0.009181649,9.751148224
1784246353.314452,-0.001873352,-0.113281466,0.002097751,-0.000046125,-0.000461654,-0.000339409,1.132772923,-0.006555736,9.769574165
1784246353.316441,-0.001874338,-0.113289624,0.002089986,-0.000466020,-0.001228610,-0.000556552,1.123184562,-0.023142738,9.725073814
1784246353.318444,-0.001876080,-0.113292776,0.002083314,-0.000587799,-0.001623338,-0.001363397,1.144887805,-0.009954434,9.721591949
1784246353.320443,-0.001879829,-0.113300703,0.002087813,-0.000768756,-0.001897101,-0.001102810,1.123567700,0.008656140,9.726174355
1784246353.322443,-0.001883123,-0.113303393,0.002100426,-0.000903750,-0.002104581,0.000404757,1.108152866,-0.003751708,9.734599113
1784246353.324448,-0.001882567,-0.113305151,0.002100283,-0.000797911,-0.001841845,0.001162650,1.122523546,-0.004243743,9.714883804
1784246353.326443,-0.001888509,-0.113299765,0.002099518,-0.001002101,-0.001102011,0.000832837,1.117423534,-0.016825162,9.729145050
1784246353.328451,-0.001893189,-0.113296583,0.002096812,-0.001435486,-0.000163114,0.000449933,1.132719636,-0.013865829,9.726488113
1784246353.330465,-0.001895081,-0.113296039,0.002099966,-0.001447926,0.000192168,0.000404316,1.123268962,-0.015587817,9.733641624
1784246353.332477,-0.001893223,-0.113304272,0.002100025,-0.001032400,-0.000382440,0.000511530,1.121556282,-0.009242487,9.726507187
1784246353.334461,-0.001888938,-0.113307618,0.002095518,-0.000405259,-0.001017093,0.000029339,1.101501942,0.002231155,9.724319458
1784246353.336483,-0.001893409,-0.113306507,0.002097843,-0.000357872,-0.000846262,-0.000120484,1.087590456,0.004423429,9.756152153
1784246353.338471,-0.001898352,-0.113308445,0.002101374,-0.000885286,-0.000719517,0.000383252,1.095322251,0.012439867,9.749037743
1784246353.340464,-0.001903750,-0.113307588,0.002100111,-0.001359529,-0.000642774,0.000515316,1.114796519,-0.010601879,9.740837097
1784246353.342463,-0.001907706,-0.113312028,0.002099787,-0.001633406,-0.000711974,0.000340162,1.116390467,0.010384169,9.748147011
1784246353.344473,-0.001909041,-0.113319129,0.002103625,-0.001603935,-0.001252826,0.000535129,1.128225684,-0.015079089,9.716164589
1784246353.346474,-0.001906665,-0.113323167,0.002108854,-0.001112795,-0.001617888,0.001002999,1.126320362,-0.022007620,9.748846054
1784246353.348543,-0.001905942,-0.113323815,0.002111020,-0.000514753,-0.001435558,0.001202303,1.125055194,-0.015677579,9.743057251
1784246353.350480,-0.001909861,-0.113323510,0.002113136,-0.000527559,-0.001008914,0.001185952,1.127108693,0.005388569,9.738262177
1784246353.352474,-0.001909298,-0.113322981,0.002113630,-0.000590670,-0.000678865,0.001065752,1.115437508,0.007120036,9.767851830
1784246353.354476,-0.001909183,-0.113323525,0.002112354,-0.000454855,-0.000402841,0.000725948,1.105447054,-0.004228770,9.743559837
1784246353.356472,-0.001909503,-0.113320053,0.002106872,-0.000461291,-0.000000198,0.000082221,1.110684395,-0.015995627,9.750662804
1784246353.358477,-0.001914606,-0.113314942,0.002105140,-0.000752130,0.000584196,-0.000385561,1.108475089,-0.013266391,9.748884201
1784246353.360480,-0.001916988,-0.113312781,0.002103429,-0.001074105,0.000919452,-0.000456236,1.113522768,-0.043145284,9.720005035
1784246353.362477,-0.001913179,-0.113313571,0.002098936,-0.000733803,0.000763051,-0.000761767,1.111205220,-0.010975238,9.736797333
1784246353.364477,-0.001913499,-0.113317579,0.002094665,-0.000417433,0.000253501,-0.001166956,1.125394583,-0.024652094,9.744343758
1784246353.366491,-0.001913066,-0.113318905,0.002093795,-0.000386874,-0.000153205,-0.001191871,1.108089924,-0.009111347,9.732323647
1784246353.368491,-0.001912191,-0.113318719,0.002100333,-0.000236675,-0.000167305,-0.000486173,1.124577522,-0.018737612,9.733173370
1784246353.370484,-0.001911420,-0.113319539,0.002103521,-0.000073279,-0.000143821,0.000298971,1.129610658,-0.008710783,9.763280869
1784246353.372489,-0.001915704,-0.113316283,0.002102131,-0.000276510,0.000059853,0.000366018,1.103328943,-0.031883974,9.729930878
1784246353.374485,-0.001915125,-0.113315918,0.002097868,-0.000458725,0.000283692,-0.000090224,1.107127070,-0.014885191,9.726905823
1784246353.376490,-0.001919283,-0.113323785,0.002089740,-0.000634727,-0.000305977,-0.000878150,1.110225201,-0.018099317,9.732267380
1784246353.378494,-0.001920927,-0.113329321,0.002083552,-0.000946985,-0.001056882,-0.001562539,1.102618456,-0.015402842,9.744831085
1784246353.380491,-0.001918377,-0.113328293,0.002087758,-0.000627321,-0.001002594,-0.001280661,1.115886092,-0.030475682,9.761333466
1784246353.382495,-0.001914064,-0.113327049,0.002092972,0.000078166,-0.000576588,-0.000350340,1.116251469,-0.002466798,9.728338242
1784246353.384496,-0.001915523,-0.113327026,0.002093715,0.000266376,-0.000333514,0.000127927,1.129762411,-0.000218236,9.702811241
1784246353.386499,-0.001923987,-0.113325939,0.002100398,-0.000446916,-0.000166484,0.000673502,1.128660679,-0.015192947,9.731406212
1784246353.388502,-0.001930760,-0.113327160,0.002096328,-0.001309940,-0.000093329,0.000781302,1.086985230,-0.009775212,9.737678528
1784246353.390500,-0.001933022,-0.113329470,0.002090859,-0.001613665,-0.000272217,-0.000007430,1.125131845,-0.010209848,9.730090141
1784246353.392499,-0.001932911,-0.113329202,0.002092904,-0.001346873,-0.000338015,-0.000219842,1.137623191,-0.017830359,9.708085060
1784246353.394503,-0.001934971,-0.113332562,0.002095185,-0.001099344,-0.000371732,0.000149084,1.154329300,-0.045895550,9.718233109
1784246353.396502,-0.001934913,-0.113330677,0.002093219,-0.000953359,-0.000286269,0.000147624,1.112859964,-0.022638859,9.735827446
1784246353.398505,-0.001930628,-0.113327101,0.002097327,-0.000409576,0.000112815,0.000221340,1.116298676,0.000338618,9.711769104
1784246353.400511,-0.001932106,-0.113322854,0.002101889,-0.000067005,0.000563348,0.000727141,1.112648606,-0.004145878,9.718908310
1784246353.402504,-0.001934604,-0.113321207,0.002098823,-0.000305520,0.000809479,0.000661136,1.105430245,-0.007199161,9.720228195
1784246353.404516,-0.001928507,-0.113321222,0.002094051,-0.000046841,0.000700339,-0.000073837,1.111765027,-0.002809578,9.721607208
1784246353.406514,-0.001920973,-0.113325000,0.002091845,0.000824763,0.000253592,-0.000628269,1.118036389,-0.000945960,9.763319016
1784246353.408514,-0.001921452,-0.113324404,0.002096445,0.001061102,0.000000230,-0.000346431,1.098469973,-0.025542919,9.729070663
1784246353.410514,-0.001926368,-0.113319859,0.002100611,0.000442566,0.000378950,0.000384270,1.122178674,-0.031687021,9.731294632
1784246353.412518,-0.001929658,-0.113322981,0.002099301,-0.000209110,0.000371349,0.000535592,1.130185366,-0.037610818,9.730816841
1784246353.414525,-0.001925813,-0.113328904,0.002103088,-0.000094033,-0.000287967,0.000552863,1.132322669,-0.044962749,9.752739906
1784246353.416520,-0.001913003,-0.113324478,0.002097789,0.001045009,-0.000255237,0.000172840,1.099855185,-0.021198200,9.745686531
1784246353.418775,-0.001910057,-0.113316603,0.002092936,0.001722627,0.000619751,-0.000677160,1.124930263,0.012009542,9.756236076
1784246353.420636,-0.001912206,-0.113315277,0.002096066,0.001272151,0.001047154,-0.000613078,1.117853284,-0.019007124,9.720163345
1784246353.422590,-0.001914562,-0.113313973,0.002105597,0.000720116,0.000940747,0.000441824,1.120104194,-0.016545240,9.747978210
1784246353.424561,-0.001912916,-0.113309748,0.002108705,0.000609270,0.001040303,0.001175654,1.131334066,-0.015376884,9.752479553
1784246353.426597,-0.001905370,-0.113309279,0.002106792,0.001108514,0.001057780,0.000862422,1.118308187,-0.017341858,9.737210274
1784246353.428566,-0.001909000,-0.113307253,0.002101992,0.001020033,0.000952381,0.000145460,1.121856689,-0.021765709,9.722839355
1784246353.430569,-0.001924606,-0.113300197,0.002101459,-0.000595219,0.001322640,-0.000106036,1.126476288,-0.010239811,9.731885910
1784246353.432562,-0.001931278,-0.113298759,0.002097375,-0.001971545,0.001540083,-0.000217649,1.112060070,-0.016590828,9.705826759
1784246353.434561,-0.001928634,-0.113298871,0.002089831,-0.001784151,0.001257438,-0.000913286,1.120085120,-0.019938154,9.721056938
1784246353.436549,-0.001922088,-0.113300502,0.002089397,-0.000728082,0.000842742,-0.001275338,1.085270882,-0.040629122,9.732098579
1784246353.438559,-0.001914378,-0.113299802,0.002095152,0.000563123,0.000493814,-0.000690086,1.131285429,-0.021028679,9.728234291
1784246353.440557,-0.001903414,-0.113299623,0.002091491,0.001776913,0.000364222,-0.000515333,1.121558428,-0.008819962,9.730094910
1784246353.442559,-0.001900923,-0.113294601,0.002091964,0.002177447,0.000618896,-0.000693731,1.134131551,-0.009311254,9.713517189
1784246353.444577,-0.001901031,-0.113295697,0.002091835,0.001745668,0.000846232,-0.000499677,1.091029644,-0.010589331,9.718848228
1784246353.446636,-0.001903862,-0.113291673,0.002089547,0.001051022,0.000944830,-0.000503702,1.108485103,-0.013996973,9.725567818
1784246353.448571,-0.001903830,-0.113290124,0.002084878,0.000510340,0.001090910,-0.000813156,1.112663388,-0.003218160,9.714431763
1784246353.450567,-0.001898058,-0.113287210,0.002077687,0.000659013,0.001121915,-0.001435289,1.091481328,-0.008139430,9.751591682
1784246353.452562,-0.001892659,-0.113289639,0.002075509,0.001161643,0.000851489,-0.001763149,1.100392699,-0.014017496,9.743043900
1784246353.454582,-0.001895171,-0.113294005,0.002076953,0.001032445,0.000133866,-0.001355814,1.107320428,0.002852019,9.752573967
1784246353.456570,-0.001900060,-0.113291033,0.002078437,0.000272508,-0.000023744,-0.000733165,1.104594707,-0.037804209,9.741102219
1784246353.458578,-0.001898126,-0.113282591,0.002076023,0.000054035,0.000687671,-0.000581318,1.090186000,-0.004074628,9.749374390
1784246353.460573,-0.001893660,-0.113283694,0.002075084,0.000507216,0.000930777,-0.000705932,1.119839430,-0.002118884,9.735965729
1784246353.462584,-0.001892988,-0.113286361,0.002076643,0.000720776,0.000423395,-0.000511881,1.093759656,-0.007488100,9.718869209
1784246353.464591,-0.001894826,-0.113283761,0.002079777,0.000461695,0.000236243,-0.000045228,1.106039524,0.007031284,9.734217644
1784246353.466602,-0.001900195,-0.113281608,0.002087626,-0.000086249,0.000424886,0.000765312,1.110721111,-0.014896207,9.721976280
1784246353.468593,-0.001907758,-0.113283008,0.002081519,-0.000938548,0.000336749,0.000776147,1.115168095,-0.017295253,9.736311913
1784246353.470576,-0.001911426,-0.113285586,0.002074279,-0.001560473,-0.000045124,-0.000246685,1.091781735,-0.020259207,9.754204750
1784246353.472578,-0.001904783,-0.113283269,0.002080303,-0.000945432,-0.000051160,-0.000284573,1.083526373,0.000624762,9.730568886
1784246353.474577,-0.001901724,-0.113281146,0.002087123,-0.000008486,0.000203626,0.000592637,1.095908403,-0.013534298,9.746181488
1784246353.476590,-0.001895217,-0.113282554,0.002089363,0.000635789,0.000139207,0.000977496,1.115666866,-0.012853186,9.740824699
1784246353.478584,-0.001886425,-0.113284856,0.002087820,0.001484135,-0.000106035,0.000643598,1.115237236,-0.011481294,9.737694740
1784246353.480583,-0.001883197,-0.113280632,0.002086500,0.001853650,0.000097299,0.000185468,1.120652556,-0.008065170,9.751619339
1784246353.482579,-0.001881917,-0.113278531,0.002087889,0.001654896,0.000500910,0.000105131,1.115475893,-0.030571310,9.712465286
1784246353.484577,-0.001875909,-0.113281228,0.002089298,0.001740068,0.000359480,0.000207011,1.104145288,-0.038614888,9.729887962
1784246353.486582,-0.001867390,-0.113286063,0.002087736,0.002267717,-0.000215001,0.000026618,1.099527597,-0.014561696,9.695067406
1784246353.488590,-0.001858909,-0.113284960,0.002087505,0.002763613,-0.000381942,-0.000229581,1.094141245,0.024701511,9.728042603
1784246353.490582,-0.001862301,-0.113282248,0.002083003,0.002298938,0.000009989,-0.000522981,1.118932247,-0.004617096,9.710843086
1784246353.492583,-0.001865751,-0.113285914,0.002083010,0.001178857,-0.000056713,-0.000631613,1.115340710,-0.006207145,9.688860893
1784246353.494593,-0.001865240,-0.113288231,0.002082106,0.000630439,-0.000397506,-0.000495331,1.096877456,-0.010142977,9.708543777
1784246353.496588,-0.001868050,-0.113289014,0.002083809,0.000287045,-0.000449048,-0.000286556,1.135191560,0.004522703,9.719434738
1784246353.498593,-0.001869850,-0.113289580,0.002076446,-0.000195587,-0.000337551,-0.000549195,1.116672635,-0.004715535,9.728772163
1784246353.500594,-0.001866346,-0.113288254,0.002072465,-0.000164912,-0.000113798,-0.001172368,1.124845862,0.003644546,9.735558510
1784246353.502597,-0.001867626,-0.113291696,0.002074598,0.000015705,-0.000226365,-0.000995813,1.087819815,0.021633554,9.729810715
1784246353.504596,-0.001869000,-0.113294616,0.002072322,-0.000236283,-0.000629214,-0.000707125,1.097654462,0.019190952,9.740563393
1784246353.506602,-0.001871144,-0.113291360,0.002066361,-0.000540232,-0.000468087,-0.001036032,1.126640201,0.001995050,9.712236404
1784246353.508604,-0.001866263,-0.113289207,0.002067561,-0.000287349,0.000075051,-0.001091993,1.117177129,-0.036602225,9.738431931
1784246353.510600,-0.001864663,-0.113290817,0.002068162,0.000199715,0.000140925,-0.000718925,1.113788962,-0.020375578,9.730910301
1784246353.512602,-0.001862301,-0.113294788,0.002064286,0.000387535,-0.000275273,-0.000774933,1.105668187,-0.024268765,9.725945473
1784246353.514623,-0.001867361,-0.113298342,0.002063911,0.000107604,-0.000663861,-0.000834924,1.098577142,-0.015779981,9.742134094
1784246353.516665,-0.001868895,-0.113300711,0.002066020,-0.000313148,-0.000839266,-0.000445128,1.090039492,-0.017389461,9.731803894
1784246353.518619,-0.001864398,-0.113298096,0.002066890,-0.000055736,-0.000649252,-0.000140447,1.075493336,0.041498460,9.730822563
1784246353.520620,-0.001862632,-0.113294981,0.002073427,0.000388340,-0.000137273,0.000354775,1.108614922,-0.002435835,9.737747192
1784246353.522623,-0.001855821,-0.113294758,0.002070892,0.000892075,0.000127310,0.000462497,1.113241911,-0.028036043,9.738035202
1784246353.524617,-0.001853994,-0.113291234,0.002070210,0.001206561,0.000377608,0.000053810,1.106115341,-0.024287233,9.727740288
1784246353.526617,-0.001853035,-0.113288619,0.002072100,0.001075003,0.000723726,0.000099409,1.109449387,-0.009833742,9.705420494
1784246353.528636,-0.001847794,-0.113287486,0.002073354,0.001194296,0.000828891,0.000240461,1.107236266,-0.007133124,9.707676888
1784246353.530622,-0.001850843,-0.113288783,0.002074759,0.001007086,0.000638471,0.000341293,1.136487842,0.000060819,9.714476585
1784246353.532621,-0.001852490,-0.113290578,0.002070968,0.000398610,0.000254624,0.000123803,1.104122043,-0.002829479,9.738186836
1784246353.534620,-0.001850661,-0.113295756,0.002066872,0.000152440,-0.000276684,-0.000432865,1.088222504,-0.020378187,9.714299202
1784246353.536625,-0.001847182,-0.113290496,0.002070405,0.000375031,-0.000184858,-0.000383790,1.103774071,0.002428157,9.692491531
1784246353.538625,-0.001844719,-0.113282979,0.002075734,0.000599457,0.000759451,0.000288762,1.110052347,-0.033647593,9.713786125
1784246353.540626,-0.001852999,-0.113280006,0.002078701,-0.000034425,0.001293643,0.000830740,1.110778689,-0.010387976,9.717970848
1784246353.542628,-0.001852107,-0.113277338,0.002076567,-0.000516964,0.001326135,0.000718095,1.110236406,-0.015580071,9.756045341
1784246353.544632,-0.001846766,-0.113277383,0.002063128,-0.000090312,0.001150840,-0.000573309,1.118451953,-0.003239217,9.770030022
1784246353.546629,-0.001847576,-0.113274947,0.002059459,0.000093966,0.001007057,-0.001604633,1.097653389,0.019991484,9.754018784
1784246353.548635,-0.001854707,-0.113268793,0.002069670,-0.000494755,0.001295687,-0.000658029,1.106512427,0.011269848,9.767422676
1784246353.550633,-0.001858068,-0.113269806,0.002069167,-0.001071365,0.001272115,0.000264699,1.086421251,-0.018379293,9.751521111
1784246353.552635,-0.001856679,-0.113277487,0.002064088,-0.000956333,0.000337966,-0.000168523,1.100168467,0.003160220,9.722082138
1784246353.554635,-0.001857358,-0.113279745,0.002062263,-0.000710923,-0.000469624,-0.000592883,1.120736241,-0.001730118,9.742692947
1784246353.556634,-0.001865649,-0.113280185,0.002060391,-0.001160352,-0.000566964,-0.000611459,1.142920136,-0.021022728,9.769491196
1784246353.558641,-0.001867049,-0.113282390,0.002063328,-0.001487369,-0.000531877,-0.000299467,1.108463168,-0.014575299,9.743944168
1784246353.560666,-0.001864313,-0.113283455,0.002061119,-0.000984474,-0.000549641,-0.000179559,1.114939332,-0.000559141,9.714451790
1784246353.562644,-0.001865294,-0.113282412,0.002065720,-0.000580467,-0.000401661,0.000017060,1.108772397,0.010964839,9.743212700
1784246353.564705,-0.001857770,-0.113279320,0.002074626,0.000022774,0.000004370,0.000884520,1.090662241,-0.002647466,9.736830711
1784246353.566654,-0.001855940,-0.113280155,0.002077935,0.000641918,0.000172891,0.001407721,1.109350920,0.020090019,9.719060898
1784246353.568691,-0.001861286,-0.113278702,0.002072031,0.000153249,0.000149331,0.000883968,1.083858252,-0.009220236,9.728263855
1784246353.570662,-0.001865619,-0.113276489,0.002066347,-0.000687391,0.000338816,-0.000056805,1.097358704,-0.007054337,9.714393616
1784246353.572660,-0.001866595,-0.113278314,0.002063706,-0.000922702,0.000273690,-0.000562163,1.117264986,0.007761213,9.737371445
1784246353.574652,-0.001871249,-0.113277748,0.002061679,-0.001113980,0.000116915,-0.000678226,1.122069716,-0.003469255,9.732820511
1784246353.576651,-0.001877167,-0.113271862,0.002063060,-0.001555757,0.000526063,-0.000453461,1.089146256,-0.017749611,9.721040726
1784246353.578664,-0.001877929,-0.113274284,0.002065492,-0.001573425,0.000585193,-0.000019793,1.095242262,0.004513292,9.729707718
1784246353.580669,-0.001878067,-0.113276653,0.002064817,-0.001212238,0.000067368,0.000113081,1.098451495,0.008660503,9.707768440
1784246353.582664,-0.001875809,-0.113274552,0.002064712,-0.000746063,0.000031150,0.000013531,1.116565347,-0.014071846,9.721538544
1784246353.584696,-0.001873549,-0.113275312,0.002067493,-0.000243097,0.000109672,0.000158475,1.088141680,-0.025474276,9.738027573
1784246353.586708,-0.001868166,-0.113280147,0.002069851,0.000352924,-0.000304467,0.000406219,1.082614064,0.000922057,9.753434181
1784246353.588687,-0.001860574,-0.113281004,0.002076409,0.001147600,-0.000665375,0.000803563,1.073592544,-0.002985061,9.752056122
1784246353.590729,-0.001860025,-0.113279946,0.002074762,0.001369781,-0.000527024,0.000860018,1.112660170,-0.002026900,9.735960007
1784246353.592687,-0.001861628,-0.113282301,0.002072848,0.000899491,-0.000470320,0.000394445,1.116246819,-0.002908401,9.727438927
1784246353.594684,-0.001864600,-0.113282986,0.002080430,0.000392223,-0.000467220,0.000704670,1.107974291,0.018245464,9.728912354
1784246353.596684,-0.001862326,-0.113280103,0.002084882,0.000332975,-0.000110758,0.001330273,1.146305680,-0.002515325,9.744058609
1784246353.598686,-0.001861172,-0.113282457,0.002085923,0.000488841,0.000059656,0.001316489,1.107583523,-0.013613822,9.736329079
1784246353.600685,-0.001863395,-0.113285854,0.002082325,0.000237339,-0.000241145,0.000798050,1.070687294,-0.021247024,9.742072105
1784246353.602683,-0.001863488,-0.113287941,0.002078980,-0.000036555,-0.000547523,0.000130913,1.106172442,-0.018972108,9.736292839
1784246353.604692,-0.001863656,-0.113285102,0.002085887,0.000019471,-0.000399694,0.000333353,1.117421150,0.019935658,9.726242065
1784246353.606692,-0.001868446,-0.113288268,0.002090561,-0.000194995,-0.000364788,0.001057675,1.101852417,-0.005844255,9.725165367
1784246353.608705,-0.001876518,-0.113296546,0.002083524,-0.001062038,-0.001046350,0.000713781,1.129147768,-0.011653165,9.736809731
1784246353.610705,-0.001877877,-0.113300204,0.002077080,-0.001547558,-0.001575676,-0.000312921,1.113534689,-0.005056483,9.719353676
1784246353.612706,-0.001873374,-0.113299459,0.002078298,-0.000955392,-0.001344278,-0.000604627,1.114208817,-0.022230403,9.738969803
1784246353.614707,-0.001874987,-0.113303684,0.002079929,-0.000435107,-0.001197985,-0.000275560,1.115074515,-0.024113238,9.750166893
1784246353.616707,-0.001878447,-0.113310263,0.002082060,-0.000586147,-0.001590450,0.000086902,1.094291925,-0.036725175,9.733925819
1784246353.618721,-0.001880819,-0.113312319,0.002080471,-0.000730646,-0.001766660,0.000134886,1.079082489,-0.033730648,9.718238831
1784246353.620757,-0.001880039,-0.113317601,0.002078547,-0.000581090,-0.001805898,-0.000136137,1.104449034,-0.012712639,9.741263390
1784246353.622724,-0.001883779,-0.113319695,0.002081206,-0.000617317,-0.001816800,-0.000026826,1.107454658,0.011611294,9.717660904
1784246353.624717,-0.001889651,-0.113316514,0.002083645,-0.001217070,-0.001262797,0.000416062,1.120987058,-0.018697975,9.734066963
1784246353.626703,-0.001898120,-0.113312684,0.002079099,-0.002028276,-0.000456427,0.000289055,1.092175841,-0.025557816,9.742512703
1784246353.628754,-0.001902394,-0.113309890,0.002074499,-0.002402233,0.000023770,-0.000309171,1.091841698,-0.017758667,9.717455864
1784246353.630719,-0.001906514,-0.113311678,0.002071227,-0.002371532,-0.000007995,-0.000692462,1.102313876,-0.041718081,9.728523254
1784246353.632721,-0.001908136,-0.113315888,0.002069300,-0.002154779,-0.000412211,-0.000811033,1.124913573,-0.027737560,9.738048553
1784246353.634731,-0.001910658,-0.113316767,0.002065611,-0.001778626,-0.000600704,-0.000950629,1.117730379,0.007075762,9.706880569
1784246353.636735,-0.001911582,-0.113314606,0.002060588,-0.001481323,-0.000304961,-0.001266495,1.100539327,-0.002729434,9.730563164
1784246353.638762,-0.001911625,-0.113318764,0.002057402,-0.001267557,-0.000341696,-0.001461906,1.092633963,-0.026300509,9.720092773
1784246353.640733,-0.001904609,-0.113325194,0.002059405,-0.000522449,-0.000953332,-0.001191391,1.113175869,-0.034231186,9.727236748
1784246353.642733,-0.001898933,-0.113327116,0.002061814,0.000509273,-0.001262173,-0.000667853,1.102570891,-0.020641651,9.725518227
1784246353.644729,-0.001900837,-0.113327488,0.002056711,0.000633384,-0.001081866,-0.000700392,1.092797279,-0.013258760,9.713003159
1784246353.646763,-0.001902752,-0.113328017,0.002062267,0.000235978,-0.000856919,-0.000453572,1.111492872,-0.024003649,9.741196632
1784246353.648736,-0.001900986,-0.113327302,0.002067169,0.000234763,-0.000646142,0.000376818,1.123075485,0.006291718,9.744541168
1784246353.650728,-0.001903412,-0.113322727,0.002061451,0.000112850,-0.000144655,0.000225319,1.118410110,-0.008433508,9.744441986
1784246353.652766,-0.001902754,-0.113325343,0.002053907,-0.000138823,0.000029529,-0.000716754,1.113293052,-0.023985310,9.735370636
1784246353.654728,-0.001905521,-0.113327861,0.002053284,-0.000255546,-0.000296381,-0.001062477,1.113859057,-0.015365331,9.719286919
1784246353.656727,-0.001905796,-0.113328658,0.002053942,-0.000340559,-0.000411240,-0.000754043,1.106489062,-0.030558081,9.726803780
1784246353.658738,-0.001907213,-0.113330118,0.002052063,-0.000365724,-0.000458758,-0.000619351,1.117409468,-0.018963216,9.714784622
1784246353.660731,-0.001901842,-0.113336511,0.002047452,-0.000043688,-0.000872593,-0.000919942,1.115117669,-0.020936172,9.744359016
1784246353.662732,-0.001893593,-0.113342389,0.002038891,0.000785670,-0.001465258,-0.001663098,1.112379551,-0.024911070,9.741191864
1784246353.664734,-0.001892361,-0.113346495,0.002040006,0.001173847,-0.001717233,-0.001788630,1.114468694,0.000488428,9.757049561
1784246353.666769,-0.001894514,-0.113344848,0.002038586,0.000809886,-0.001393274,-0.001318673,1.084227800,-0.013092657,9.768140793
1784246353.668770,-0.001897891,-0.113345832,0.002041837,0.000238131,-0.001047078,-0.000795669,1.096981645,-0.035968680,9.748728752
1784246353.670749,-0.001905080,-0.113349490,0.002048640,-0.000454907,-0.001155533,0.000178595,1.094323039,-0.035263646,9.717347145
1784246353.672747,-0.001906289,-0.113348946,0.002050535,-0.000831014,-0.001055273,0.000781229,1.113064289,-0.042812392,9.737044334
1784246353.674748,-0.001900780,-0.113343582,0.002043979,-0.000282570,-0.000390931,0.000213941,1.140871525,-0.007297595,9.733263016
1784246353.676742,-0.001901130,-0.113345698,0.002045156,0.000169385,-0.000087190,-0.000254399,1.121194839,-0.002873072,9.713545799
1784246353.678740,-0.001906450,-0.113356300,0.002055237,-0.000238608,-0.000891450,0.000625059,1.132613540,0.013564114,9.712764740
1784246353.680746,-0.001907575,-0.113358431,0.002058466,-0.000572332,-0.001477836,0.001410088,1.119051099,0.006048128,9.723015785
1784246353.682746,-0.001910262,-0.113355443,0.002054850,-0.000677037,-0.001018678,0.001030386,1.116563082,-0.012874228,9.742170334
1784246353.684748,-0.001911816,-0.113352455,0.002052026,-0.000911369,-0.000338062,0.000358314,1.098044634,-0.024136048,9.721008301
1784246353.686752,-0.001912968,-0.113353483,0.002050974,-0.000958836,-0.000114554,0.000029862,1.114129424,-0.029747173,9.725024223
1784246353.688751,-0.001909439,-0.113353483,0.002044671,-0.000542492,-0.000116814,-0.000498445,1.124781370,-0.040127847,9.716448784
1784246353.690753,-0.001912962,-0.113351576,0.002041220,-0.000417492,0.000082338,-0.001026889,1.113647342,-0.031625476,9.738012314
1784246353.692755,-0.001910941,-0.113346808,0.002041102,-0.000432830,0.000513896,-0.000977185,1.118733883,-0.018745542,9.744824409
1784246353.694753,-0.001903303,-0.113344520,0.002043784,0.000369175,0.000853520,-0.000614611,1.107739329,-0.000225867,9.743587494
1784246353.696758,-0.001905880,-0.113343745,0.002055160,0.000731597,0.000828355,0.000459981,1.116953254,-0.016584486,9.759182930
1784246353.698765,-0.001911114,-0.113346525,0.002068817,0.000158029,0.000453869,0.002087930,1.116605043,-0.008896627,9.749817848
1784246353.700760,-0.001914209,-0.113344364,0.002068630,-0.000383523,0.000277148,0.002497984,1.095524311,-0.008966271,9.734554291
1784246353.702757,-0.001915828,-0.113343529,0.002064858,-0.000627764,0.000406193,0.001588908,1.132844448,-0.003559546,9.726105690
1784246353.704764,-0.001917897,-0.113347419,0.002070041,-0.000737751,0.000173269,0.001285979,1.126942158,-0.008488687,9.736827850
1784246353.706764,-0.001911142,-0.113346636,0.002068038,-0.000239467,-0.000002983,0.001120336,1.127036929,-0.038441058,9.727221489
1784246353.708770,-0.001907847,-0.113342308,0.002071664,0.000582139,0.000440645,0.000841116,1.115099549,-0.021889329,9.752422333
1784246353.710772,-0.001904477,-0.113334902,0.002071717,0.000968201,0.001215097,0.000802350,1.135486960,-0.006418528,9.745368004
1784246353.712773,-0.001903441,-0.113330118,0.002068541,0.000978516,0.001712858,0.000340066,1.102157354,0.021284239,9.753134727
1784246353.714772,-0.001904590,-0.113333665,0.002066639,0.000490071,0.001343295,-0.000073778,1.097908854,0.003871850,9.752122879
1784246353.716772,-0.001902965,-0.113337681,0.002069104,0.000217296,0.000476879,0.000000633,1.113430738,-0.011147063,9.756972313
1784246353.718780,-0.001897814,-0.113342203,0.002069791,0.000614549,-0.000197385,0.000163859,1.129381418,-0.029567819,9.735350609
1784246353.720775,-0.001898864,-0.113347195,0.002069800,0.000704639,-0.000757542,0.000137652,1.124436140,-0.029984336,9.739825249
1784246353.722776,-0.001902899,-0.113352686,0.002065445,0.000136974,-0.001265117,-0.000153777,1.142874956,-0.027862599,9.723269463
1784246353.724776,-0.001899540,-0.113356650,0.002058796,-0.000002057,-0.001436861,-0.000851940,1.132052660,-0.033011120,9.710672379
1784246353.726809,-0.001897966,-0.113356359,0.002050570,0.000245194,-0.001167869,-0.001664676,1.112952352,-0.014616893,9.741706848
1784246353.728791,-0.001892888,-0.113359734,0.002042750,0.000515342,-0.001026326,-0.002347164,1.074283600,-0.021645591,9.728624344
1784246353.730787,-0.001891781,-0.113358930,0.002040899,0.000729570,-0.000890060,-0.002410894,1.096360445,-0.013918055,9.736315727
1784246353.732790,-0.001897263,-0.113357268,0.002040433,0.000218622,-0.000481155,-0.001878997,1.114752054,-0.013385040,9.754270554
1784246353.734787,-0.001897626,-0.113358051,0.002040705,-0.000299598,-0.000272690,-0.001329780,1.104241848,-0.030557947,9.730835915
1784246353.736791,-0.001894665,-0.113356523,0.002046033,-0.000063200,-0.000129437,-0.000603821,1.103737831,-0.033014581,9.762203217
1784246353.738799,-0.001895016,-0.113354206,0.002046242,0.000219287,0.000135836,-0.000091947,1.105661750,-0.025939783,9.708899498
1784246353.740793,-0.001897721,-0.113355994,0.002042329,-0.000028053,0.000103523,-0.000298687,1.114585161,0.007894281,9.723469734
1784246353.742799,-0.001893147,-0.113359712,0.002037908,0.000041605,-0.000298591,-0.000793992,1.098138094,0.021892048,9.737892151
1784246353.744828,-0.001886660,-0.113360442,0.002039969,0.000652765,-0.000527676,-0.000810586,1.095056057,0.026450058,9.732538223
1784246353.746806,-0.001886272,-0.113360167,0.002039638,0.000847064,-0.000423750,-0.000514683,1.090386510,0.012503115,9.749032974
1784246353.748805,-0.001883868,-0.113359623,0.002029238,0.000647641,-0.000285386,-0.001111645,1.111654878,0.026211901,9.736139297
1784246353.750809,-0.001882716,-0.113361463,0.002024431,0.000519621,-0.000326887,-0.001854172,1.108558178,-0.008557846,9.716635704
1784246353.752808,-0.001880618,-0.113363564,0.002018395,0.000514503,-0.000503835,-0.002106944,1.123885036,-0.038893286,9.733492851
1784246353.754806,-0.001884670,-0.113362871,0.002017878,0.000223452,-0.000379646,-0.001965199,1.117689610,-0.032052048,9.727702141
1784246353.756807,-0.001884187,-0.113358110,0.002019457,-0.000039004,0.000176138,-0.001335925,1.118186116,0.011177598,9.759362221
1784246353.758816,-0.001881990,-0.113356188,0.002019788,0.000113458,0.000595203,-0.000858828,1.114986062,0.008320229,9.788931847
1784246353.760808,-0.001887822,-0.113355041,0.002017673,-0.000229709,0.000654614,-0.000711930,1.120458722,0.013001109,9.750858307
1784246353.762811,-0.001890261,-0.113357395,0.002018340,-0.000736257,0.000394342,-0.000552859,1.104193807,0.001790031,9.718490601
1784246353.764821,-0.001891611,-0.113361150,0.002019088,-0.000801823,-0.000123516,-0.000275858,1.108805418,0.010415497,9.694340706
1784246353.766819,-0.001896066,-0.113360815,0.002016592,-0.001009875,-0.000317833,-0.000271872,1.120934606,-0.023164870,9.732245445
1784246353.768854,-0.001895531,-0.113359258,0.002014422,-0.001030073,-0.000063497,-0.000483175,1.112753987,-0.031175558,9.739359856
1784246353.770841,-0.001889631,-0.113354288,0.002015557,-0.000318496,0.000436942,-0.000471730,1.120807171,-0.033896856,9.729485512
1784246353.772834,-0.001884203,-0.113354623,0.002017946,0.000559062,0.000633980,-0.000192979,1.117121339,-0.003101138,9.752993584
1784246353.774832,-0.001878540,-0.113360025,0.002020363,0.001208612,0.000074888,0.000096449,1.124904156,0.010182720,9.761155128
1784246353.776838,-0.001871966,-0.113362767,0.002024209,0.001770228,-0.000495904,0.000396783,1.112823725,0.013041613,9.758921623
1784246353.778877,-0.001869097,-0.113359176,0.002020852,0.001861428,-0.000294106,0.000257473,1.127053022,0.038486205,9.746543884
1784246353.780844,-0.001874488,-0.113349825,0.002018031,0.001069700,0.000674333,-0.000201836,1.089436173,0.008044542,9.747658730
1784246353.782837,-0.001875084,-0.113347724,0.002024022,0.000399805,0.001268854,0.000112661,1.097575545,-0.024695903,9.737592697
1784246353.784878,-0.001874949,-0.113346867,0.002022606,0.000302975,0.001103434,0.000393211,1.112933278,-0.018819876,9.702675819
1784246353.786853,-0.001875345,-0.113346361,0.002026737,0.000231570,0.000875716,0.000470627,1.108202696,-0.001330667,9.709059715
1784246353.788848,-0.001874223,-0.113347813,0.002029096,0.000231623,0.000563721,0.000779018,1.097614288,0.014819447,9.725293159
1784246353.790842,-0.001878167,-0.113344789,0.002017840,-0.000125739,0.000508481,-0.000006833,1.103883386,0.014233763,9.733365059
1784246353.792847,-0.001880065,-0.113343731,0.002023406,-0.000529323,0.000648337,-0.000343868,1.093333125,-0.004877258,9.730542183
1784246353.794847,-0.001878042,-0.113344900,0.002027179,-0.000358925,0.000433250,0.000384376,1.091872931,-0.014270367,9.730929375
1784246353.796839,-0.001874712,-0.113341503,0.002027205,0.000075309,0.000437756,0.000501092,1.116792798,0.005959224,9.739600182
1784246353.798851,-0.001874166,-0.113336191,0.002023090,0.000235648,0.000949908,0.000065204,1.112178326,-0.005525350,9.724727631
1784246353.800841,-0.001870758,-0.113340192,0.002021745,0.000347213,0.000819637,-0.000345408,1.098305106,-0.000600790,9.750302315
1784246353.802846,-0.001869729,-0.113342986,0.002022195,0.000618195,-0.000053267,-0.000323635,1.100394845,-0.014811661,9.728692055
1784246353.804847,-0.001870790,-0.113340117,0.002050900,0.000279033,-0.000133586,0.000001846,1.120512724,0.015722923,9.725022316
1784246353.806848,-0.001874109,-0.113335826,0.002048297,-0.000357526,0.000478992,0.000044003,1.112888217,0.015577132,9.717242241
1784246353.808855,-0.001869214,-0.113336936,0.002042487,-0.000281425,0.000551207,-0.000540274,1.124229789,-0.009423248,9.747131348
1784246353.810854,-0.001868963,-0.113338776,0.002043207,0.000040242,0.000185746,-0.000769250,1.118062496,0.001690931,9.770508766
1784246353.812848,-0.001868645,-0.113340102,0.002043401,0.000074659,-0.000080989,-0.000503134,1.083420396,-0.006291791,9.758320808
1784246353.814854,-0.001868907,-0.113341168,0.002039448,-0.000008006,-0.000272259,-0.000616306,1.087643981,0.006466469,9.720746994
1784246353.816856,-0.001873170,-0.113342695,0.002037507,-0.000393589,-0.000425425,-0.000807655,1.118984103,0.003086904,9.761553764
1784246353.818887,-0.001873867,-0.113344707,0.002039100,-0.000675199,-0.000521322,-0.000567877,1.150092840,0.012370841,9.723086357
1784246353.820864,-0.001873844,-0.113350816,0.002041375,-0.000558843,-0.000902184,-0.000141698,1.132497072,0.005351369,9.733783722
1784246353.822870,-0.001875208,-0.113357663,0.002037061,-0.000513180,-0.001536766,-0.000230423,1.094695449,-0.002333918,9.748492241
1784246353.824872,-0.001877106,-0.113356330,0.002036114,-0.000690931,-0.001491582,-0.000491135,1.085809708,0.004557712,9.740459442
1784246353.826873,-0.001875452,-0.113360070,0.002040732,-0.000548281,-0.001249151,-0.000101804,1.112069130,-0.011657270,9.768177032
1784246353.828891,-0.001870681,-0.113364972,0.002036313,0.000021911,-0.001489781,-0.000108593,1.086962819,-0.011573418,9.738563538
1784246353.830883,-0.001866895,-0.113361560,0.002034793,0.000533993,-0.001177486,-0.000543912,1.117304802,-0.025463609,9.747022629
1784246353.832881,-0.001870916,-0.113356203,0.002033721,0.000353293,-0.000261813,-0.000569255,1.093040824,0.009332887,9.749015808
1784246353.834878,-0.001880033,-0.113355748,0.002032470,-0.000703228,0.000180454,-0.000464075,1.103057861,-0.016698418,9.737200737
1784246353.836879,-0.001878633,-0.113350965,0.002028541,-0.001129211,0.000464376,-0.000621794,1.116556764,-0.013735170,9.737233162
1784246353.838878,-0.001880889,-0.113352224,0.002022000,-0.000969254,0.000596688,-0.001151550,1.122658730,0.007765355,9.727064133
1784246353.840883,-0.001892297,-0.113355562,0.002021365,-0.001691200,0.000142149,-0.001216941,1.099542856,-0.010793957,9.732303619
1784246353.842878,-0.001889777,-0.113356389,0.002023423,-0.001820493,-0.000178576,-0.000722335,1.078314543,0.013808629,9.713164330
1784246353.844883,-0.001887715,-0.113351852,0.002021274,-0.001113644,0.000048339,-0.000556751,1.092691898,0.016204314,9.728435516
1784246353.846884,-0.001889384,-0.113347568,0.002018326,-0.000919698,0.000560972,-0.000741581,1.096964598,-0.001755724,9.726083755
1784246353.848885,-0.001890246,-0.113346398,0.002019503,-0.000834772,0.000789595,-0.000642450,1.119660378,-0.016501339,9.742598534
1784246353.850886,-0.001892023,-0.113348983,0.002012220,-0.000813437,0.000490373,-0.000861722,1.119406343,-0.000368983,9.742700577
1784246353.852900,-0.001889989,-0.113348968,0.002006998,-0.000671229,0.000183799,-0.001473048,1.111777186,0.000529287,9.756150246
1784246353.854892,-0.001892120,-0.113349415,0.002005483,-0.000602796,0.000138398,-0.001520317,1.092770815,-0.012251915,9.760532379
1784246353.856891,-0.001899129,-0.113347501,0.002006724,-0.001113253,0.000234261,-0.001049473,1.119884729,0.002290768,9.745858192
1784246353.858895,-0.001899078,-0.113346994,0.002002023,-0.001339527,0.000339963,-0.000940710,1.110243201,-0.015526018,9.748423576
1784246353.860897,-0.001902133,-0.113350108,0.001996464,-0.001289944,0.000075658,-0.001350438,1.084686160,-0.013022096,9.757382393
1784246353.862893,-0.001898168,-0.113350935,0.001997618,-0.000912160,-0.000212779,-0.001287875,1.091730356,-0.024716560,9.751036644
1784246353.864904,-0.001894923,-0.113348760,0.001997670,-0.000146274,-0.000124198,-0.000914923,1.110703468,-0.014629481,9.747532845
1784246353.866898,-0.001900568,-0.113349199,0.001991560,-0.000292234,-0.000031533,-0.001059384,1.130642176,0.000847063,9.740477562
1784246353.868912,-0.001905902,-0.113347977,0.001990978,-0.001085665,0.000043159,-0.001129570,1.104182601,0.002511075,9.743153572
1784246353.870904,-0.001908865,-0.113344505,0.001992159,-0.001426845,0.000362128,-0.000709503,1.097593546,0.013440590,9.730216026
1784246353.872903,-0.001912478,-0.113347337,0.001986805,-0.001514971,0.000306880,-0.000747821,1.110805869,-0.007338104,9.730094910
1784246353.874906,-0.001913699,-0.113352530,0.001986293,-0.001458548,-0.000309868,-0.000905118,1.104038000,-0.007951017,9.765503883
1784246353.876901,-0.001913241,-0.113355182,0.001985158,-0.001110510,-0.000746022,-0.000766420,1.114406228,-0.006488171,9.730103493
1784246353.878908,-0.001911467,-0.113354594,0.001977677,-0.000778799,-0.000629630,-0.001150237,1.086362958,-0.025324099,9.720092773
1784246353.880905,-0.001914549,-0.113351889,0.001977502,-0.000768500,-0.000182915,-0.001337935,1.080847979,-0.033985764,9.750966072
1784246353.882906,-0.001918582,-0.113350771,0.001976137,-0.001051547,0.000124880,-0.001023936,1.098748446,-0.002674639,9.726078033
1784246353.884936,-0.001919406,-0.113348201,0.001970033,-0.001167128,0.000278677,-0.001210632,1.102823853,0.000402983,9.726999283
1784246353.886910,-0.001915638,-0.113346159,0.001975464,-0.000672965,0.000454042,-0.000948225,1.107562065,-0.014999044,9.742148399
1784246353.888920,-0.001917127,-0.113345213,0.001981923,-0.000225006,0.000539645,0.000091275,1.134810925,-0.024417078,9.757356644
1784246353.890921,-0.001917158,-0.113342002,0.001978622,-0.000221975,0.000680919,0.000288860,1.118658066,-0.026233694,9.726842880
1784246353.892915,-0.001912311,-0.113344431,0.001976656,0.000122682,0.000549917,-0.000181723,1.108379245,-0.023343742,9.716988564
1784246353.894919,-0.001907880,-0.113343097,0.001977855,0.000697173,0.000323342,-0.000253977,1.111888766,-0.026859334,9.764043808
1784246353.896921,-0.001908419,-0.113345727,0.001976070,0.000753772,0.000143856,-0.000253113,1.087726235,-0.021964328,9.749258041
1784246353.898923,-0.001906962,-0.113346666,0.001966812,0.000559089,-0.000214138,-0.000940093,1.114782810,-0.012736759,9.726028442
1784246353.900918,-0.001907748,-0.113348745,0.001962591,0.000381885,-0.000437556,-0.001602865,1.116149783,-0.010158455,9.739048958
1784246353.902929,-0.001908449,-0.113351703,0.001969084,0.000195366,-0.000660333,-0.001003005,1.121073723,-0.049930636,9.715484619
1784246353.904923,-0.001910395,-0.113351591,0.001974542,0.000150076,-0.000665593,0.000084871,1.120782256,-0.037740905,9.703009605
1784246353.906926,-0.001913683,-0.113354228,0.001975652,-0.000098849,-0.000646994,0.000534175,1.139078975,-0.006445446,9.742681503
1784246353.908931,-0.001914827,-0.113363117,0.001969450,-0.000428804,-0.001167059,0.000082051,1.129164934,-0.009086223,9.753863335
1784246353.910936,-0.001911934,-0.113369495,0.001967772,-0.000273592,-0.001800737,-0.000482781,1.128368855,-0.000576183,9.755709648
1784246353.912935,-0.001918900,-0.113367073,0.001973304,-0.000444381,-0.001580426,-0.000060524,1.104297996,-0.026062438,9.728624344
1784246353.914934,-0.001922785,-0.113361262,0.001973351,-0.000994516,-0.000624372,0.000413309,1.088966608,-0.032135241,9.728122711
1784246353.916935,-0.001927338,-0.113361761,0.001978609,-0.001234627,-0.000127399,0.000721530,1.076865077,-0.031065010,9.725426674
1784246353.918936,-0.001928104,-0.113365389,0.001970644,-0.001270973,-0.000447392,0.000382881,1.118092537,0.001119330,9.724776268
1784246353.920937,-0.001928392,-0.113369338,0.001968880,-0.001063737,-0.000913913,-0.000370201,1.111723304,-0.007190614,9.707679749
1784246353.922983,-0.001931677,-0.113372751,0.001967576,-0.001039478,-0.001165285,-0.000449175,1.140523314,-0.036386449,9.729039192
1784246353.924961,-0.001939637,-0.113371536,0.001970667,-0.001451943,-0.000914113,-0.000125882,1.106817722,-0.037995119,9.763968468
1784246353.926958,-0.001943697,-0.113368839,0.001971985,-0.001784529,-0.000317916,0.000292402,1.078285694,-0.024010273,9.738923073
1784246353.928982,-0.001943500,-0.113368317,0.001964931,-0.001611549,-0.000099522,-0.000143549,1.078087687,-0.002572340,9.748924255
1784246353.930959,-0.001945045,-0.113370702,0.001964905,-0.001326264,-0.000283462,-0.000571104,1.090560198,-0.011152369,9.735879898
1784246353.932949,-0.001950779,-0.113369316,0.001968967,-0.001426136,-0.000275019,-0.000087989,1.113998532,-0.040101152,9.732130051
1784246353.934953,-0.001953166,-0.113371618,0.001968411,-0.001499001,-0.000286644,0.000227752,1.120854497,-0.029471301,9.737135887
1784246353.936955,-0.001951681,-0.113375090,0.001972208,-0.001067275,-0.000623884,0.000384498,1.116999865,-0.014595507,9.731399536
1784246353.938957,-0.001948275,-0.113371231,0.001982143,-0.000351561,-0.000410002,0.001169800,1.094456196,-0.024080519,9.719660759
1784246353.940956,-0.001942629,-0.113368340,0.001978425,0.000392763,0.000178707,0.001203097,1.136286259,-0.016526459,9.716161728
1784246353.942959,-0.001946373,-0.113367751,0.001976823,0.000373544,0.000366067,0.000503043,1.107368112,0.003633840,9.705504417
1784246353.944967,-0.001951253,-0.113365047,0.001973141,-0.000400201,0.000492196,0.000082055,1.121875525,-0.020806199,9.713879585
1784246353.947024,-0.001951128,-0.113367178,0.001974916,-0.000677023,0.000399778,-0.000026632,1.113817811,0.018656839,9.723539352
1784246353.948973,-0.001945566,-0.113369025,0.001978440,-0.000195983,0.000016559,0.000308708,1.097057223,0.005865968,9.725234985
1784246353.950967,-0.001946634,-0.113371655,0.001976594,0.000046149,-0.000296004,0.000317967,1.113930702,-0.008315603,9.735920906
1784246353.952966,-0.001950228,-0.113366053,0.001978785,-0.000278137,-0.000014106,0.000290653,1.109615445,-0.030712789,9.742946625
1784246353.954968,-0.001951807,-0.113361530,0.001984213,-0.000455657,0.000709609,0.000761135,1.107353806,-0.031637203,9.751008034
1784246353.956973,-0.001953913,-0.113359109,0.001982542,-0.000514349,0.001021736,0.000832012,1.117795229,-0.023111904,9.730447769
1784246353.958968,-0.001951327,-0.113359794,0.001978994,-0.000378691,0.000891084,0.000250122,1.097172618,-0.021087391,9.734926224
1784246353.960969,-0.001943602,-0.113364384,0.001979757,0.000401863,0.000320021,-0.000085089,1.092860222,-0.044272393,9.726703644
1784246353.962972,-0.001940571,-0.113369994,0.001981580,0.001038038,-0.000458917,0.000029835,1.072804093,-0.034028172,9.708367348
1784246353.964978,-0.001944899,-0.113365129,0.001977943,0.000747937,-0.000530933,-0.000101502,1.091705680,0.010246062,9.749019623
1784246353.966981,-0.001948482,-0.113364547,0.001979572,0.000089015,-0.000164809,-0.000159456,1.119453430,0.002839871,9.732410431
1784246353.968984,-0.001946665,-0.113365076,0.001976902,-0.000121459,-0.000045214,-0.000165962,1.137194037,-0.013618447,9.746667862
1784246353.970978,-0.001937220,-0.113371782,0.001976514,0.000588322,-0.000451936,-0.000406756,1.114724994,0.018318210,9.706501961
1784246353.972985,-0.001930554,-0.113373995,0.001981987,0.001554208,-0.000936160,-0.000077054,1.096758246,-0.018377978,9.732700348
1784246353.974996,-0.001932974,-0.113368593,0.001980831,0.001452572,-0.000506484,0.000202313,1.084453583,0.003278771,9.733724594
1784246353.976988,-0.001940465,-0.113369308,0.001979057,0.000367975,-0.000090253,0.000025710,1.103539228,0.023576749,9.743288040
1784246353.978992,-0.001937318,-0.113367237,0.001976195,-0.000170828,0.000013151,-0.000248071,1.130135179,-0.004875294,9.726991653
1784246353.981001,-0.001933678,-0.113364346,0.001973584,0.000180989,0.000333329,-0.000589386,1.118646026,-0.027139155,9.728182793
1784246353.982991,-0.001932072,-0.113364406,0.001983572,0.000542311,0.000434135,0.000027886,1.127987742,-0.032762613,9.746088982
1784246353.984993,-0.001931089,-0.113365941,0.001985537,0.000711623,0.000254603,0.000800936,1.106734753,-0.008760603,9.748464584
1784246353.987000,-0.001931618,-0.113366134,0.001974664,0.000530764,0.000117618,-0.000026412,1.114176869,0.011054833,9.720802307
1784246353.988999,-0.001932908,-0.113365091,0.001968637,0.000040200,0.000168788,-0.001134307,1.116800904,0.005619369,9.724355698
1784246353.990995,-0.001938804,-0.113362655,0.001971883,-0.000570720,0.000382704,-0.000947966,1.124731541,-0.007795762,9.706344604
1784246353.992995,-0.001946507,-0.113366023,0.001971676,-0.001309588,0.000215064,-0.000381243,1.111027241,-0.026564840,9.724143982
1784246353.994997,-0.001951386,-0.113368817,0.001963528,-0.001849684,-0.000244265,-0.000746502,1.119690537,-0.013426021,9.751135826
1784246353.997002,-0.001949440,-0.113371469,0.001958817,-0.001626943,-0.000529203,-0.001390421,1.104752779,0.009949336,9.704196930
1784246353.999004,-0.001944221,-0.113373421,0.001961051,-0.000796679,-0.000693857,-0.001226395,1.102890253,-0.030585214,9.737111092
1784246354.001003,-0.001943366,-0.113367371,0.001968845,-0.000169368,-0.000225276,-0.000255155,1.086289048,0.007630458,9.748549461
1784246354.003011,-0.001938639,-0.113362394,0.001970922,0.000328892,0.000583725,0.000437003,1.106761694,-0.006927427,9.742646217
1784246354.005009,-0.001937295,-0.113357447,0.001966634,0.000583788,0.001035227,0.000127961,1.124206662,-0.012444505,9.730971336
1784246354.007009,-0.001945018,-0.113357879,0.001964566,-0.000101990,0.000996661,-0.000281122,1.107035398,0.015902691,9.745036125
1784246354.009012,-0.001944505,-0.113354258,0.001967345,-0.000639098,0.000947984,-0.000091911,1.121114969,-0.006746106,9.754317284
1784246354.011011,-0.001940736,-0.113349520,0.001966098,-0.000248978,0.001264302,0.000013025,1.113134861,-0.035365578,9.760851860
1784246354.013018,-0.001940180,-0.113349766,0.001962043,0.000069583,0.001227257,-0.000381312,1.089103699,-0.019706795,9.744340897
1784246354.015010,-0.001943297,-0.113355219,0.001959460,-0.000140548,0.000431294,-0.000709674,1.105739713,-0.017219037,9.742580414
1784246354.017013,-0.001947064,-0.113358893,0.001959973,-0.000550096,-0.000381884,-0.000607605,1.101917028,0.000744792,9.743589401
1784246354.019021,-0.001949054,-0.113357000,0.001956092,-0.000860266,-0.000415619,-0.000620414,1.111617446,-0.014103989,9.734984398
1784246354.021023,-0.001948144,-0.113355152,0.001956105,-0.000774605,-0.000065129,-0.000699368,1.132004619,-0.035009641,9.739800453
1784246354.023021,-0.001949844,-0.113354623,0.001957683,-0.000605375,0.000114836,-0.000396098,1.144276738,-0.059357345,9.739209175
1784246354.025022,-0.001951214,-0.113359660,0.001955484,-0.000521609,-0.000094735,-0.000321545,1.133777022,0.000759124,9.747205734
1784246354.027023,-0.001939358,-0.113354214,0.001956245,0.000447475,0.000085785,-0.000426401,1.117303967,0.010906479,9.736045837
1784246354.029033,-0.001930165,-0.113354370,0.001964497,0.001696599,0.000423440,0.000149089,1.088109255,0.009427926,9.744527817
1784246354.031029,-0.001927646,-0.113354161,0.001968970,0.002005275,0.000313926,0.000890324,1.073998570,-0.008594917,9.721085548
1784246354.033033,-0.001925796,-0.113353662,0.001972297,0.001815402,0.000276387,0.001141053,1.123075247,-0.030894808,9.744302750
1784246354.035035,-0.001927759,-0.113355629,0.001976594,0.001422563,0.000125680,0.001340667,1.129173040,-0.009832700,9.732786179
1784246354.037034,-0.001936110,-0.113359272,0.001981931,0.000463809,-0.000266172,0.001700066,1.102226377,-0.012518545,9.717948914
1784246354.039036,-0.001936934,-0.113360047,0.001984414,-0.000215861,-0.000515061,0.001835754,1.110397220,-0.004584173,9.721594810
1784246354.041037,-0.001936721,-0.113361873,0.001980846,-0.000201801,-0.000571775,0.001268188,1.127755523,-0.015648492,9.734092712
1784246354.043039,-0.001936725,-0.113360256,0.001974863,-0.000206298,-0.000429398,0.000278065,1.116124034,-0.011172019,9.755631447
1784246354.045061,-0.001936347,-0.113359936,0.001966171,-0.000278922,-0.000124836,-0.000785206,1.118538499,0.001901396,9.740024567
1784246354.047051,-0.001938098,-0.113362551,0.001965584,-0.000408176,-0.000192454,-0.001182433,1.083727360,-0.019574214,9.735370636
1784246354.049046,-0.001939336,-0.113363788,0.001968293,-0.000470579,-0.000480805,-0.000696863,1.100608706,0.001871001,9.713556290
1784246354.051052,-0.001933888,-0.113365971,0.001970414,-0.000009732,-0.000661100,-0.000215797,1.111275077,-0.006371613,9.719341278
1784246354.053046,-0.001927249,-0.113366060,0.001974023,0.000852045,-0.000636122,0.000136361,1.082916975,-0.013202226,9.722857475
1784246354.055048,-0.001929097,-0.113364182,0.001978776,0.000993474,-0.000398130,0.000628030,1.104864955,-0.017029474,9.717473984
1784246354.057053,-0.001932847,-0.113361217,0.001977454,0.000358003,-0.000017252,0.000733463,1.111666203,-0.008452196,9.759230614
1784246354.059060,-0.001931552,-0.113363326,0.001978234,0.000056334,0.000062255,0.000520594,1.095848083,-0.017658159,9.759156227
1784246354.061053,-0.001930344,-0.113367863,0.001981993,0.000210040,-0.000389712,0.000670154,1.100430727,-0.012501910,9.718844414
1784246354.063052,-0.001923392,-0.113365531,0.001980832,0.000723313,-0.000434197,0.000600814,1.099820852,0.012067962,9.730208397
1784246354.065063,-0.001919418,-0.113360107,0.001984111,0.001249204,0.000198059,0.000500089,1.097809434,0.030949226,9.724948883
1784246354.067061,-0.001923041,-0.113353677,0.001982020,0.000912018,0.000936295,0.000445166,1.085784674,0.000307040,9.708151817
1784246354.069071,-0.001921152,-0.113345727,0.001985828,0.000504707,0.001583499,0.000459664,1.100659728,-0.029238021,9.740704536
1784246354.071066,-0.001914971,-0.113348983,0.001986153,0.000887765,0.001399126,0.000557910,1.105096817,-0.032930080,9.747859001
1784246354.073065,-0.001913943,-0.113352425,0.001986953,0.001141615,0.000564333,0.000426969,1.096574783,0.004794563,9.750782967
1784246354.075061,-0.001914301,-0.113349870,0.001988074,0.000841844,0.000302743,0.000441051,1.083021641,-0.005081696,9.714839935
1784246354.077072,-0.001921563,-0.113347940,0.001986876,0.000048997,0.000478798,0.000380232,1.098289132,-0.001538047,9.756123543
1784246354.079092,-0.001922214,-0.113343313,0.001986368,-0.000562531,0.000788074,0.000228570,1.127224445,0.015218273,9.741911888
1784246354.081084,-0.001918514,-0.113337502,0.001983512,-0.000281448,0.001276750,-0.000077862,1.093850851,0.000120878,9.719815254
1784246354.083105,-0.001916896,-0.113336660,0.001975035,0.000066569,0.001382643,-0.000861867,1.095372558,-0.022322431,9.722811699
1784246354.085097,-0.001918423,-0.113338962,0.001973161,-0.000011441,0.000922719,-0.001328214,1.094281554,-0.037211295,9.739302635
1784246354.087097,-0.001919087,-0.113335766,0.001972999,-0.000158302,0.000747092,-0.001089540,1.111691713,-0.007035180,9.748928070
1784246354.089082,-0.001918950,-0.113329515,0.001974239,-0.000169521,0.001156875,-0.000713951,1.077045560,0.021323569,9.729798317
1784246354.091086,-0.001915649,-0.113330856,0.001971832,0.000072537,0.001147820,-0.000622172,1.096990108,0.000471366,9.727890015
1784246354.093090,-0.001920304,-0.113335826,0.001970629,-0.000066164,0.000407428,-0.000686264,1.116165519,-0.008817749,9.739506721
1784246354.095091,-0.001922520,-0.113334887,0.001968949,-0.000527255,0.000033382,-0.000642346,1.111764193,-0.002815932,9.722503662
1784246354.097087,-0.001919801,-0.113337308,0.001969147,-0.000355071,-0.000064815,-0.000572470,1.113197923,0.005153807,9.733315468
1784246354.099088,-0.001920829,-0.113340318,0.001967968,-0.000232648,-0.000406527,-0.000486973,1.109602451,0.004748655,9.733757973
1784246354.101090,-0.001924158,-0.113337070,0.001965358,-0.000572926,-0.000271961,-0.000567649,1.112750173,-0.031610798,9.737563133
1784246354.103096,-0.001925546,-0.113334119,0.001962168,-0.000780020,0.000222496,-0.000768562,1.108075619,-0.008819184,9.754293442
1784246354.105096,-0.001922738,-0.113327980,0.001961601,-0.000512940,0.000793634,-0.000822827,1.091362476,0.018785320,9.745936394
1784246354.107100,-0.001917273,-0.113320626,0.001962171,0.000172604,0.001509176,-0.000661339,1.110542774,0.008317672,9.734230042
1784246354.109109,-0.001916745,-0.113317840,0.001965506,0.000488579,0.001850656,-0.000256162,1.110241055,-0.014731847,9.762775421
1784246354.111111,-0.001920673,-0.113316223,0.001967904,0.000099299,0.001708900,0.000234416,1.138705850,-0.000168246,9.742720604
1784246354.113102,-0.001917495,-0.113309599,0.001964993,0.000017816,0.001804211,0.000141928,1.112869382,-0.021755651,9.737627029
1784246354.115101,-0.001916512,-0.113309070,0.001958892,0.000248617,0.001820281,-0.000539045,1.115592003,-0.019928353,9.727776527
1784246354.117109,-0.001921217,-0.113315918,0.001957941,-0.000099888,0.000918382,-0.000842469,1.093835354,-0.000003128,9.737300873
1784246354.119109,-0.001920819,-0.113317177,0.001957451,-0.000465345,0.000062135,-0.000667657,1.090664387,-0.003845086,9.716200829
1784246354.121107,-0.001918639,-0.113315597,0.001955735,-0.000273095,0.000010063,-0.000644705,1.088688254,-0.017006921,9.743461609
1784246354.123110,-0.001913746,-0.113313526,0.001953799,0.000250090,0.000256871,-0.000770205,1.111721516,-0.006799889,9.715752602
1784246354.125116,-0.001911432,-0.113318354,0.001957415,0.000679916,0.000001948,-0.000502939,1.122104287,-0.002385742,9.706376076
1784246354.127112,-0.001913831,-0.113323629,0.001957542,0.000517041,-0.000683823,-0.000113210,1.122881532,-0.011045221,9.725599289
1784246354.129128,-0.001912961,-0.113324739,0.001953017,0.000258370,-0.000872583,-0.000369342,1.094257236,-0.004678898,9.700954437
1784246354.131125,-0.001914561,-0.113325760,0.001948976,0.000091824,-0.000720572,-0.000843113,1.120956182,-0.022183096,9.720145226
1784246354.133120,-0.001916261,-0.113325201,0.001950555,-0.000174595,-0.000556927,-0.000754942,1.100612760,-0.033660401,9.732606888
1784246354.135121,-0.001914950,-0.113324009,0.001956727,-0.000116004,-0.000336538,-0.000021829,1.081463218,-0.022544473,9.716071129
1784246354.137121,-0.001916562,-0.113323167,0.001952962,-0.000108417,-0.000155395,0.000151260,1.057636738,-0.025029274,9.730380058
1784246354.139125,-0.001920560,-0.113328412,0.001945210,-0.000503533,-0.000481560,-0.000628427,1.112100363,-0.011409256,9.733208656
1784246354.141136,-0.001921573,-0.113330536,0.001945246,-0.000721805,-0.000919457,-0.000944700,1.131763577,-0.017558847,9.743499756
1784246354.143137,-0.001923849,-0.113327339,0.001949718,-0.000713037,-0.000597280,-0.000358932,1.108529210,-0.009596856,9.736804008
1784246354.145136,-0.001929283,-0.113325000,0.001950029,-0.001028698,-0.000035451,0.000123261,1.112684369,0.000190650,9.739111900
1784246354.147142,-0.001934350,-0.113323368,0.001950689,-0.001476211,0.000269624,0.000238933,1.100504875,-0.041806370,9.744211197
1784246354.149138,-0.001935532,-0.113323592,0.001947657,-0.001424437,0.000255466,0.000051705,1.115986586,-0.023603644,9.739858627
1784246354.151138,-0.001926819,-0.113327108,0.001946934,-0.000467901,-0.000105522,-0.000283752,1.106593847,-0.021220839,9.736726761
1784246354.153141,-0.001921327,-0.113332197,0.001946099,0.000605212,-0.000661207,-0.000420851,1.101222277,0.016946489,9.734724998
1784246354.155137,-0.001917542,-0.113330632,0.001946495,0.000938186,-0.000737967,-0.000393249,1.106942892,0.007470922,9.733773232
1784246354.157189,-0.001918237,-0.113331161,0.001950860,0.000803447,-0.000486267,0.000025112,1.085800409,0.004077959,9.744938850
1784246354.159158,-0.001914499,-0.113329403,0.001960098,0.000776371,-0.000289326,0.000925783,1.116643310,-0.005757719,9.749388695
1784246354.161154,-0.001910114,-0.113331296,0.001957546,0.001046158,-0.000235874,0.001076420,1.124771357,-0.037370495,9.769818306
1784246354.163176,-0.001904781,-0.113327079,0.001954335,0.001373283,-0.000013039,0.000320902,1.121814966,-0.024526611,9.733134270
1784246354.165153,-0.001904298,-0.113321714,0.001955141,0.001382384,0.000744188,0.000026191,1.079665542,-0.020113517,9.755537987
1784246354.167156,-0.001903294,-0.113321446,0.001956494,0.001132155,0.001026499,0.000152573,1.086899042,-0.016129339,9.749294281
1784246354.169153,-0.001902177,-0.113323629,0.001958647,0.000996088,0.000511141,0.000330956,1.086152792,-0.005198250,9.725601196
1784246354.171156,-0.001907184,-0.113324687,0.001965456,0.000533406,0.000047087,0.000875027,1.105844021,-0.008695052,9.740840912
1784246354.173156,-0.001912413,-0.113325715,0.001969564,-0.000217963,-0.000107619,0.001452258,1.085810304,0.002940753,9.715789795
1784246354.175194,-0.001906277,-0.113328151,0.001970032,-0.000132894,-0.000368035,0.001367496,1.107869864,-0.027058410,9.736242294
1784246354.177211,-0.001900819,-0.113327898,0.001963065,0.000564826,-0.000469512,0.000476866,1.115577579,-0.020042822,9.743916512
1784246354.179179,-0.001901751,-0.113323040,0.001963741,0.000699550,0.000036233,-0.000115157,1.118872643,-0.009544668,9.710810661
1784246354.181175,-0.001906739,-0.113324091,0.001972694,0.000215403,0.000313862,0.000607445,1.077104926,-0.010935374,9.729591370
1784246354.183198,-0.001910849,-0.113322221,0.001976679,-0.000357388,0.000282946,0.001384930,1.094690204,-0.039965227,9.747803688
1784246354.185285,-0.001908679,-0.113320179,0.001972379,-0.000337090,0.000387567,0.000995977,1.103338122,-0.030190699,9.743839264
1784246354.187266,-0.001905589,-0.113321468,0.001964862,0.000075099,0.000248598,-0.000118322,1.091965199,-0.007058480,9.724699020
1784246354.189211,-0.001911180,-0.113321401,0.001962451,-0.000222695,0.000062596,-0.000732929,1.108666062,0.000804825,9.722970963
1784246354.191225,-0.001914502,-0.113322422,0.001961692,-0.000820321,-0.000053899,-0.000675713,1.067766905,-0.004066612,9.725591660
1784246354.193202,-0.001915043,-0.113325886,0.001964453,-0.000842744,-0.000343090,-0.000327633,1.100481153,-0.006430771,9.747128487
1784246354.195196,-0.001911467,-0.113324188,0.001973373,-0.000298493,-0.000419466,0.000523289,1.119745612,-0.010153567,9.731880188
1784246354.197195,-0.001907582,-0.113319740,0.001978027,0.000410968,0.000060943,0.001236919,1.136606336,0.011532930,9.739207268
1784246354.199196,-0.001904386,-0.113313243,0.001979191,0.000698277,0.000812472,0.001253213,1.124723196,-0.007455916,9.721589088
1784246354.201191,-0.001907183,-0.113309748,0.001976644,0.000401620,0.001296068,0.000830680,1.090942025,-0.052519374,9.755789757
1784246354.203200,-0.001914443,-0.113315508,0.001977010,-0.000402430,0.000790630,0.000535207,1.111726761,-0.003921715,9.752086639
1784246354.205226,-0.001913763,-0.113323011,0.001980127,-0.000726234,-0.000356579,0.000677071,1.118643641,0.010431733,9.737389565
1784246354.207195,-0.001910319,-0.113325410,0.001976393,-0.000271704,-0.000963551,0.000421752,1.121833086,0.014016511,9.731588364
1784246354.209193,-0.001912412,-0.113325261,0.001973704,-0.000276789,-0.000805911,-0.000122473,1.133411765,0.006286669,9.726617813
1784246354.211207,-0.001914235,-0.113324404,0.001964829,-0.000675160,-0.000468945,-0.000825206,1.132818937,-0.043376602,9.717780113
1784246354.213193,-0.001915028,-0.113327838,0.001965152,-0.000733891,-0.000515058,-0.001157878,1.106685042,-0.013205240,9.743503571
1784246354.215216,-0.001918097,-0.113332950,0.001967040,-0.000800435,-0.000912918,-0.000662169,1.104866862,-0.015800059,9.733622551
1784246354.217206,-0.001924281,-0.113332093,0.001965693,-0.001225284,-0.000910266,-0.000372226,1.112513304,0.022245064,9.725354195
1784246354.219203,-0.001926199,-0.113328062,0.001961647,-0.001635869,-0.000310836,-0.000554978,1.112836003,0.011923490,9.727084160
1784246354.221205,-0.001928283,-0.113322206,0.001962407,-0.001642263,0.000464007,-0.000577450,1.096922159,-0.004522981,9.737272263
1784246354.223198,-0.001934130,-0.113316871,0.001967817,-0.001683863,0.001096883,0.000056367,1.127488017,-0.036807589,9.748752594
1784246354.225204,-0.001941255,-0.113323651,0.001968659,-0.001939785,0.000768172,0.000549441,1.107964873,-0.020634329,9.714764595
1784246354.227205,-0.001944881,-0.113327824,0.001963296,-0.002059142,-0.000115447,0.000165034,1.121464849,-0.017258093,9.719730377
1784246354.229208,-0.001937460,-0.113324262,0.001960299,-0.001324051,-0.000063836,-0.000470859,1.097693563,-0.013633605,9.756941795
1784246354.231206,-0.001936784,-0.113326155,0.001964279,-0.000426637,0.000128200,-0.000336955,1.096483350,-0.002817597,9.750285149
1784246354.233206,-0.001935169,-0.113333054,0.001964324,-0.000125378,-0.000503618,0.000008458,1.124909997,0.008607092,9.730660439
1784246354.235216,-0.001927912,-0.113341443,0.001962970,0.000397907,-0.001378714,-0.000138881,1.102130771,-0.020162499,9.721934319
1784246354.237213,-0.001923775,-0.113339365,0.001965231,0.000966232,-0.001407031,-0.000116161,1.098998070,-0.018841969,9.730906487
1784246354.239212,-0.001926850,-0.113333657,0.001968301,0.000828086,-0.000577957,0.000265283,1.118337870,-0.014676349,9.740367889
1784246354.241213,-0.001926897,-0.113330171,0.001962859,0.000386087,0.000122680,0.000055758,1.143267274,-0.031150341,9.743871689
1784246354.243215,-0.001928353,-0.113324836,0.001960477,0.000119830,0.000688807,-0.000475568,1.132009387,-0.034161415,9.746531487
1784246354.245228,-0.001932040,-0.113326706,0.001960336,-0.000204917,0.000794324,-0.000485462,1.128380537,-0.002104117,9.718488693
1784246354.247261,-0.001930775,-0.113325693,0.001964133,-0.000210534,0.000578280,-0.000096796,1.111003041,0.008807578,9.727509499
