time_sec,roll_rad,pitch_rad,yaw_rad,gyro_x,gyro_y,gyro_z,acc_x,acc_y,acc_z
1784245991.204236,0.008307647,-0.116741076,-0.019911785,0.000443278,-0.000735393,-0.000577096,1.151635647,0.066086061,9.727465630
1784245991.206069,0.008306403,-0.116741732,-0.019911783,0.001110172,-0.000839993,-0.000540378,1.157895684,0.065833867,9.751681328
1784245991.208050,0.008306403,-0.116741732,-0.019911783,0.001274659,-0.000394736,0.000138630,1.161974192,0.067720234,9.731074333
1784245991.210056,0.008306365,-0.116742246,-0.019911781,0.000547355,0.000260424,0.001012866,1.134700179,0.076534510,9.737829208
1784245991.212040,0.008306365,-0.116742246,-0.019911781,0.000076680,0.001047145,0.000983638,1.139344454,0.089877687,9.743299484
1784245991.214061,0.008306365,-0.116742246,-0.019911781,0.000453354,0.001270741,0.000925439,1.123195052,0.089709833,9.732970238
1784245991.216036,0.008306755,-0.116740838,-0.019911792,0.001010593,0.000871608,0.001042826,1.148504972,0.105419099,9.746545792
1784245991.218034,0.008306755,-0.116740838,-0.019911792,0.001377998,0.000225149,0.000494484,1.165318727,0.083066463,9.709207535
1784245991.220028,0.008306803,-0.116742037,-0.019911783,0.001373353,-0.000298179,0.000310920,1.109012842,0.103443928,9.717354774
1784245991.222058,0.008306803,-0.116742037,-0.019911783,0.000594219,-0.000264267,0.001351644,1.134526849,0.099789724,9.744256020
1784245991.224026,0.008306803,-0.116742037,-0.019911783,-0.000220308,0.000321408,0.002058378,1.108445883,0.096031100,9.752724648
1784245991.226077,0.008307816,-0.116740108,-0.019911800,-0.000196097,0.000731267,0.001292436,1.114799619,0.061360024,9.702294350
1784245991.228037,0.008307816,-0.116740108,-0.019911800,-0.000033974,0.000905392,0.000228540,1.164606690,0.062351543,9.725214005
1784245991.230025,0.008307501,-0.116740741,-0.019911794,0.000229715,0.001243119,0.000032567,1.144102097,0.073818207,9.724820137
1784245991.232061,0.008307501,-0.116740741,-0.019911794,0.000308134,0.001057065,0.000103837,1.117256045,0.079627730,9.712277412
1784245991.234025,0.008307501,-0.116740741,-0.019911794,-0.000723915,0.000466952,-0.000119284,1.162727118,0.091999769,9.717780113
1784245991.236017,0.008308383,-0.116741866,-0.019911785,-0.001783079,0.000092933,-0.000047329,1.158240080,0.092870526,9.729437828
1784245991.238017,0.008308383,-0.116741866,-0.019911785,-0.001579665,-0.000280820,0.000132437,1.142257452,0.070610091,9.738246918
1784245991.240069,0.008307911,-0.116741695,-0.019911785,-0.000632132,-0.000271845,-0.000040649,1.140769362,0.095750712,9.733923912
1784245991.242075,0.008307911,-0.116741695,-0.019911785,0.000213015,0.000686760,-0.000125086,1.141434073,0.076070257,9.727969170
1784245991.244020,0.008307911,-0.116741695,-0.019911785,0.001206434,0.001218584,-0.000114718,1.153108358,0.078821205,9.761175156
1784245991.246017,0.008308405,-0.116741717,-0.019911785,0.001921292,0.000813479,-0.000003284,1.154695034,0.096913174,9.734392166
1784245991.248019,0.008308405,-0.116741717,-0.019911785,0.001788451,0.000290869,0.000165848,1.131298423,0.092653051,9.745550156
1784245991.250027,0.008309166,-0.116740443,-0.019911796,0.001224433,0.000097397,-0.000071677,1.123298168,0.061444379,9.738169670
1784245991.252021,0.008309166,-0.116740443,-0.019911796,0.000766312,0.000552378,-0.000476140,1.121729255,0.078245424,9.709583282
1784245991.254051,0.008309166,-0.116740443,-0.019911796,0.000541028,0.000935105,-0.000517603,1.126286626,0.086038209,9.739674568
1784245991.256031,0.008308833,-0.116740599,-0.019911796,0.000299285,0.000833672,-0.000044600,1.131277204,0.089244239,9.720870972
1784245991.258026,0.008308833,-0.116740599,-0.019911796,-0.000061298,0.000402338,0.000207434,1.138664842,0.069417134,9.723441124
1784245991.260023,0.008308352,-0.116740294,-0.019911800,-0.000357818,0.000216910,-0.000005438,1.153589606,0.079073004,9.724862099
1784245991.262027,0.008308352,-0.116740294,-0.019911800,-0.000626357,0.000244276,-0.000141639,1.171269536,0.093647413,9.722730637
1784245991.264037,0.008308352,-0.116740294,-0.019911800,-0.001171643,-0.000272770,-0.000118045,1.173597097,0.101577029,9.737578392
1784245991.266032,0.008309043,-0.116742261,-0.019911783,-0.001437709,-0.000236533,-0.000152504,1.151156664,0.099796385,9.713335991
1784245991.268031,0.008309043,-0.116742261,-0.019911783,-0.000429960,0.000515761,-0.000316067,1.128633976,0.056533661,9.726038933
1784245991.270029,0.008307433,-0.116741277,-0.019911792,0.000806040,0.000714744,-0.000165592,1.115743756,0.067391053,9.734614372
1784245991.272040,0.008307433,-0.116741277,-0.019911792,0.000654190,0.000564175,0.000085124,1.141856313,0.072614364,9.709116936
1784245991.274044,0.008307433,-0.116741277,-0.019911792,-0.000106158,0.000464371,-0.000202556,1.132812262,0.068122551,9.727013588
1784245991.276041,0.008306583,-0.116741553,-0.019911790,-0.000659869,0.000374659,-0.000574689,1.158557177,0.082907878,9.743721008
1784245991.278055,0.008306583,-0.116741553,-0.019911790,-0.001104991,-0.000089548,-0.000306518,1.166327834,0.094879650,9.747392654
1784245991.280072,0.008307086,-0.116742514,-0.019911783,-0.001053015,-0.000685534,0.000176832,1.145649076,0.091191962,9.736139297
1784245991.282049,0.008307086,-0.116742514,-0.019911783,-0.000502541,-0.000531369,0.000551091,1.140416622,0.103403591,9.729488373
1784245991.284045,0.008307086,-0.116742514,-0.019911783,-0.000221884,0.000088096,0.000519489,1.120970130,0.091101535,9.730288506
1784245991.286050,0.008307683,-0.116741359,-0.019911788,-0.000237476,0.000166306,0.000078847,1.124525189,0.087135181,9.714574814
1784245991.288050,0.008307683,-0.116741359,-0.019911788,0.000050911,-0.000446918,-0.000082947,1.136763692,0.060496807,9.721139908
1784245991.290054,0.008307599,-0.116741076,-0.019911792,0.000677926,-0.000772810,-0.000091166,1.147030115,0.092668034,9.715080261
1784245991.292052,0.008307599,-0.116741076,-0.019911792,0.000943952,-0.000339868,-0.000472810,1.162332773,0.060518496,9.735063553
1784245991.294059,0.008307599,-0.116741076,-0.019911792,0.000289169,0.000075115,-0.000823834,1.115143895,0.092040405,9.734771729
1784245991.296060,0.008307973,-0.116740443,-0.019911798,-0.000646185,-0.000158936,-0.000866646,1.118224144,0.086252980,9.723978043
1784245991.298057,0.008307973,-0.116740443,-0.019911798,-0.001056196,-0.000349369,-0.001059980,1.152039170,0.062077276,9.723407745
1784245991.300055,0.008306867,-0.116740920,-0.019911794,-0.000920657,-0.000404444,-0.000928889,1.147173047,0.105547622,9.730854034
1784245991.302056,0.008306867,-0.116740920,-0.019911794,-0.000917385,-0.000876513,-0.000673483,1.145895362,0.111779086,9.738963127
1784245991.304059,0.008306867,-0.116740920,-0.019911794,-0.001146934,-0.000947479,-0.000558477,1.147493482,0.095613599,9.741102219
1784245991.306059,0.008307603,-0.116741188,-0.019911790,-0.000889433,-0.000123456,-0.000198365,1.144977093,0.110815175,9.750164986
1784245991.308066,0.008307603,-0.116741188,-0.019911790,-0.000155502,0.000813593,-0.000041594,1.136703253,0.094366364,9.746912003
1784245991.310061,0.008307771,-0.116741441,-0.019911785,0.000519355,0.001010837,-0.000272854,1.104324460,0.086510696,9.712757111
1784245991.312067,0.008307771,-0.116741441,-0.019911785,0.000967654,0.000489135,-0.000463153,1.129637241,0.064652234,9.716677666
1784245991.314066,0.008307771,-0.116741441,-0.019911785,0.001563820,-0.000002929,-0.000421461,1.147228479,0.071636736,9.710910797
1784245991.316065,0.008307585,-0.116742224,-0.019911781,0.001798967,-0.000377466,-0.000355391,1.154473662,0.077739894,9.721716881
1784245991.318069,0.008307585,-0.116742224,-0.019911781,0.001210180,-0.000731559,-0.000399179,1.122114182,0.075303912,9.744534492
1784245991.320072,0.008307030,-0.116740793,-0.019911796,0.000765881,-0.000684909,-0.000176680,1.117676020,0.079799667,9.750387192
1784245991.322076,0.008307030,-0.116740793,-0.019911796,0.000748714,-0.000603885,0.000581867,1.117195010,0.039934311,9.749681473
1784245991.324073,0.008307030,-0.116740793,-0.019911796,0.000896238,-0.000868467,0.000789927,1.150351763,0.071863212,9.736470222
1784245991.326078,0.008306557,-0.116740748,-0.019911796,0.001081918,-0.000591974,0.000601251,1.134148479,0.067218930,9.725665092
1784245991.328080,0.008306557,-0.116740748,-0.019911796,0.001222141,0.000199606,0.001080860,1.134251356,0.112510070,9.720127106
1784245991.330095,0.008307829,-0.116740689,-0.019911794,0.001123104,0.000509994,0.001175722,1.127812266,0.101623274,9.750536919
1784245991.332093,0.008307829,-0.116740689,-0.019911794,0.000561256,0.000562393,0.001080615,1.123522162,0.118633345,9.760505676
1784245991.334136,0.008307829,-0.116740689,-0.019911794,-0.000115161,0.000963872,0.000940723,1.138511896,0.094858095,9.737503052
1784245991.336102,0.008308766,-0.116740771,-0.019911794,-0.000679782,0.001135774,0.000079852,1.127600670,0.082929745,9.733380318
1784245991.338099,0.008308766,-0.116740771,-0.019911794,-0.001060379,0.000739249,-0.000640402,1.151304364,0.076744311,9.741434097
1784245991.340105,0.008308321,-0.116740718,-0.019911794,-0.000941241,0.000407676,-0.000767567,1.132211208,0.055579025,9.727829933
1784245991.342095,0.008308321,-0.116740718,-0.019911794,-0.000455430,0.000392607,-0.000334807,1.140630722,0.083309546,9.719496727
1784245991.344103,0.008308321,-0.116740718,-0.019911794,-0.000030810,0.000341769,0.000485795,1.150668144,0.096650511,9.715557098
1784245991.346103,0.008308810,-0.116740823,-0.019911792,0.000042756,0.000165385,0.000739460,1.154653192,0.092125505,9.714634895
1784245991.348102,0.008308810,-0.116740823,-0.019911792,-0.000227972,0.000025710,0.000382120,1.147831321,0.085412852,9.725794792
1784245991.350102,0.008309133,-0.116740845,-0.019911792,-0.000402090,0.000356575,-0.000020166,1.127631664,0.085607961,9.734743118
1784245991.352105,0.008309133,-0.116740845,-0.019911792,-0.000871312,0.000674181,-0.000457759,1.130833387,0.089288145,9.715490341
1784245991.354106,0.008309133,-0.116740845,-0.019911792,-0.001238798,0.000256420,-0.000545525,1.137396336,0.074505039,9.703297615
1784245991.356108,0.008308270,-0.116740100,-0.019911798,-0.000714615,-0.000310655,-0.000248631,1.137390614,0.074867152,9.715404510
1784245991.358109,0.008308270,-0.116740100,-0.019911798,-0.000367267,-0.000509171,0.000257624,1.130396008,0.090599626,9.720879555
1784245991.360118,0.008309147,-0.116739415,-0.019911805,-0.000905839,-0.000372829,0.000229592,1.130416632,0.092788547,9.728066444
1784245991.362165,0.008309147,-0.116739415,-0.019911805,-0.001500366,-0.000682319,-0.000280827,1.151974440,0.093078189,9.711500168
1784245991.364135,0.008309147,-0.116739415,-0.019911805,-0.001700414,-0.001037836,-0.000400290,1.117401361,0.092122942,9.719083786
1784245991.366150,0.008310046,-0.116739802,-0.019911801,-0.001656366,-0.000383348,-0.000084787,1.095977068,0.064619571,9.718885422
1784245991.368128,0.008310046,-0.116739802,-0.019911801,-0.000877915,0.000623486,0.000456073,1.122950077,0.069132239,9.728803635
1784245991.370130,0.008309520,-0.116738796,-0.019911809,0.000063171,0.000743384,0.000450120,1.141941428,0.080175646,9.716788292
1784245991.372144,0.008309520,-0.116738796,-0.019911809,0.000002508,0.000371017,0.000405933,1.136052012,0.075348258,9.713164330
1784245991.374141,0.008309520,-0.116738796,-0.019911809,-0.000220334,0.000299669,0.000374573,1.140133858,0.078476757,9.706912994
1784245991.376136,0.008309479,-0.116739139,-0.019911805,-0.000143955,0.000499542,-0.000043630,1.129802942,0.078929760,9.724839211
1784245991.378133,0.008309479,-0.116739139,-0.019911805,0.000091697,0.000641215,-0.000023090,1.138053417,0.092760757,9.718210220
1784245991.380130,0.008310669,-0.116739050,-0.019911807,0.000548889,0.000434250,0.000171117,1.121534467,0.101328924,9.740218163
1784245991.382133,0.008310669,-0.116739050,-0.019911807,0.000588932,-0.000055458,0.000328293,1.127485394,0.073916458,9.740943909
1784245991.384134,0.008310669,-0.116739050,-0.019911807,0.000235707,-0.000625068,0.000603467,1.125837564,0.085230701,9.728013039
1784245991.386143,0.008310493,-0.116738610,-0.019911809,-0.000213684,-0.000425536,0.000734839,1.134392023,0.088187248,9.737903595
1784245991.388136,0.008310493,-0.116738610,-0.019911809,-0.000823829,0.000194501,0.000237028,1.135636687,0.080884963,9.754446983
1784245991.390139,0.008310806,-0.116738625,-0.019911811,-0.001131021,-0.000056593,-0.000237631,1.159970284,0.086661920,9.717295647
1784245991.392139,0.008310806,-0.116738625,-0.019911811,-0.000833475,-0.000445228,-0.000240748,1.146360755,0.112310350,9.726413727
1784245991.394144,0.008310806,-0.116738625,-0.019911811,-0.000472016,-0.000712237,-0.000188544,1.124897718,0.119254842,9.733611107
1784245991.396144,0.008313559,-0.116738029,-0.019911818,-0.000305613,-0.001499900,-0.000117869,1.148304939,0.089654587,9.758548737
1784245991.398147,0.008313559,-0.116738029,-0.019911818,-0.000399671,-0.002014619,-0.000517691,1.129230380,0.069445655,9.736433983
1784245991.400147,0.008312449,-0.116736583,-0.019911829,-0.000603467,-0.001594169,-0.001129673,1.119361758,0.067164183,9.696955681
1784245991.402152,0.008312449,-0.116736583,-0.019911829,-0.000890960,-0.000624502,-0.000904103,1.144563675,0.075130910,9.728415489
1784245991.404150,0.008312449,-0.116736583,-0.019911829,-0.000828385,0.000256072,-0.000269028,1.144976616,0.071195252,9.714043617
1784245991.406155,0.008312466,-0.116736852,-0.019911826,-0.000370741,0.000428459,-0.000349896,1.164358139,0.078121781,9.713209152
1784245991.408156,0.008312466,-0.116736852,-0.019911826,-0.000441657,-0.000140912,-0.000846565,1.134855509,0.088299148,9.721317291
1784245991.410156,0.008312317,-0.116736427,-0.019911833,-0.000747602,-0.000590941,-0.000884052,1.130239367,0.078015372,9.726625443
1784245991.412170,0.008312317,-0.116736427,-0.019911833,-0.000716070,-0.000778196,-0.000801861,1.165781617,0.085198775,9.723567963
1784245991.414163,0.008312317,-0.116736427,-0.019911833,-0.000313972,-0.001042590,-0.001085082,1.164557338,0.096310131,9.738431931
1784245991.416158,0.008313251,-0.116737485,-0.019911824,-0.000362302,-0.001050751,-0.001417282,1.146983027,0.089862622,9.731650352
1784245991.418160,0.008313251,-0.116737485,-0.019911824,-0.001372973,-0.000869065,-0.001190444,1.130695105,0.078470305,9.724836349
1784245991.420161,0.008313059,-0.116736859,-0.019911828,-0.002181664,-0.000648698,-0.000573524,1.125650764,0.070787832,9.743164062
1784245991.422165,0.008313059,-0.116736859,-0.019911828,-0.001921620,-0.000603765,-0.000376125,1.155901551,0.085258499,9.732973099
1784245991.424166,0.008313059,-0.116736859,-0.019911828,-0.001280001,-0.000627912,-0.000556853,1.123916745,0.111311145,9.718315125
1784245991.426173,0.008314610,-0.116736270,-0.019911833,-0.000808493,-0.000267564,-0.000686399,1.124174833,0.096427277,9.731669426
1784245991.428169,0.008314610,-0.116736270,-0.019911833,-0.000081916,0.000279577,-0.000904940,1.133544803,0.092243113,9.736136436
1784245991.430174,0.008315137,-0.116735622,-0.019911839,0.000881681,0.000709480,-0.001063281,1.138365626,0.081546441,9.719483376
1784245991.432169,0.008315137,-0.116735622,-0.019911839,0.001487990,0.000607717,-0.000856161,1.142033339,0.090627834,9.758997917
1784245991.434173,0.008315137,-0.116735622,-0.019911839,0.001258272,0.000464510,-0.000002708,1.145729303,0.097094938,9.724970818
1784245991.436176,0.008315637,-0.116735585,-0.019911839,0.000857431,0.000524143,0.000709825,1.146026015,0.084136486,9.719507217
1784245991.438177,0.008315637,-0.116735585,-0.019911839,0.000564538,0.000372812,0.000704309,1.132494092,0.078075655,9.714076042
1784245991.440175,0.008315995,-0.116735011,-0.019911844,0.000135104,0.000354674,0.000736564,1.140540242,0.076517001,9.729764938
1784245991.442180,0.008315995,-0.116735011,-0.019911844,0.000131002,0.000411679,0.000508218,1.101841331,0.106433168,9.750990868
1784245991.444178,0.008315995,-0.116735011,-0.019911844,0.000779108,0.000464295,0.000324914,1.126831889,0.092469260,9.716404915
1784245991.446184,0.008316324,-0.116734006,-0.019911855,0.001288681,0.000733003,0.000716225,1.149018764,0.072388828,9.727953911
1784245991.448188,0.008316324,-0.116734006,-0.019911855,0.001043858,0.000861960,0.001234614,1.131474972,0.069426447,9.735090256
1784245991.450194,0.008316117,-0.116733015,-0.019911863,0.000628140,0.000567462,0.000797382,1.158360600,0.062715024,9.685309410
1784245991.452264,0.008316117,-0.116733015,-0.019911863,0.000738696,0.000027248,0.000026410,1.138764501,0.079119638,9.745022774
1784245991.454205,0.008316117,-0.116733015,-0.019911863,0.001286110,-0.000536972,0.000060265,1.140347004,0.097989917,9.734833717
1784245991.456208,0.008317038,-0.116733544,-0.019911861,0.001506961,-0.000693761,0.000031907,1.146315932,0.071530581,9.727497101
1784245991.458207,0.008317038,-0.116733544,-0.019911861,0.001108842,-0.000675737,-0.000025007,1.131763577,0.093994364,9.745112419
1784245991.460200,0.008317852,-0.116732612,-0.019911868,0.000472577,-0.000805855,0.000419583,1.112168908,0.105954729,9.736651421
1784245991.462204,0.008317852,-0.116732612,-0.019911868,0.000068352,-0.000485863,0.000511193,1.144437551,0.102808498,9.742938042
1784245991.464202,0.008317852,-0.116732612,-0.019911868,0.000174831,-0.000073874,0.000056062,1.132895708,0.075267673,9.730198860
1784245991.466206,0.008306735,-0.116730548,-0.019907629,0.000426846,-0.000226899,-0.000042910,1.174541235,0.066371180,9.709109306
1784245991.468217,0.008306735,-0.116730548,-0.019907629,0.000534890,-0.000500849,0.000118799,1.173363090,0.082708612,9.745079994
1784245991.470207,0.008306477,-0.116731174,-0.019907627,0.000435838,-0.000445738,0.000111376,1.162889361,0.069065340,9.729290009
1784245991.472210,0.008306477,-0.116731174,-0.019907627,0.000167299,-0.000169594,0.000125023,1.143576503,0.067139521,9.719843864
1784245991.474216,0.008306477,-0.116731174,-0.019907627,-0.000317989,-0.000001302,0.000134322,1.123816490,0.066852324,9.732825279
1784245991.476216,0.008305633,-0.116730407,-0.019907633,-0.001325926,-0.000160740,0.000319003,1.132768512,0.064942315,9.733268738
1784245991.478215,0.008305633,-0.116730407,-0.019907633,-0.002149683,-0.000238597,0.000236990,1.138978481,0.094588801,9.711497307
1784245991.480212,0.008307168,-0.116730548,-0.019907633,-0.002221321,0.000094637,0.000234412,1.147580743,0.101167187,9.716032028
1784245991.482220,0.008307168,-0.116730548,-0.019907633,-0.001569285,0.000362589,0.000757296,1.148737907,0.087094627,9.739703178
1784245991.484223,0.008307168,-0.116730548,-0.019907633,-0.000608996,0.000160228,0.000541058,1.128403306,0.074470580,9.724359512
1784245991.486224,0.008307779,-0.116730787,-0.019907629,-0.000452269,-0.000105008,0.000002924,1.110200882,0.054456443,9.736319542
1784245991.488219,0.008307779,-0.116730787,-0.019907629,-0.000788606,-0.000079595,-0.000027563,1.162237525,0.090467677,9.745118141
1784245991.490234,0.008308379,-0.116731897,-0.019907622,-0.000887845,0.000132791,0.000366731,1.144253850,0.087174378,9.736561775
1784245991.492236,0.008308379,-0.116731897,-0.019907622,-0.000288667,0.000444257,0.000330978,1.131677032,0.086826988,9.745065689
1784245991.494231,0.008308379,-0.116731897,-0.019907622,0.000689344,0.000453091,-0.000309184,1.157787323,0.092841305,9.734368324
1784245991.496232,0.008308527,-0.116732165,-0.019907616,0.000892495,0.000264591,-0.000380291,1.157343030,0.093288653,9.735267639
1784245991.498228,0.008308527,-0.116732165,-0.019907616,0.000937704,0.000825478,0.000365915,1.169363976,0.083475403,9.707420349
1784245991.500228,0.008308982,-0.116733439,-0.019907607,0.001298427,0.001464090,0.000983528,1.133774042,0.108236529,9.691853523
1784245991.502232,0.008308982,-0.116733439,-0.019907607,0.001173921,0.001178961,0.001193983,1.135439992,0.062312260,9.720253944
1784245991.504234,0.008308982,-0.116733439,-0.019907607,0.000345089,0.001162186,0.000859789,1.134929180,0.093338005,9.705657005
1784245991.506236,0.008309362,-0.116732568,-0.019907614,-0.000598161,0.001461495,0.000310648,1.168532729,0.090898760,9.736160278
1784245991.508236,0.008309362,-0.116732568,-0.019907614,-0.000821571,0.001098342,-0.000055793,1.142264605,0.071477391,9.742287636
1784245991.510234,0.008309228,-0.116732068,-0.019907620,-0.000426334,0.000611450,-0.000268938,1.157124877,0.076570995,9.755335808
1784245991.512239,0.008309228,-0.116732068,-0.019907620,-0.000663708,0.000329878,0.000315485,1.156135082,0.104527175,9.732200623
1784245991.514242,0.008309228,-0.116732068,-0.019907620,-0.000759400,0.000609015,0.000888466,1.136627197,0.085661508,9.710989952
1784245991.516240,0.008309431,-0.116732150,-0.019907618,-0.000029979,0.001058061,0.000929427,1.117544770,0.068632439,9.745832443
1784245991.518241,0.008309431,-0.116732150,-0.019907618,0.000042290,0.000619380,0.000430768,1.135602713,0.112937622,9.720578194
1784245991.520246,0.008311152,-0.116731562,-0.019907624,-0.000503259,0.000109704,-0.000169183,1.132374167,0.105804116,9.721426964
1784245991.522249,0.008311152,-0.116731562,-0.019907624,-0.000532235,0.000469527,-0.000132235,1.112508297,0.096980222,9.737938881
1784245991.524249,0.008311152,-0.116731562,-0.019907624,-0.000387619,0.001000076,-0.000139663,1.146116018,0.092952624,9.739738464
1784245991.526251,0.008311622,-0.116731420,-0.019907627,-0.000466286,0.001012791,-0.000508486,1.159536123,0.088808894,9.731206894
1784245991.528252,0.008311622,-0.116731420,-0.019907627,-0.000258925,0.000425005,-0.000743972,1.129729986,0.071463868,9.703718185
1784245991.530289,0.008311495,-0.116731383,-0.019907627,-0.000070689,0.000156519,-0.000607691,1.124321103,0.071745530,9.736891747
1784245991.532264,0.008311495,-0.116731383,-0.019907627,-0.000201416,0.000287361,-0.000434812,1.136959195,0.077439837,9.732457161
1784245991.534259,0.008311495,-0.116731383,-0.019907627,-0.000083402,0.000108398,0.000014872,1.146092653,0.090334795,9.729858398
1784245991.536261,0.008311824,-0.116732650,-0.019907616,0.000617482,0.000006950,0.000415808,1.119084120,0.085945770,9.765670776
1784245991.538257,0.008311824,-0.116732650,-0.019907616,0.001530647,0.000308570,0.000403736,1.140796304,0.061210606,9.739530563
1784245991.540257,0.008310363,-0.116733253,-0.019907612,0.001565246,0.000663084,0.000069759,1.178975224,0.063867196,9.738238335
1784245991.542294,0.008310363,-0.116733253,-0.019907612,0.000797454,0.001093768,-0.000480721,1.128277898,0.101344459,9.725876808
1784245991.544266,0.008310363,-0.116733253,-0.019907612,0.000400880,0.001510879,-0.000411557,1.146239758,0.101629220,9.716481209
1784245991.546269,0.008311244,-0.116734192,-0.019907603,0.000141227,0.001254235,-0.000003213,1.136606574,0.085499339,9.733853340
1784245991.548268,0.008311244,-0.116734192,-0.019907603,-0.000305389,0.000586395,-0.000087915,1.152936339,0.063279293,9.741797447
1784245991.550273,0.008310621,-0.116734788,-0.019907599,-0.000754155,0.000231743,-0.000889204,1.149186492,0.085465558,9.715933800
1784245991.552278,0.008310621,-0.116734788,-0.019907599,-0.000621317,0.000670837,-0.001540526,1.142105460,0.057253927,9.726505280
1784245991.554276,0.008310621,-0.116734788,-0.019907599,-0.000456002,0.000805333,-0.001257756,1.140868902,0.067456633,9.743158340
1784245991.556275,0.008309014,-0.116735160,-0.019907592,-0.001031749,0.000064855,-0.001057538,1.131237507,0.087309316,9.741033554
1784245991.558275,0.008309014,-0.116735160,-0.019907592,-0.000991955,0.000098994,-0.001322947,1.130598187,0.067979969,9.688006401
1784245991.560276,0.008308658,-0.116734721,-0.019907596,-0.000086865,0.000993168,-0.000986557,1.132435799,0.073967695,9.724809647
1784245991.562286,0.008308658,-0.116734721,-0.019907596,-0.000064022,0.001431895,-0.000166039,1.155096531,0.091671817,9.714632034
1784245991.564289,0.008308658,-0.116734721,-0.019907596,-0.000341260,0.001200349,-0.000167548,1.154958248,0.080853969,9.723978043
1784245991.566286,0.008308648,-0.116735391,-0.019907592,0.000249539,0.000631124,-0.000819484,1.139051914,0.064467922,9.725650787
1784245991.568286,0.008308648,-0.116735391,-0.019907592,0.000627381,0.000431347,-0.001022522,1.124588132,0.055311475,9.716164589
1784245991.570288,0.008307504,-0.116734512,-0.019907601,0.000305125,0.000307486,-0.000719966,1.101114631,0.083577015,9.753085136
1784245991.572307,0.008307504,-0.116734512,-0.019907601,-0.000175760,-0.000648480,0.000217301,1.137819409,0.073082268,9.713600159
1784245991.574301,0.008307504,-0.116734512,-0.019907601,-0.000289751,-0.001169107,0.001172222,1.128887296,0.077174857,9.721239090
1784245991.576297,0.008307630,-0.116733186,-0.019907614,-0.000139221,-0.000230867,0.000882734,1.134317040,0.081922144,9.736967087
1784245991.578307,0.008307630,-0.116733186,-0.019907614,-0.000348705,0.000927150,0.000168531,1.141585827,0.089426421,9.739712715
1784245991.580311,0.008308190,-0.116733238,-0.019907612,-0.000383748,0.001028973,0.000059487,1.128609180,0.093523055,9.754071236
1784245991.582301,0.008308190,-0.116733238,-0.019907612,0.000054157,0.000556185,0.000302671,1.143240333,0.077759616,9.739190102
1784245991.584301,0.008308190,-0.116733238,-0.019907612,0.000143399,0.000665217,0.000319523,1.136274695,0.095747784,9.742437363
1784245991.586305,0.008308967,-0.116732992,-0.019907612,-0.000041253,0.000983652,-0.000046353,1.122978687,0.074628234,9.775016785
1784245991.588304,0.008308967,-0.116732992,-0.019907612,-0.000291437,0.000533460,-0.000407134,1.133611798,0.060854644,9.739521027
1784245991.590304,0.008307944,-0.116733141,-0.019907612,-0.000334407,-0.000352207,-0.000961674,1.156477213,0.057581510,9.717554092
1784245991.592305,0.008307944,-0.116733141,-0.019907612,-0.000198322,-0.000462223,-0.000875003,1.156511903,0.097875133,9.721846581
1784245991.594314,0.008307944,-0.116733141,-0.019907612,0.000137986,-0.000136921,0.000165568,1.135534763,0.069949850,9.717164040
1784245991.596316,0.008307891,-0.116732456,-0.019907618,0.000541538,-0.000332304,0.000704835,1.152078152,0.064409293,9.710420609
1784245991.598312,0.008307891,-0.116732456,-0.019907618,0.000582221,-0.000664918,0.000283892,1.163480043,0.079906054,9.715909958
1784245991.600319,0.008308241,-0.116733752,-0.019907607,0.000812811,-0.000729066,-0.000075605,1.146897316,0.081891529,9.718597412
1784245991.602317,0.008308241,-0.116733752,-0.019907607,0.000925101,-0.000796407,0.000185805,1.120047092,0.087262623,9.704708099
1784245991.604321,0.008308241,-0.116733752,-0.019907607,0.000556026,-0.000785277,0.000159236,1.127256393,0.091056041,9.725361824
1784245991.606320,0.008308539,-0.116733305,-0.019907612,0.000289347,-0.000614092,-0.000039725,1.125787139,0.081589766,9.736059189
1784245991.608322,0.008308539,-0.116733305,-0.019907612,0.000403916,-0.000296385,0.000087677,1.140475988,0.071144640,9.729282379
1784245991.610333,0.008308228,-0.116733618,-0.019907607,0.000507926,0.000221167,0.000452892,1.142022729,0.085274927,9.692611694
1784245991.612324,0.008308228,-0.116733618,-0.019907607,0.000272686,0.000259677,0.000698516,1.150356650,0.109087884,9.731328964
1784245991.614339,0.008308228,-0.116733618,-0.019907607,0.000119464,0.000200196,0.000443747,1.141456962,0.115868241,9.738984108
1784245991.616331,0.008309645,-0.116733998,-0.019907605,0.000248769,0.000624349,-0.000081846,1.131969929,0.111023240,9.744323730
1784245991.618331,0.008309645,-0.116733998,-0.019907605,0.000322200,0.000716688,-0.000321561,1.145908833,0.076727450,9.753532410
1784245991.620374,0.008309308,-0.116734020,-0.019907603,0.000658332,0.000273942,-0.000011184,1.130096197,0.068376072,9.759292603
1784245991.622338,0.008309308,-0.116734020,-0.019907603,0.001430576,0.000233596,0.000235384,1.153719306,0.053447630,9.736802101
1784245991.624336,0.008309308,-0.116734020,-0.019907603,0.001776585,0.000277541,0.000577537,1.127809167,0.064817958,9.759715080
1784245991.626341,0.008308735,-0.116733395,-0.019907607,0.001445669,-0.000063028,0.000968205,1.109459043,0.067042649,9.731916428
1784245991.628342,0.008308735,-0.116733395,-0.019907607,0.001077981,-0.000327431,0.001198354,1.159420013,0.081002787,9.758056641
1784245991.630342,0.008308750,-0.116733901,-0.019907603,0.001278887,-0.000668430,0.001257623,1.136712551,0.094846115,9.742431641
1784245991.632344,0.008308750,-0.116733901,-0.019907603,0.001820653,-0.001207103,0.000974878,1.150820494,0.109199792,9.714740753
1784245991.634346,0.008308750,-0.116733901,-0.019907603,0.002072660,-0.001435436,0.000679330,1.160633087,0.106178857,9.743872643
1784245991.636347,0.008309644,-0.116734438,-0.019907599,0.001627585,-0.001234458,0.000374815,1.151665092,0.105934910,9.731308937
1784245991.638346,0.008309644,-0.116734438,-0.019907599,0.001142804,-0.000835767,0.000388803,1.117837667,0.093638770,9.757202148
1784245991.640347,0.008309931,-0.116733186,-0.019907610,0.001174942,0.000024946,0.000655508,1.146570921,0.093401201,9.738845825
1784245991.642348,0.008309931,-0.116733186,-0.019907610,0.001253003,0.000704932,0.000922389,1.155873299,0.082602523,9.728473663
1784245991.644355,0.008309931,-0.116733186,-0.019907610,0.001218848,0.001007160,0.000483775,1.133653998,0.063215278,9.722498894
1784245991.646361,0.008309391,-0.116732478,-0.019907616,0.000723170,0.001055513,-0.000342907,1.161653757,0.076844178,9.708716393
1784245991.648359,0.008309391,-0.116732478,-0.019907616,-0.000531657,0.000520305,-0.000281817,1.127210855,0.086236559,9.710087776
1784245991.650358,0.008309732,-0.116731852,-0.019907620,-0.001375983,-0.000016769,0.000159116,1.130686164,0.078400351,9.734699249
1784245991.652360,0.008309732,-0.116731852,-0.019907620,-0.001318338,-0.000143074,0.000121841,1.130857825,0.091102250,9.712364197
1784245991.654371,0.008309732,-0.116731852,-0.019907620,-0.001127332,0.000054504,-0.000426966,1.144538164,0.072497204,9.720777512
1784245991.656362,0.008309366,-0.116731375,-0.019907627,-0.000661653,0.000285245,-0.000879919,1.156734705,0.077444419,9.696161270
1784245991.658363,0.008309366,-0.116731375,-0.019907627,-0.000525356,0.000095100,-0.001140002,1.130773067,0.083544135,9.704246521
1784245991.660367,0.008309595,-0.116731115,-0.019907629,-0.000776329,-0.000686950,-0.001441922,1.121827960,0.088345043,9.738340378
1784245991.662365,0.008309595,-0.116731115,-0.019907629,-0.000539785,-0.000867086,-0.001352150,1.139606833,0.073812120,9.733780861
1784245991.664368,0.008309595,-0.116731115,-0.019907629,-0.000107579,-0.000266247,-0.000776810,1.134682417,0.073557757,9.715394020
1784245991.666369,0.008309050,-0.116730519,-0.019907633,-0.000222401,0.000554406,-0.000410385,1.135787129,0.092204824,9.737483025
1784245991.668370,0.008309050,-0.116730519,-0.019907633,-0.000812768,0.001173936,0.000144696,1.137182236,0.097842559,9.761281013
1784245991.670372,0.008309675,-0.116730347,-0.019907633,-0.001216130,0.000760785,0.000580396,1.128932595,0.082801200,9.749072075
1784245991.672381,0.008309675,-0.116730347,-0.019907633,-0.001313178,0.000137355,0.000300606,1.129368424,0.081073567,9.739198685
1784245991.674383,0.008309675,-0.116730347,-0.019907633,-0.001416047,-0.000026260,-0.000262687,1.123598337,0.086914562,9.747300148
1784245991.676378,0.008310440,-0.116730198,-0.019907637,-0.001038894,-0.000167551,-0.000798807,1.123686075,0.093684860,9.740171432
1784245991.678380,0.008310440,-0.116730198,-0.019907637,0.000102862,-0.000264375,-0.000772762,1.162415504,0.104030512,9.727721214
1784245991.680387,0.008311268,-0.116731614,-0.019907627,0.000685557,0.000150655,-0.000246029,1.125930071,0.092039146,9.715503693
1784245991.682383,0.008311268,-0.116731614,-0.019907627,0.000680450,0.000871169,0.000211546,1.140162945,0.082352601,9.728904724
1784245991.684381,0.008311268,-0.116731614,-0.019907627,0.001056182,0.001286405,0.000147736,1.160681129,0.071804106,9.726168633
1784245991.686385,0.008311328,-0.116732143,-0.019907622,0.000783403,0.001199252,0.000026005,1.147489429,0.055154987,9.696906090
1784245991.688390,0.008311328,-0.116732143,-0.019907622,-0.000235252,0.000603300,0.000149678,1.134160519,0.068934456,9.736435890
1784245991.690389,0.008310969,-0.116731495,-0.019907627,-0.000311063,-0.000002347,0.000618963,1.133944511,0.089419216,9.754498482
1784245991.692390,0.008310969,-0.116731495,-0.019907627,-0.000093282,-0.000231835,0.001179068,1.134399652,0.089057729,9.741496086
1784245991.694393,0.008310969,-0.116731495,-0.019907627,-0.000254838,0.000020301,0.001282044,1.156603813,0.069927275,9.745429039
1784245991.696393,0.008311190,-0.116731726,-0.019907627,-0.000294837,0.000601891,0.000908107,1.157343984,0.091674879,9.710150719
1784245991.698399,0.008311190,-0.116731726,-0.019907627,-0.000726856,0.000579273,0.000740882,1.144567966,0.112349227,9.724170685
1784245991.700395,0.008312887,-0.116731867,-0.019907622,-0.001283043,0.000076433,0.001103366,1.141399503,0.072556525,9.718084335
1784245991.702397,0.008312887,-0.116731867,-0.019907622,-0.001342805,-0.000148726,0.001224352,1.140212774,0.085583717,9.715476036
1784245991.704401,0.008312887,-0.116731867,-0.019907622,-0.001259437,-0.000348237,0.001005612,1.138081551,0.097440340,9.753209114
1784245991.706404,0.008313794,-0.116731137,-0.019907629,-0.001325455,-0.000475208,0.001008630,1.161866784,0.096357346,9.736638069
1784245991.708403,0.008313794,-0.116731137,-0.019907629,-0.001007651,-0.000193114,0.000923237,1.157620549,0.078557409,9.727104187
1784245991.710403,0.008313567,-0.116731741,-0.019907624,-0.000028945,0.000474524,0.000503756,1.137922883,0.083220035,9.736979485
1784245991.712404,0.008313567,-0.116731741,-0.019907624,0.000322380,0.000982126,0.000306022,1.141525865,0.084495679,9.740129471
1784245991.714409,0.008313567,-0.116731741,-0.019907624,0.000191955,0.000831442,0.000591705,1.127062201,0.074932612,9.724810600
1784245991.716411,0.008313492,-0.116731390,-0.019907629,0.001018510,0.000710515,0.000999794,1.147270679,0.076427586,9.730218887
1784245991.718410,0.008313492,-0.116731390,-0.019907629,0.001805923,0.001034406,0.001299673,1.139926553,0.063061655,9.732817650
1784245991.720412,0.008312620,-0.116731308,-0.019907631,0.001528691,0.001171646,0.001498178,1.144279003,0.088994846,9.732538223
1784245991.722414,0.008312620,-0.116731308,-0.019907631,0.001012431,0.000504701,0.001042304,1.156766653,0.083369300,9.745067596
1784245991.724414,0.008312620,-0.116731308,-0.019907631,0.000745578,0.000002096,0.000313146,1.144896865,0.066512160,9.742707253
1784245991.726422,0.008312345,-0.116731532,-0.019907627,0.000901355,0.000314265,0.000093178,1.128548503,0.086559176,9.725334167
1784245991.728418,0.008312345,-0.116731532,-0.019907627,0.001118351,0.000160364,0.000292009,1.113647819,0.079120837,9.727066040
1784245991.730442,0.008312133,-0.116730280,-0.019907638,0.001418226,-0.000188043,0.000562128,1.123715401,0.095943734,9.737495422
1784245991.732445,0.008312133,-0.116730280,-0.019907638,0.001121219,0.000356332,0.000654223,1.136023164,0.073499173,9.721221924
1784245991.734427,0.008312133,-0.116730280,-0.019907638,-0.000124324,0.000837437,0.000485476,1.164606929,0.099538065,9.725452423
1784245991.736429,0.008312806,-0.116731070,-0.019907631,-0.000782821,0.000684354,-0.000145315,1.160164356,0.101972081,9.706186295
1784245991.738426,0.008312806,-0.116731070,-0.019907631,-0.001082991,0.000427681,-0.000731726,1.143451691,0.094423197,9.726743698
1784245991.740430,0.008312916,-0.116731800,-0.019907627,-0.001083480,0.000504015,-0.000453086,1.162896752,0.105902471,9.715627670
1784245991.742437,0.008312916,-0.116731800,-0.019907627,-0.000543017,0.000479803,0.000075247,1.145502090,0.079090640,9.736958504
1784245991.744443,0.008312916,-0.116731800,-0.019907627,-0.000135675,-0.000074416,-0.000120493,1.143852949,0.090395339,9.725373268
1784245991.746441,0.008313627,-0.116733007,-0.019907618,0.000360442,-0.000496538,-0.000551703,1.126670003,0.078626983,9.710038185
1784245991.748441,0.008313627,-0.116733007,-0.019907618,0.000580712,-0.000496098,-0.000936550,1.108764052,0.084457852,9.741441727
1784245991.750443,0.008313326,-0.116730548,-0.019907638,0.000054009,-0.000506256,-0.001236109,1.145297647,0.098450929,9.724081039
1784245991.752441,0.008313326,-0.116730548,-0.019907638,-0.000080653,-0.000736758,-0.000733110,1.148563504,0.071127005,9.717185020
1784245991.754442,0.008313326,-0.116730548,-0.019907638,0.000055669,-0.000873751,0.000049056,1.147245884,0.075016916,9.739624977
1784245991.756445,0.008312793,-0.116731383,-0.019907631,0.000193454,-0.000775531,0.000547813,1.135105014,0.074562028,9.762475014
1784245991.758447,0.008312793,-0.116731383,-0.019907631,0.000311388,-0.000705496,0.001127794,1.136074424,0.079983301,9.754441261
1784245991.760448,0.008311979,-0.116730496,-0.019907638,-0.000521386,-0.000408477,0.001207230,1.132987142,0.082066581,9.719032288
1784245991.762450,0.008311979,-0.116730496,-0.019907638,-0.001706459,-0.000255538,0.000884738,1.088419795,0.071354054,9.730578423
1784245991.764512,0.008311979,-0.116730496,-0.019907638,-0.002086851,-0.000635198,0.000629785,1.140846133,0.064845175,9.732380867
1784245991.766465,0.008311567,-0.116730094,-0.019907642,-0.001818612,-0.000752564,-0.000059642,1.165825009,0.052815821,9.740845680
1784245991.768477,0.008311567,-0.116730094,-0.019907642,-0.001326177,-0.000226417,-0.001027350,1.126159430,0.110465959,9.707103729
1784245991.770473,0.008313071,-0.116729394,-0.019907648,-0.000855958,0.000495888,-0.001441420,1.136568904,0.120360211,9.746182442
1784245991.772478,0.008313071,-0.116729394,-0.019907648,-0.000681432,0.000677812,-0.001077334,1.136601567,0.086674698,9.757622719
1784245991.774468,0.008313071,-0.116729394,-0.019907648,-0.000356177,0.000718763,-0.000902556,1.130935907,0.061829578,9.733247757
1784245991.776476,0.008312259,-0.116728887,-0.019907655,-0.000023957,0.001022537,-0.001585885,1.142818093,0.079188742,9.727990150
1784245991.778502,0.008312259,-0.116728887,-0.019907655,0.000173929,0.000593902,-0.001690235,1.158423185,0.107688218,9.724602699
1784245991.780475,0.008313417,-0.116729930,-0.019907646,0.000603281,0.000058154,-0.001044973,1.161201596,0.079254702,9.748632431
1784245991.782468,0.008313417,-0.116729930,-0.019907646,0.000578638,0.000264592,-0.000427703,1.119284272,0.062093522,9.717099190
1784245991.784472,0.008313417,-0.116729930,-0.019907646,0.000273129,0.000544961,-0.000122175,1.138280034,0.074792050,9.724371910
1784245991.786503,0.008313254,-0.116729662,-0.019907650,0.000775001,0.000744606,-0.000421979,1.147424698,0.088586129,9.721330643
1784245991.788481,0.008313254,-0.116729662,-0.019907650,0.001336730,0.000653387,-0.000551130,1.125241280,0.073128782,9.729728699
1784245991.790476,0.008312955,-0.116728686,-0.019907659,0.000892704,0.000377157,-0.000160341,1.124513268,0.049856450,9.727337837
1784245991.792484,0.008312955,-0.116728686,-0.019907659,0.000100213,0.000288647,0.000178382,1.135132909,0.075998127,9.749482155
1784245991.794486,0.008312955,-0.116728686,-0.019907659,0.000012332,0.000362220,0.000534997,1.137039185,0.082529567,9.709625244
1784245991.796485,0.008312899,-0.116728939,-0.019907659,0.000232533,-0.000002668,0.001027580,1.135653496,0.080611877,9.729786873
1784245991.798489,0.008312899,-0.116728939,-0.019907659,-0.000097403,-0.000548860,0.001004993,1.135483623,0.066709198,9.731938362
1784245991.800489,0.008312000,-0.116728261,-0.019907663,-0.000892127,-0.000487699,0.000484764,1.119679570,0.095204495,9.722691536
1784245991.802485,0.008312000,-0.116728261,-0.019907663,-0.001162018,-0.000214589,0.000450532,1.136346817,0.062780514,9.715774536
1784245991.804486,0.008312000,-0.116728261,-0.019907663,-0.000871553,-0.000006094,0.000949924,1.143478274,0.096253201,9.721376419
1784245991.806491,0.008312854,-0.116728686,-0.019907659,-0.000438533,0.000364818,0.000430759,1.131694555,0.088180408,9.743728638
1784245991.808492,0.008312854,-0.116728686,-0.019907659,0.000204232,0.000723815,-0.000325521,1.146712899,0.068277821,9.743167877
1784245991.810501,0.008312157,-0.116728738,-0.019907657,0.000561139,0.000909232,-0.000010576,1.146069884,0.087319896,9.712802887
1784245991.812510,0.008312157,-0.116728738,-0.019907657,0.000457974,0.000921674,0.000307856,1.134418607,0.091233931,9.750476837
1784245991.814500,0.008312157,-0.116728738,-0.019907657,0.000507971,0.000663274,-0.000093274,1.125402093,0.086151458,9.725329399
1784245991.816497,0.008312779,-0.116728283,-0.019907663,0.000617209,0.000493022,-0.000511640,1.160674334,0.070939995,9.721677780
1784245991.818506,0.008312779,-0.116728283,-0.019907663,0.000099583,0.000391441,-0.000492306,1.154348135,0.107043974,9.759563446
1784245991.820512,0.008313884,-0.116727985,-0.019907665,-0.000281164,0.000080613,-0.000010200,1.141502023,0.083901435,9.760747910
1784245991.822503,0.008313884,-0.116727985,-0.019907665,-0.000486110,-0.000093823,0.000539984,1.162559271,0.079733118,9.741911888
1784245991.824504,0.008313884,-0.116727985,-0.019907665,-0.001048112,-0.000103471,0.000128454,1.134237766,0.075622074,9.740961075
1784245991.826509,0.008313758,-0.116727427,-0.019907666,-0.001276795,-0.000165118,-0.000387980,1.153948069,0.072681345,9.740961075
1784245991.828502,0.008313758,-0.116727427,-0.019907666,-0.000793122,-0.000061023,0.000212465,1.153585911,0.079044394,9.728897095
1784245991.830508,0.008313666,-0.116727754,-0.019907665,-0.000114259,0.000049058,0.000361763,1.151025414,0.053876035,9.744423866
1784245991.832513,0.008313666,-0.116727754,-0.019907665,0.000217487,0.000025778,0.000018394,1.114287496,0.056406409,9.706745148
1784245991.834517,0.008313666,-0.116727754,-0.019907665,0.000183200,-0.000245396,0.000614835,1.126541376,0.068695515,9.720735550
1784245991.836523,0.008312957,-0.116727091,-0.019907672,0.000280986,-0.000751471,0.001246381,1.137954354,0.084684752,9.719952583
1784245991.838524,0.008312957,-0.116727091,-0.019907672,0.000866204,-0.000650842,0.000590675,1.142691374,0.104836382,9.712911606
1784245991.840522,0.008313785,-0.116727069,-0.019907672,0.001282034,0.000036986,-0.000280733,1.144013047,0.065821677,9.715353012
1784245991.842551,0.008313785,-0.116727069,-0.019907672,0.001055414,0.000250361,-0.000033450,1.149201751,0.087613143,9.728948593
1784245991.844527,0.008313785,-0.116727069,-0.019907672,0.000610055,-0.000296907,0.000756094,1.137596965,0.093516171,9.738838196
1784245991.846528,0.008314405,-0.116726778,-0.019907676,0.000447075,-0.000840546,0.001204355,1.137532592,0.087333754,9.726245880
1784245991.848528,0.008314405,-0.116726778,-0.019907676,0.001056829,-0.000898356,0.000866033,1.145193577,0.052743617,9.725132942
1784245991.850528,0.008313105,-0.116727188,-0.019907672,0.001667426,-0.000687841,0.000224102,1.147889376,0.053954434,9.739043236
1784245991.852531,0.008313105,-0.116727188,-0.019907672,0.001497563,-0.000510299,-0.000172174,1.144228101,0.047354136,9.728684425
1784245991.854531,0.008313105,-0.116727188,-0.019907672,0.001101198,-0.000416677,-0.000028244,1.137005091,0.079422452,9.705571175
1784245991.856533,0.008312346,-0.116727792,-0.019907666,0.000901913,-0.000369319,0.000383513,1.146747470,0.069767967,9.722554207
1784245991.858530,0.008312346,-0.116727792,-0.019907666,0.000307116,-0.000201432,0.000268311,1.145421386,0.071564347,9.724358559
1784245991.860534,0.008311746,-0.116728164,-0.019907663,-0.000376676,0.000157784,0.000149206,1.149538755,0.078619547,9.732926369
1784245991.862534,0.008311746,-0.116728164,-0.019907663,-0.000497706,0.000303865,0.000640053,1.113034606,0.102855183,9.729907990
1784245991.864538,0.008311746,-0.116728164,-0.019907663,-0.000428880,-0.000026045,0.001428691,1.114651918,0.126052424,9.741266251
1784245991.866539,0.008313998,-0.116726421,-0.019907678,-0.000288298,-0.000372252,0.001497309,1.115838051,0.075835541,9.744084358
1784245991.868542,0.008313998,-0.116726421,-0.019907678,0.000053331,-0.000423846,0.000700359,1.158832788,0.066540599,9.713579178
1784245991.870547,0.008312998,-0.116727732,-0.019907668,0.000467320,-0.000159551,0.000500821,1.146176934,0.096676201,9.720036507
1784245991.872545,0.008312998,-0.116727732,-0.019907668,0.000261837,0.000088798,0.000950676,1.138026834,0.090930752,9.723578453
1784245991.874547,0.008312998,-0.116727732,-0.019907668,-0.000249202,0.000221719,0.000934564,1.134245515,0.076089107,9.738273621
1784245991.876545,0.008312516,-0.116726860,-0.019907678,-0.000221510,0.000407444,0.000400455,1.153100610,0.077544108,9.751752853
1784245991.878545,0.008312516,-0.116726860,-0.019907678,0.000448090,0.000427081,0.000120060,1.139356256,0.091186590,9.748238564
1784245991.880549,0.008312849,-0.116727084,-0.019907676,0.000610329,0.000409562,-0.000193210,1.143553853,0.104144812,9.745637894
1784245991.882552,0.008312849,-0.116727084,-0.019907676,0.000311550,0.000135846,-0.001163664,1.155669928,0.066812597,9.744064331
1784245991.884549,0.008312849,-0.116727084,-0.019907676,0.000150362,0.000099048,-0.002068204,1.136458755,0.073795125,9.741848946
1784245991.886553,0.008311048,-0.116727151,-0.019907676,0.000180881,0.000586646,-0.001749253,1.131298661,0.092656218,9.745102882
1784245991.888553,0.008311048,-0.116727151,-0.019907676,0.000435780,0.000880811,-0.000776747,1.127384424,0.064607851,9.726985931
1784245991.890560,0.008310608,-0.116726339,-0.019907683,0.000204392,0.000886382,-0.000521407,1.120919704,0.087460622,9.738335609
1784245991.892555,0.008310608,-0.116726339,-0.019907683,-0.000308219,0.000805261,-0.000516934,1.144712567,0.088464819,9.743295670
1784245991.894558,0.008310608,-0.116726339,-0.019907683,-0.000428368,0.000813881,-0.000260171,1.124291778,0.105456449,9.721864700
1784245991.896561,0.008311391,-0.116726547,-0.019907681,-0.000408653,0.000693342,-0.000127813,1.135194540,0.080538146,9.740993500
1784245991.898562,0.008311391,-0.116726547,-0.019907681,-0.000378158,0.000285356,-0.000683015,1.130131841,0.107055925,9.738468170
1784245991.900563,0.008312459,-0.116725333,-0.019907687,-0.000389891,0.000169165,-0.001194830,1.117319345,0.087017328,9.744156837
1784245991.902568,0.008312459,-0.116725333,-0.019907687,-0.001011103,0.000446352,-0.000790412,1.143169165,0.071523122,9.734218597
1784245991.904564,0.008312459,-0.116725333,-0.019907687,-0.001230935,0.000412334,-0.000587001,1.160765052,0.078545786,9.723071098
1784245991.906572,0.008311724,-0.116727211,-0.019907674,-0.000471806,0.000020533,-0.000908750,1.153073668,0.072874077,9.715406418
1784245991.908574,0.008311724,-0.116727211,-0.019907674,-0.000189675,-0.000226192,-0.001107252,1.152353168,0.051282302,9.728717804
1784245991.910572,0.008309716,-0.116727650,-0.019907668,-0.000071358,-0.000134337,-0.001358794,1.138186336,0.067567445,9.732395172
1784245991.912574,0.008309716,-0.116727650,-0.019907668,0.000576269,-0.000018481,-0.001703342,1.109209299,0.083209969,9.727087021
1784245991.914576,0.008309716,-0.116727650,-0.019907668,0.000669018,0.000194119,-0.001647348,1.115354896,0.070300773,9.704145432
1784245991.916578,0.008309121,-0.116726011,-0.019907683,0.000463616,0.000312400,-0.001029537,1.161267400,0.083016455,9.723549843
1784245991.918579,0.008309121,-0.116726011,-0.019907683,0.000814832,-0.000110591,-0.000617613,1.143356562,0.086375795,9.724450111
1784245991.920579,0.008309389,-0.116725393,-0.019907687,0.001360851,-0.000507100,-0.001093790,1.141518116,0.083218552,9.730706215
1784245991.922580,0.008309389,-0.116725393,-0.019907687,0.001434403,-0.000614346,-0.001133302,1.159700155,0.101450376,9.717391014
1784245991.924581,0.008309389,-0.116725393,-0.019907687,0.000621104,-0.000383228,-0.000168891,1.151058793,0.093350060,9.737953186
1784245991.926585,0.008309814,-0.116726108,-0.019907683,-0.000148941,0.000057816,0.000408546,1.131729245,0.090480618,9.735225677
1784245991.928586,0.008309814,-0.116726108,-0.019907683,0.000267201,0.000265673,-0.000000259,1.120516777,0.054695863,9.747090340
1784245991.930591,0.008307970,-0.116724432,-0.019907692,0.001291363,0.000158770,-0.000533037,1.135479212,0.067484289,9.748980522
1784245991.932589,0.008307970,-0.116724432,-0.019907692,0.001820327,0.000117794,-0.000686626,1.159930229,0.083913736,9.725794792
1784245991.934592,0.008307970,-0.116724432,-0.019907692,0.001266868,0.000258953,-0.000618534,1.139457583,0.098471627,9.731698036
1784245991.936595,0.008308770,-0.116723672,-0.019907702,0.000319933,0.000311659,-0.000245141,1.146712065,0.067461394,9.731954575
1784245991.938596,0.008308770,-0.116723672,-0.019907702,-0.000152753,0.000365712,0.000027304,1.151104212,0.095732942,9.717793465
1784245991.940597,0.008310338,-0.116724052,-0.019907698,-0.000277653,0.000531595,-0.000242516,1.130409002,0.091107994,9.712364197
1784245991.942596,0.008310338,-0.116724052,-0.019907698,-0.000437515,0.000994503,-0.000328970,1.109781384,0.093497783,9.728499413
1784245991.944599,0.008310338,-0.116724052,-0.019907698,-0.000412762,0.001076444,-0.000104319,1.128209472,0.095130235,9.717767715
1784245991.946603,0.008311173,-0.116723441,-0.019907702,-0.000056595,0.000663737,0.000183604,1.152179003,0.073717900,9.724379539
1784245991.948603,0.008311173,-0.116723441,-0.019907702,0.000064150,0.000852219,0.000125080,1.168502808,0.088230073,9.733453751
1784245991.950605,0.008311615,-0.116725124,-0.019907689,-0.000389292,0.001015355,-0.000243202,1.163830876,0.072643891,9.728417397
1784245991.952666,0.008311615,-0.116725124,-0.019907689,-0.000131862,0.000352677,-0.000316342,1.176602125,0.087901190,9.702075958
1784245991.954611,0.008311615,-0.116725124,-0.019907689,0.001081516,-0.000573120,-0.000370463,1.163669229,0.059614863,9.733714104
1784245991.956613,0.008310447,-0.116726264,-0.019907681,0.001491962,-0.001496208,-0.000123198,1.133933067,0.050116912,9.736762047
1784245991.958612,0.008310447,-0.116726264,-0.019907681,0.000852403,-0.002049557,-0.000106362,1.132061243,0.043048833,9.725955963
1784245991.960615,0.008308150,-0.116725639,-0.019907687,0.000562897,-0.001334522,-0.000755504,1.119538069,0.046771239,9.729104996
1784245991.962618,0.008308150,-0.116725639,-0.019907687,0.001011318,-0.000011546,-0.001096518,1.140123725,0.079207338,9.730229378
1784245991.964625,0.008308150,-0.116725639,-0.019907687,0.001076450,0.000285978,-0.000843620,1.151211500,0.104282357,9.712469101
1784245991.966621,0.008309604,-0.116726875,-0.019907676,0.001062902,-0.000108926,-0.000608735,1.154821992,0.106831931,9.725489616
1784245991.968625,0.008309604,-0.116726875,-0.019907676,0.001434018,-0.000239832,-0.000255628,1.148870707,0.097057879,9.724524498
1784245991.970626,0.008310323,-0.116726473,-0.019907681,0.001432532,-0.000333924,0.000271960,1.126259804,0.083394945,9.733382225
1784245991.972662,0.008310323,-0.116726473,-0.019907681,0.001195661,-0.000524372,0.000402523,1.125936627,0.055716753,9.719754219
1784245991.974651,0.008310323,-0.116726473,-0.019907681,0.001131493,-0.000699503,0.000371243,1.139613509,0.073052920,9.714498520
1784245991.976638,0.008308881,-0.116726793,-0.019907678,0.000852228,-0.000608145,0.000277099,1.142961144,0.091261439,9.731205940
1784245991.978628,0.008308881,-0.116726793,-0.019907678,0.000304478,-0.000592429,0.000297945,1.124210715,0.098737046,9.721820831
1784245991.980631,0.008309399,-0.116726108,-0.019907687,-0.000276626,-0.000599784,0.000764033,1.145293355,0.061232608,9.728326797
1784245991.982631,0.008309399,-0.116726108,-0.019907687,-0.000280923,-0.000356453,0.000907054,1.143747807,0.080648303,9.710067749
1784245991.984631,0.008309399,-0.116726108,-0.019907687,0.000200624,-0.000543292,0.000829467,1.133885622,0.083684757,9.741909981
1784245991.986632,0.008309644,-0.116725266,-0.019907694,0.000673951,-0.000971035,0.001150603,1.136160016,0.086331062,9.743721962
1784245991.988631,0.008309644,-0.116725266,-0.019907694,0.000877444,-0.000975130,0.001386036,1.147800326,0.083544701,9.736540794
1784245991.990636,0.008309945,-0.116725117,-0.019907694,0.000669669,-0.000557527,0.001108029,1.135429621,0.099819541,9.738427162
1784245991.992657,0.008309945,-0.116725117,-0.019907694,0.000214988,0.000075278,0.000690231,1.123365164,0.104425773,9.742480278
1784245991.994650,0.008309945,-0.116725117,-0.019907694,-0.000367423,0.000701413,0.000314183,1.141813993,0.108653761,9.744767189
1784245991.996675,0.008311846,-0.116725333,-0.019907692,-0.000591813,0.001280500,0.000185653,1.134774327,0.083199859,9.745494843
1784245991.998649,0.008311846,-0.116725333,-0.019907692,-0.000395558,0.001623715,0.000543449,1.136349082,0.063203052,9.719364166
1784245992.000644,0.008310908,-0.116725199,-0.019907694,-0.000314146,0.001155658,0.000601431,1.127598524,0.082913846,9.735621452
1784245992.002649,0.008310908,-0.116725199,-0.019907694,-0.000437512,0.000444314,-0.000279325,1.119454741,0.076812662,9.726160049
1784245992.004655,0.008310908,-0.116725199,-0.019907694,-0.000628710,0.000540502,-0.001134307,1.121398568,0.052940220,9.740355492
1784245992.006652,0.008309121,-0.116723478,-0.019907707,-0.000875871,0.000858303,-0.000871404,1.147439361,0.090323910,9.728963852
1784245992.008652,0.008309121,-0.116723478,-0.019907707,-0.000588808,0.000832239,-0.000590316,1.151468992,0.090608858,9.744660378
1784245992.010649,0.008309186,-0.116724491,-0.019907698,-0.000522784,0.000976233,-0.000294607,1.141457438,0.078281447,9.732019424
1784245992.012748,0.008309186,-0.116724491,-0.019907698,-0.000837594,0.000994163,0.000064167,1.122317791,0.089880317,9.710555077
1784245992.014703,0.008309186,-0.116724491,-0.019907698,-0.000255262,0.000643579,-0.000505589,1.157700419,0.086483993,9.746433258
1784245992.016678,0.008309755,-0.116725035,-0.019907691,0.000603688,0.000455603,-0.000937636,1.146933079,0.085821442,9.732968330
1784245992.018674,0.008309755,-0.116725035,-0.019907691,0.000997361,0.000591265,-0.001269279,1.167277813,0.099335045,9.749215126
1784245992.020673,0.008311014,-0.116727337,-0.019907674,0.001156684,0.000549134,-0.001782643,1.139327168,0.087714195,9.732525826
1784245992.022674,0.008311014,-0.116727337,-0.019907674,0.000884871,-0.000075888,-0.001420427,1.140221119,0.087270632,9.730281830
1784245992.024668,0.008311014,-0.116727337,-0.019907674,0.000252369,-0.000545521,-0.000994860,1.139048219,0.102839328,9.748313904
1784245992.026667,0.008312941,-0.116727255,-0.019907676,-0.000328065,-0.000378723,-0.001277903,1.134565830,0.102528356,9.737098694
1784245992.028683,0.008312941,-0.116727255,-0.019907676,-0.000640914,-0.000114516,-0.001465076,1.132012010,0.075790711,9.721233368
1784245992.030684,0.008312121,-0.116727091,-0.019907676,-0.000765980,-0.000287563,-0.000881230,1.149507165,0.077154845,9.749952316
1784245992.032681,0.008312121,-0.116727091,-0.019907676,-0.001128477,-0.000358695,-0.000131096,1.150460958,0.116395168,9.711647987
1784245992.034685,0.008312121,-0.116727091,-0.019907676,-0.001281128,-0.000194175,0.000164025,1.139166832,0.074291252,9.730198860
1784245992.036690,0.008313393,-0.116726957,-0.019907678,-0.001029532,-0.000040135,0.000036800,1.153821468,0.061955709,9.737306595
1784245992.038681,0.008313393,-0.116726957,-0.019907678,-0.000625003,0.000395674,-0.000378660,1.157389641,0.096087702,9.719595909
1784245992.040679,0.008314404,-0.116727985,-0.019907666,-0.000529614,0.000679196,-0.000663773,1.160023689,0.091541789,9.724051476
1784245992.042683,0.008314404,-0.116727985,-0.019907666,-0.001113409,0.000781578,-0.000349590,1.130757332,0.084230199,9.733839989
1784245992.044683,0.008314404,-0.116727985,-0.019907666,-0.001358079,0.000923776,0.000277092,1.131721139,0.089200325,9.726251602
1784245992.046686,0.008315344,-0.116726950,-0.019907678,-0.000832457,0.000859112,0.000517183,1.139217377,0.077122107,9.710041046
1784245992.048705,0.008315344,-0.116726950,-0.019907678,-0.000449741,0.000724004,0.000366663,1.130803227,0.086619459,9.712783813
1784245992.050695,0.008316300,-0.116727494,-0.019907674,-0.000166603,0.000986623,0.000078512,1.139905214,0.096026115,9.696713448
1784245992.052694,0.008316300,-0.116727494,-0.019907674,-0.000090903,0.000871588,0.000155511,1.137249231,0.101613835,9.734854698
1784245992.054692,0.008316300,-0.116727494,-0.019907674,-0.000587103,-0.000034230,0.000206148,1.117692232,0.117113374,9.732692719
1784245992.056700,0.008318167,-0.116725542,-0.019907689,-0.000765400,-0.000584990,-0.000261515,1.133307338,0.109315895,9.729968071
1784245992.058699,0.008318167,-0.116725542,-0.019907689,-0.000183455,-0.000469144,-0.001049486,1.159436226,0.079509825,9.715905190
1784245992.060703,0.008318176,-0.116726525,-0.019907683,0.000744044,-0.000694508,-0.001895218,1.152632475,0.075370461,9.743218422
1784245992.062702,0.008318176,-0.116726525,-0.019907683,0.000637689,-0.001124556,-0.001810028,1.131594300,0.077258006,9.704654694
1784245992.064697,0.008318176,-0.116726525,-0.019907683,-0.000466958,-0.000980659,-0.001115239,1.119791508,0.069035761,9.748078346
1784245992.066703,0.008317128,-0.116725214,-0.019907694,-0.001319790,-0.000317116,-0.000642160,1.132107735,0.085057996,9.741020203
1784245992.068708,0.008317128,-0.116725214,-0.019907694,-0.001342156,0.000375690,-0.000277357,1.145121217,0.082063965,9.697524071
1784245992.070703,0.008317001,-0.116725646,-0.019907691,-0.001036009,0.000554257,-0.000229528,1.132989168,0.082082480,9.716792107
1784245992.072705,0.008317001,-0.116725646,-0.019907691,-0.000941291,0.000418726,-0.000683767,1.148126245,0.110435084,9.734921455
1784245992.074706,0.008317001,-0.116725646,-0.019907691,-0.000726766,0.000373196,-0.001140511,1.143018842,0.097389802,9.751420021
1784245992.076709,0.008317910,-0.116725400,-0.019907692,-0.000770683,0.000286307,-0.001166981,1.155440688,0.083545528,9.722650528
1784245992.078712,0.008317910,-0.116725400,-0.019907692,-0.001255092,0.000191779,-0.001169105,1.134361506,0.084705308,9.723534584
1784245992.080715,0.008318057,-0.116725162,-0.019907694,-0.001701368,0.000011279,-0.000413247,1.129393816,0.083300665,9.741005898
1784245992.082720,0.008318057,-0.116725162,-0.019907694,-0.001827432,-0.000051912,0.000390810,1.131483555,0.068683155,9.713566780
1784245992.084715,0.008318057,-0.116725162,-0.019907694,-0.001842875,0.000156651,0.000418491,1.135223985,0.082797021,9.738317490
1784245992.086718,0.008318422,-0.116724975,-0.019907698,-0.001691498,0.000306611,0.000475007,1.128765345,0.066487379,9.712203979
1784245992.088719,0.008318422,-0.116724975,-0.019907698,-0.001036544,0.000555858,0.000210943,1.152962804,0.063082524,9.706377983
1784245992.090723,0.008318206,-0.116725557,-0.019907691,-0.000288594,0.000646065,-0.000234228,1.172940016,0.083727926,9.728497505
1784245992.092722,0.008318206,-0.116725557,-0.019907691,-0.000328778,0.000088891,-0.000689294,1.150178075,0.093898550,9.725401878
1784245992.094733,0.008318206,-0.116725557,-0.019907691,-0.000809623,-0.000258580,-0.000948989,1.145461082,0.074712798,9.722584724
1784245992.096732,0.008318480,-0.116725601,-0.019907691,-0.000519864,0.000340037,-0.000265925,1.135133147,0.038004704,9.736685753
1784245992.098725,0.008318480,-0.116725601,-0.019907691,0.000125645,0.000842773,0.000341052,1.114644766,0.088001795,9.736537933
1784245992.100729,0.008319530,-0.116724670,-0.019907700,0.000518531,0.000619413,0.000202163,1.135357618,0.093576714,9.734353065
1784245992.102730,0.008319530,-0.116724670,-0.019907700,0.000639583,0.000259713,0.000225986,1.118967652,0.072869420,9.714477539
1784245992.104733,0.008319530,-0.116724670,-0.019907700,0.000640403,0.000286384,0.000280915,1.114543200,0.079903506,9.741418839
1784245992.106735,0.008319355,-0.116723649,-0.019907707,0.001130312,0.000408533,0.000322279,1.134827256,0.086859860,9.734757423
1784245992.108737,0.008319355,-0.116723649,-0.019907707,0.001284911,0.000175934,0.000314196,1.131586552,0.078007653,9.725282669
1784245992.110737,0.008319411,-0.116722710,-0.019907717,0.000945361,-0.000146644,-0.000343129,1.155060530,0.088551961,9.712371826
1784245992.112736,0.008319411,-0.116722710,-0.019907717,0.000809989,-0.000163867,-0.001307991,1.128676176,0.059704367,9.721127510
1784245992.114737,0.008319411,-0.116722710,-0.019907717,0.000440026,-0.000016365,-0.001216143,1.118947864,0.072306983,9.730614662
1784245992.116741,0.008319275,-0.116721503,-0.019907722,-0.000300508,0.000198740,-0.000264842,1.138040066,0.055875942,9.738596916
1784245992.118744,0.008319275,-0.116721503,-0.019907722,-0.000460572,0.000245679,0.000049073,1.159739375,0.069439068,9.745429039
1784245992.120745,0.008319303,-0.116722845,-0.019907713,0.000001473,0.000186406,-0.000173139,1.137247682,0.066037931,9.760181427
1784245992.122748,0.008319303,-0.116722845,-0.019907713,-0.000260675,0.000039251,0.000060591,1.157202363,0.082451716,9.747303963
1784245992.124747,0.008319303,-0.116722845,-0.019907713,-0.000903393,-0.000044969,0.000212219,1.126848817,0.057443045,9.727387428
1784245992.126753,0.008317884,-0.116722658,-0.019907713,-0.001039178,0.000380499,-0.000396153,1.123670101,0.091127455,9.721773148
1784245992.128753,0.008317884,-0.116722658,-0.019907713,-0.000670633,0.000468753,-0.000731527,1.138834000,0.083723269,9.727566719
1784245992.130756,0.008317648,-0.116722368,-0.019907719,-0.000465017,-0.000048339,0.000013667,1.134760976,0.081068173,9.730237007
1784245992.132784,0.008317648,-0.116722368,-0.019907719,-0.000424529,-0.000390957,0.001061999,1.139759421,0.085957937,9.726686478
1784245992.134763,0.008317648,-0.116722368,-0.019907719,-0.000030085,-0.000548402,0.000833942,1.139897346,0.099609442,9.759950638
1784245992.136760,0.008319334,-0.116721362,-0.019907726,0.000238994,-0.000820910,0.000017032,1.128706336,0.101179726,9.748292923
1784245992.138765,0.008319334,-0.116721362,-0.019907726,0.000089686,-0.001090358,-0.000145779,1.140286803,0.055062559,9.722901344
1784245992.140763,0.008318350,-0.116721302,-0.019907724,0.000038382,-0.000981503,-0.000226491,1.158839703,0.067001283,9.711787224
1784245992.142790,0.008318350,-0.116721302,-0.019907724,0.000546504,-0.000550094,0.000042473,1.158481121,0.075419724,9.725739479
1784245992.144765,0.008318350,-0.116721302,-0.019907724,0.000955270,0.000032537,0.000438537,1.150098801,0.088408545,9.741506577
1784245992.146770,0.008318679,-0.116721973,-0.019907720,0.000456306,0.000357352,0.000761348,1.129921317,0.089995235,9.743739128
1784245992.148770,0.008318679,-0.116721973,-0.019907720,-0.000195935,0.000668423,0.001104779,1.144069076,0.072747402,9.749470711
1784245992.150769,0.008318163,-0.116722338,-0.019907719,-0.000234665,0.000966753,0.000633986,1.131109476,0.112137347,9.715189934
1784245992.152775,0.008318163,-0.116722338,-0.019907719,0.000091192,0.000443515,0.000088884,1.161361217,0.092267849,9.745577812
1784245992.154770,0.008318163,-0.116722338,-0.019907719,0.000272623,0.000041072,0.000323390,1.154414177,0.075649165,9.763846397
1784245992.156775,0.008317580,-0.116723150,-0.019907711,-0.000166469,0.000472696,0.000713977,1.131664157,0.083078317,9.705139160
1784245992.158784,0.008317580,-0.116723150,-0.019907711,-0.000902361,0.000738613,0.000835117,1.118933678,0.070168935,9.716253281
1784245992.160777,0.008317173,-0.116722539,-0.019907713,-0.001203895,0.000823578,0.000634305,1.144153595,0.077872112,9.721706390
1784245992.162778,0.008317173,-0.116722539,-0.019907713,-0.001204570,0.001028324,0.000290589,1.144584060,0.114096560,9.730458260
1784245992.164777,0.008317173,-0.116722539,-0.019907713,-0.001459171,0.001177674,0.000454985,1.135498643,0.105633505,9.739809036
1784245992.166782,0.008318162,-0.116722286,-0.019907717,-0.001880910,0.001163359,0.000519529,1.125231981,0.109025471,9.722336769
1784245992.168786,0.008318162,-0.116722286,-0.019907717,-0.001542960,0.000536436,0.000166999,1.137096643,0.089061379,9.736119270
1784245992.170788,0.008318161,-0.116721943,-0.019907719,-0.000572532,0.000162138,-0.000124310,1.187554240,0.065804191,9.702393532
1784245992.172788,0.008318161,-0.116721943,-0.019907719,-0.000347335,0.000383516,-0.000803885,1.144111872,0.073894531,9.714059830
1784245992.174790,0.008318161,-0.116721943,-0.019907719,-0.000405086,0.000149758,-0.001066827,1.153523803,0.073691122,9.725725174
1784245992.176803,0.008317832,-0.116722196,-0.019907719,-0.000036124,-0.000299711,-0.000483053,1.159304023,0.068739682,9.718524933
1784245992.178805,0.008317832,-0.116722196,-0.019907719,0.000216771,-0.000498876,-0.000400075,1.119084358,0.083922170,9.735172272
1784245992.180797,0.008317862,-0.116721831,-0.019907722,0.000353700,-0.000170717,-0.001113292,1.139651418,0.077405341,9.732459068
1784245992.182790,0.008317862,-0.116721831,-0.019907722,0.000345472,0.000158286,-0.001433964,1.139022112,0.064232618,9.758827209
1784245992.184797,0.008317862,-0.116721831,-0.019907722,0.000135577,0.000072300,-0.001037895,1.151459694,0.088508941,9.724921227
1784245992.186800,0.008318198,-0.116722703,-0.019907713,0.000240547,0.000439082,-0.000782665,1.125928521,0.092026442,9.717295647
1784245992.188797,0.008318198,-0.116722703,-0.019907713,0.000717277,0.000848391,-0.000992444,1.144780278,0.093455978,9.734360695
1784245992.190798,0.008318541,-0.116722733,-0.019907713,0.000989327,0.000912394,-0.000984224,1.141003013,0.113805875,9.714761734
1784245992.192803,0.008318541,-0.116722733,-0.019907713,0.000494385,0.000600864,-0.000060690,1.150065184,0.083281025,9.706504822
1784245992.194807,0.008318541,-0.116722733,-0.019907713,-0.000101053,0.000359337,0.000467226,1.141536713,0.083364822,9.710083008
1784245992.196824,0.008318966,-0.116722941,-0.019907713,0.000154472,0.000129262,-0.000338819,1.144775510,0.093824461,9.745571136
1784245992.198903,0.008318966,-0.116722941,-0.019907713,0.000622501,-0.000707798,-0.000857089,1.115769625,0.068811238,9.723863602
1784245992.200833,0.008317620,-0.116721980,-0.019907720,0.000567179,-0.000994530,-0.000385038,1.159214973,0.098736554,9.721856117
1784245992.202823,0.008317620,-0.116721980,-0.019907720,0.000334110,-0.000590688,0.000178576,1.170349240,0.092667595,9.736173630
1784245992.204890,0.008317620,-0.116721980,-0.019907720,-0.000233897,-0.000398425,0.000299133,1.155889511,0.085163102,9.746422768
1784245992.206871,0.008318554,-0.116722830,-0.019907713,-0.001150481,0.000000818,0.000098774,1.152646422,0.074265040,9.709587097
1784245992.208870,0.008318554,-0.116722830,-0.019907713,-0.001474286,0.000376511,0.000188507,1.154042125,0.081122644,9.750878334
1784245992.210863,0.008318949,-0.116723105,-0.019907711,-0.001119058,0.000139738,0.000270023,1.157359958,0.092205495,9.698498726
1784245992.212887,0.008318949,-0.116723105,-0.019907711,-0.000858391,0.000024548,-0.000211825,1.152233124,0.076980829,9.706466675
1784245992.214859,0.008318949,-0.116723105,-0.019907711,-0.001007910,0.000287275,-0.000723921,1.124571085,0.054364681,9.723331451
1784245992.216850,0.008318074,-0.116721965,-0.019907717,-0.001208748,0.000405782,-0.000790648,1.167572498,0.047960646,9.727366447
1784245992.218853,0.008318074,-0.116721965,-0.019907717,-0.000995140,0.000396465,-0.000550391,1.160344362,0.081204310,9.728020668
1784245992.220848,0.008319326,-0.116723083,-0.019907711,-0.000837646,0.000656989,0.000059370,1.148871303,0.096657611,9.717798233
1784245992.222844,0.008319326,-0.116723083,-0.019907711,-0.001430152,0.000726416,0.000826713,1.141684055,0.096686020,9.726757050
1784245992.224849,0.008319326,-0.116723083,-0.019907711,-0.002119052,0.000244108,0.000678316,1.117934108,0.100075573,9.733929634
1784245992.226876,0.008320927,-0.116721950,-0.019907720,-0.002150537,-0.000286555,-0.000368736,1.159788013,0.070633888,9.703293800
1784245992.228879,0.008320927,-0.116721950,-0.019907720,-0.001591989,-0.000391864,-0.001056804,1.163036108,0.080760010,9.722640038
1784245992.230886,0.008320693,-0.116722591,-0.019907713,-0.000619200,0.000116746,-0.001138703,1.140162230,0.081536181,9.717691422
1784245992.232863,0.008320693,-0.116722591,-0.019907713,-0.000321894,0.000853121,-0.001431654,1.135774016,0.090479754,9.728056908
1784245992.234856,0.008320693,-0.116722591,-0.019907713,-0.000634354,0.000945618,-0.001702535,1.165289879,0.079597257,9.693044662
1784245992.236856,0.008320427,-0.116723008,-0.019907711,-0.000508560,0.000375788,-0.001343251,1.140515208,0.037513196,9.733100891
1784245992.238878,0.008320427,-0.116723008,-0.019907711,-0.000234393,0.000068139,-0.001315302,1.128121257,0.051576860,9.730937004
1784245992.240876,0.008318990,-0.116722472,-0.019907713,0.000147580,-0.000066732,-0.001492724,1.112209797,0.071522735,9.727015495
1784245992.242860,0.008318990,-0.116722472,-0.019907713,0.001073962,-0.000178945,-0.000483758,1.112865329,0.090172373,9.749552727
1784245992.244893,0.008318990,-0.116722472,-0.019907713,0.001661065,0.000097029,0.000776619,1.138748646,0.078185581,9.750397682
1784245992.246866,0.008318928,-0.116721697,-0.019907720,0.001407753,0.000723273,0.001064264,1.131997228,0.076486327,9.749483109
1784245992.248863,0.008318928,-0.116721697,-0.019907720,0.000951922,0.001059625,0.000749209,1.127223492,0.088768527,9.732072830
1784245992.250877,0.008318937,-0.116720609,-0.019907728,0.000742298,0.000767786,-0.000205174,1.095035672,0.061041012,9.719758987
1784245992.252869,0.008318937,-0.116720609,-0.019907728,0.000859284,0.000425950,-0.000846568,1.119031906,0.078645207,9.721240997
1784245992.254867,0.008318937,-0.116720609,-0.019907728,0.000885911,-0.000026078,-0.000394399,1.161406875,0.094653912,9.724969864
1784245992.256868,0.008319622,-0.116721377,-0.019907720,0.000613745,-0.000638117,-0.000410021,1.156142592,0.104587577,9.723683357
1784245992.258878,0.008319622,-0.116721377,-0.019907720,0.000367630,-0.000629611,-0.001050760,1.159362435,0.072847642,9.707791328
1784245992.260905,0.008317555,-0.116722487,-0.019907713,0.000124531,0.000221575,-0.001242148,1.156104088,0.064262174,9.723873138
1784245992.262898,0.008317555,-0.116722487,-0.019907713,-0.000001099,0.000553998,-0.001527507,1.150268197,0.066341415,9.757057190
1784245992.264889,0.008317555,-0.116722487,-0.019907713,0.000042767,-0.000086480,-0.001866453,1.133934259,0.050126445,9.735417366
1784245992.266886,0.008315623,-0.116721481,-0.019907720,-0.000448457,-0.000264525,-0.001282212,1.166556358,0.075303525,9.727540016
1784245992.268888,0.008315623,-0.116721481,-0.019907720,-0.000514964,-0.000042035,-0.000095998,1.146570921,0.092994563,9.733015060
1784245992.270883,0.008316305,-0.116721585,-0.019907719,0.000557939,0.000144065,0.000752011,1.150703430,0.100980669,9.736657143
1784245992.272897,0.008316305,-0.116721585,-0.019907719,0.001069889,0.000268973,0.000647216,1.136556745,0.081458166,9.735172272
1784245992.274894,0.008316305,-0.116721585,-0.019907719,0.000680260,0.000009865,0.000296934,1.132275701,0.096921213,9.710609436
1784245992.276891,0.008317150,-0.116721235,-0.019907722,0.000450657,-0.000109472,0.000367163,1.134467483,0.094052076,9.732112885
1784245992.278897,0.008317150,-0.116721235,-0.019907722,0.000451283,0.000287539,0.000457391,1.131779909,0.094528176,9.733010292
1784245992.280896,0.008317939,-0.116720699,-0.019907728,0.000543740,0.000684867,0.000343352,1.126181841,0.075484276,9.711811066
1784245992.282899,0.008317939,-0.116720699,-0.019907728,0.000369801,0.000488395,0.000672376,1.147363663,0.084052458,9.728922844
1784245992.284906,0.008317939,-0.116720699,-0.019907728,0.000166048,-0.000050992,0.001090255,1.156647444,0.072297446,9.727063179
1784245992.286901,0.008316658,-0.116721675,-0.019907719,0.000364179,-0.000247352,0.001017233,1.154507518,0.082870588,9.756270409
1784245992.288897,0.008316658,-0.116721675,-0.019907719,0.000312849,-0.000135081,0.000766579,1.141254187,0.099678040,9.747847557
1784245992.290897,0.008317944,-0.116720788,-0.019907728,0.000078124,0.000005267,0.000186853,1.138128757,0.099029042,9.718698502
1784245992.292907,0.008317944,-0.116720788,-0.019907728,-0.000034863,0.000431534,-0.000341885,1.128674269,0.096468367,9.717777252
1784245992.294913,0.008317944,-0.116720788,-0.019907728,0.000027047,0.000791962,-0.000311366,1.117026567,0.062010981,9.732789040
1784245992.296911,0.008316434,-0.116719238,-0.019907741,0.000395797,0.000976499,0.000126138,1.158921242,0.075344011,9.735603333
1784245992.298909,0.008316434,-0.116719238,-0.019907741,0.000683634,0.001183607,0.000300876,1.136790395,0.064760201,9.751653671
1784245992.300910,0.008315768,-0.116717249,-0.019907758,0.000908001,0.000958113,0.000137268,1.109960794,0.072320223,9.744952202
1784245992.302906,0.008315768,-0.116717249,-0.019907758,0.001106828,0.000721466,0.000017735,1.154475927,0.077352338,9.713195801
1784245992.304914,0.008315768,-0.116717249,-0.019907758,0.001231404,0.000351187,-0.000052427,1.142899513,0.085911341,9.727584839
1784245992.306912,0.008315867,-0.116717964,-0.019907754,0.000991335,-0.000401300,-0.000052599,1.120316386,0.075708091,9.753949165
1784245992.308910,0.008315867,-0.116717964,-0.019907754,0.000132355,-0.000602111,0.000273057,1.144533157,0.109642386,9.726842880
1784245992.310913,0.008317603,-0.116718397,-0.019907748,-0.000724166,-0.000367485,0.000439842,1.141518235,0.085245311,9.760756493
1784245992.312920,0.008317603,-0.116718397,-0.019907748,-0.001131547,-0.000252343,0.000471117,1.126530170,0.107006520,9.751914978
1784245992.314920,0.008317603,-0.116718397,-0.019907748,-0.001737229,-0.000274123,0.000655288,1.133971930,0.089228816,9.718183517
1784245992.316927,0.008318104,-0.116717637,-0.019907754,-0.002252879,-0.000557072,0.000444863,1.134541988,0.101124071,9.745609283
1784245992.318922,0.008318104,-0.116717637,-0.019907754,-0.002304154,-0.000996921,-0.000322977,1.130558014,0.104441896,9.727244377
1784245992.320925,0.008318973,-0.116717033,-0.019907760,-0.002319439,-0.001062386,-0.001404387,1.155067444,0.091442868,9.746911049
1784245992.322926,0.008318973,-0.116717033,-0.019907760,-0.001806126,-0.000922831,-0.001359924,1.156024575,0.093928732,9.710613251
1784245992.324923,0.008318973,-0.116717033,-0.019907760,-0.000947058,-0.000886593,-0.000316225,1.115916610,0.081319176,9.728876114
1784245992.326926,0.008318868,-0.116715558,-0.019907773,-0.000245100,-0.000746267,-0.000656306,1.165722013,0.081891343,9.747756958
1784245992.328938,0.008318868,-0.116715558,-0.019907773,-0.000326578,-0.000383004,-0.001336783,1.131313205,0.093177319,9.734793663
1784245992.330948,0.008319769,-0.116714552,-0.019907787,-0.001055868,-0.000078690,-0.001255688,1.135081172,0.070320889,9.728823662
1784245992.332936,0.008319769,-0.116714552,-0.019907787,-0.001139257,-0.000309817,-0.001523355,1.146886468,0.081402242,9.724423409
1784245992.334934,0.008319769,-0.116714552,-0.019907787,-0.000713491,-0.000470086,-0.000959354,1.147900939,0.092040047,9.738839149
1784245992.336936,0.008320290,-0.116714336,-0.019907784,-0.000849721,-0.000007713,-0.000275191,1.116042972,0.054048214,9.720181465
1784245992.338933,0.008320290,-0.116714336,-0.019907784,-0.001235088,0.000462739,-0.000516619,1.129311800,0.075358182,9.723918915
1784245992.340935,0.008319930,-0.116714552,-0.019907787,-0.001086060,0.000527737,-0.000187911,1.142919660,0.086070329,9.705170631
1784245992.342940,0.008319930,-0.116714552,-0.019907787,-0.000872335,0.000337971,0.000375328,1.148004770,0.100154229,9.731716156
1784245992.344951,0.008319930,-0.116714552,-0.019907787,-0.001167492,0.000207468,0.000315621,1.148633718,0.078570634,9.741441727
1784245992.346944,0.008319862,-0.116715141,-0.019907778,-0.001867816,0.000387397,0.000308990,1.131880879,0.102620080,9.729028702
1784245992.348942,0.008319862,-0.116715141,-0.019907778,-0.001871232,0.000566896,0.000323287,1.144773245,0.090968527,9.706100464
1784245992.350941,0.008320443,-0.116714805,-0.019907780,-0.000750915,0.000777873,-0.000043156,1.144418001,0.063849203,9.739999771
1784245992.352944,0.008320443,-0.116714805,-0.019907780,0.000244521,0.000838310,-0.000093718,1.191255093,0.076362997,9.723088264
1784245992.354946,0.008320443,-0.116714805,-0.019907780,0.000334159,0.000654647,-0.000042572,1.175701737,0.091130719,9.753653526
1784245992.356952,0.008321136,-0.116716422,-0.019907769,0.000007240,0.000941716,-0.000436834,1.140738726,0.092672221,9.725833893
1784245992.358952,0.008321136,-0.116716422,-0.019907769,-0.000266468,0.001152777,-0.000976821,1.112051606,0.093275458,9.692634583
1784245992.360952,0.008321767,-0.116715446,-0.019907776,-0.000345394,0.000817152,-0.001029747,1.160399675,0.086503558,9.738814354
1784245992.362956,0.008321767,-0.116715446,-0.019907776,-0.000563484,0.000859826,-0.000651766,1.124014735,0.083410971,9.735173225
1784245992.364955,0.008321767,-0.116715446,-0.019907776,-0.000971420,0.001236470,-0.000519296,1.145507097,0.078318730,9.719470024
1784245992.366957,0.008321602,-0.116715245,-0.019907776,-0.000913249,0.000931045,-0.000425459,1.144605994,0.079921752,9.747724533
1784245992.368965,0.008321602,-0.116715245,-0.019907776,-0.000765667,0.000436538,-0.000214033,1.146790266,0.074968614,9.747245789
1784245992.370961,0.008321472,-0.116714731,-0.019907782,-0.000910747,0.000150352,0.000048310,1.108959794,0.062597409,9.727850914
1784245992.372966,0.008321472,-0.116714731,-0.019907782,-0.000797078,0.000103156,-0.000030105,1.108409286,0.091284767,9.727138519
1784245992.374968,0.008321472,-0.116714731,-0.019907782,-0.000240375,0.000405981,-0.000138754,1.153990269,0.077065565,9.754440308
1784245992.376964,0.008321374,-0.116715297,-0.019907778,-0.000141848,0.000718232,0.000052897,1.161126852,0.074206315,9.765635490
1784245992.378964,0.008321374,-0.116715297,-0.019907778,-0.000106467,0.000857982,-0.000114915,1.163695931,0.060637973,9.715785980
1784245992.380967,0.008320655,-0.116716087,-0.019907771,0.000498281,0.000919649,-0.000579453,1.164911985,0.051083181,9.734107018
1784245992.382972,0.008320655,-0.116716087,-0.019907771,0.000849756,0.001126420,-0.000736585,1.135836959,0.097056098,9.748272896
1784245992.384969,0.008320655,-0.116716087,-0.019907771,0.000923555,0.001257806,-0.000327948,1.140085697,0.077691749,9.754430771
1784245992.386971,0.008320669,-0.116716221,-0.019907769,0.001030319,0.001297290,0.000240287,1.153582811,0.081045732,9.762534142
1784245992.388979,0.008320669,-0.116716221,-0.019907769,0.001325613,0.001290145,0.000257247,1.134743094,0.079304934,9.726189613
1784245992.390974,0.008320682,-0.116715834,-0.019907774,0.001090309,0.001363785,-0.000055608,1.142616987,0.064227961,9.753001213
1784245992.392978,0.008320682,-0.116715834,-0.019907774,0.000157915,0.001281422,-0.000249382,1.149110675,0.082841009,9.770163536
1784245992.394981,0.008320682,-0.116715834,-0.019907774,-0.000349110,0.000462602,-0.000232032,1.136849999,0.106467664,9.746092796
1784245992.396981,0.008321710,-0.116715916,-0.019907774,-0.000269998,-0.000427718,-0.000057852,1.134024501,0.093292259,9.713726997
1784245992.398985,0.008321710,-0.116715916,-0.019907774,0.000119321,-0.000451351,0.000307720,1.115689635,0.098474637,9.711052895
1784245992.400981,0.008322083,-0.116714656,-0.019907784,0.000371561,0.000086537,0.001100580,1.139330268,0.089359790,9.753159523
1784245992.402987,0.008322083,-0.116714656,-0.019907784,0.000154821,0.000178154,0.001441188,1.159351587,0.110351771,9.726413727
1784245992.404989,0.008322083,-0.116714656,-0.019907784,-0.000004736,-0.000056867,0.001001664,1.157693148,0.083183281,9.706510544
1784245992.406995,0.008322205,-0.116715856,-0.019907776,-0.000224138,0.000119115,0.000015330,1.111806870,0.074727818,9.718069077
1784245992.408991,0.008322205,-0.116715856,-0.019907776,-0.001050933,0.000452056,-0.000630917,1.149723411,0.055456560,9.713499069
1784245992.410991,0.008321637,-0.116716497,-0.019907769,-0.001763827,0.000672922,-0.000307717,1.142941117,0.053109035,9.740825653
1784245992.412992,0.008321637,-0.116716497,-0.019907769,-0.001891444,0.000464190,0.000810832,1.125043631,0.055763230,9.714821815
1784245992.415015,0.008321637,-0.116716497,-0.019907769,-0.001676565,0.000327585,0.001499896,1.152763844,0.048544273,9.734977722
1784245992.417013,0.008320268,-0.116716526,-0.019907769,-0.000699108,0.000605503,0.000651393,1.127584934,0.079968885,9.708703041
1784245992.419002,0.008320268,-0.116716526,-0.019907769,0.000408866,0.000501471,-0.000581572,1.134876847,0.089277729,9.709667206
1784245992.421009,0.008320727,-0.116716787,-0.019907765,0.000451200,0.000017404,-0.001068073,1.125398874,0.085315935,9.716804504
1784245992.423009,0.008320727,-0.116716787,-0.019907765,0.000208119,-0.000479262,-0.000936322,1.154037833,0.078657456,9.719479561
1784245992.425008,0.008320727,-0.116716787,-0.019907765,0.000215294,-0.000484187,-0.000657544,1.109947205,0.070185363,9.730143547
1784245992.427009,0.008320135,-0.116715826,-0.019907776,-0.000173715,-0.000194541,-0.000615916,1.123094559,0.081217647,9.730227470
1784245992.429010,0.008320135,-0.116715826,-0.019907776,-0.000620336,-0.000088111,-0.000857209,1.113756895,0.087276354,9.714116096
1784245992.431011,0.008320467,-0.116714999,-0.019907782,-0.000915366,-0.000393316,-0.000313001,1.148240685,0.081855215,9.721287727
1784245992.433013,0.008320467,-0.116714999,-0.019907782,-0.001044080,-0.000854779,0.000768223,1.128286123,0.065441407,9.734164238
1784245992.435019,0.008320467,-0.116714999,-0.019907782,-0.000517015,-0.000849460,0.000547870,1.132944822,0.079302505,9.729775429
1784245992.437020,0.008320166,-0.116713539,-0.019907795,0.000229967,-0.000880849,-0.000370450,1.121900320,0.093374357,9.724026680
1784245992.439020,0.008320166,-0.116713539,-0.019907795,0.000628912,-0.000816138,-0.000389314,1.137565613,0.089621253,9.719534874
1784245992.441022,0.008320894,-0.116713211,-0.019907799,0.000689402,-0.000228975,-0.000003273,1.116479278,0.090317160,9.722657204
1784245992.443057,0.008320894,-0.116713211,-0.019907799,0.000679362,0.000164681,0.000061055,1.133217216,0.063719861,9.715330124
1784245992.445030,0.008320894,-0.116713211,-0.019907799,0.000707992,0.000310505,-0.000452416,1.144819021,0.057794578,9.708577156
1784245992.447031,0.008320245,-0.116713680,-0.019907793,0.000674956,0.000488207,-0.000645644,1.154853225,0.071110107,9.708223343
1784245992.449081,0.008320245,-0.116713680,-0.019907793,0.000665718,0.000434189,-0.000245853,1.176519632,0.081169054,9.703826904
1784245992.451045,0.008321122,-0.116716526,-0.019907769,0.000785608,0.000376136,-0.000062823,1.148366451,0.092977919,9.732120514
1784245992.453101,0.008321122,-0.116716526,-0.019907769,0.001034989,0.000312880,0.000269223,1.128069758,0.083086163,9.710516930
1784245992.455039,0.008321122,-0.116716526,-0.019907769,0.000982992,0.000465317,0.000836782,1.130515933,0.066114619,9.761520386
1784245992.457035,0.008320512,-0.116714992,-0.019907782,0.000838673,0.000757728,0.001214981,1.145756006,0.061741605,9.718915939
1784245992.459048,0.008320512,-0.116714992,-0.019907782,0.000859444,0.000862722,0.001273471,1.156149387,0.068671823,9.733764648
1784245992.461044,0.008320352,-0.116715342,-0.019907778,0.000550212,0.000927916,0.000792000,1.138073564,0.096973285,9.755896568
1784245992.463058,0.008320352,-0.116715342,-0.019907778,0.000354970,0.000381887,0.000311632,1.139512539,0.102550969,9.724999428
1784245992.465054,0.008320352,-0.116715342,-0.019907778,0.000552387,-0.000309420,0.000267473,1.131495595,0.070805311,9.730167389
1784245992.467053,0.008319599,-0.116715334,-0.019907778,0.000557115,-0.000342334,0.000039136,1.121624231,0.072148494,9.748101234
1784245992.469050,0.008319599,-0.116715334,-0.019907778,0.000254339,-0.000360132,-0.000597005,1.137000084,0.079384290,9.710949898
1784245992.471048,0.008319855,-0.116715610,-0.019907776,-0.000075962,-0.000480131,-0.001025093,1.135166645,0.115475319,9.742562294
1784245992.473054,0.008319855,-0.116715610,-0.019907776,-0.000098637,-0.000392342,-0.000938489,1.145157814,0.087620378,9.735219955
1784245992.475052,0.008319855,-0.116715610,-0.019907776,0.000539642,0.000059648,-0.000727782,1.147821307,0.086143441,9.749112129
1784245992.477054,0.008319511,-0.116715759,-0.019907774,0.001332625,0.000689485,-0.000265208,1.160112739,0.098728247,9.721407890
1784245992.479054,0.008319511,-0.116715759,-0.019907774,0.001433223,0.000540491,0.000230095,1.139992476,0.066013336,9.695623398
1784245992.481062,0.008318830,-0.116715968,-0.019907773,0.000873064,0.000244552,-0.000024895,1.158186197,0.087580830,9.717300415
1784245992.483063,0.008318830,-0.116715968,-0.019907773,0.000179646,0.000304574,-0.000624762,1.151825786,0.045397785,9.738094330
1784245992.485058,0.008318830,-0.116715968,-0.019907773,-0.000583119,0.000024546,-0.000648779,1.130199790,0.075677000,9.740509033
1784245992.487061,0.008318100,-0.116715357,-0.019907778,-0.001465256,-0.000213590,-0.000396208,1.136159897,0.087951198,9.767941475
1784245992.489064,0.008318100,-0.116715357,-0.019907778,-0.001706215,-0.000083864,-0.000462610,1.116529584,0.057988267,9.732313156
1784245992.491065,0.008317481,-0.116714604,-0.019907784,-0.001156629,0.000147811,-0.000671533,1.139997602,0.069294952,9.738236427
1784245992.493065,0.008317481,-0.116714604,-0.019907784,-0.000702177,0.000403119,-0.000353817,1.128579259,0.090044297,9.739254951
1784245992.495080,0.008317481,-0.116714604,-0.019907784,-0.000825741,0.000377246,0.000002097,1.124223351,0.064489119,9.749398232
1784245992.497073,0.008316548,-0.116713390,-0.019907793,-0.000754881,0.000089443,-0.000191162,1.130666018,0.074594460,9.702843666
1784245992.499071,0.008316548,-0.116713390,-0.019907793,0.000024593,0.000233909,-0.000653752,1.146644711,0.098846667,9.729016304
1784245992.501073,0.008317244,-0.116713844,-0.019907789,0.000830410,0.000589127,-0.001079233,1.148359299,0.093327314,9.746020317
1784245992.503073,0.008317244,-0.116713844,-0.019907789,0.001179332,0.000597593,-0.001246549,1.115432620,0.078208268,9.726165771
1784245992.505076,0.008317244,-0.116713844,-0.019907789,0.000669290,0.000179466,-0.001281757,1.127009511,0.071275793,9.735097885
1784245992.507077,0.008316966,-0.116713509,-0.019907791,0.000128884,-0.000611506,-0.000949347,1.132459998,0.075375170,9.715850830
1784245992.509089,0.008316966,-0.116713509,-0.019907791,0.000259566,-0.001070701,-0.000164150,1.137206078,0.059630111,9.716203690
1784245992.511084,0.008316158,-0.116714045,-0.019907787,0.000543228,-0.000722618,0.000303649,1.139216423,0.079545975,9.747267723
1784245992.513081,0.008316158,-0.116714045,-0.019907787,0.000320846,-0.000154447,-0.000004358,1.155767560,0.109632194,9.708024025
1784245992.515082,0.008316158,-0.116714045,-0.019907787,-0.000439530,0.000103919,-0.000230556,1.152221918,0.078108490,9.736959457
1784245992.517087,0.008316034,-0.116714351,-0.019907784,-0.000781034,0.000015762,0.000271377,1.120915055,0.085802317,9.719493866
1784245992.519088,0.008316034,-0.116714351,-0.019907784,-0.000472479,-0.000237449,0.001124261,1.127566099,0.079415999,9.723494530
1784245992.521086,0.008316934,-0.116714261,-0.019907784,0.000207188,-0.000244389,0.001350150,1.123183608,0.087594032,9.715473175
1784245992.523089,0.008316934,-0.116714261,-0.019907784,0.000938068,-0.000302663,0.000973231,1.154677629,0.095966384,9.741559029
1784245992.525089,0.008316934,-0.116714261,-0.019907784,0.001304738,-0.000578646,0.000913707,1.148394346,0.095224090,9.731238365
1784245992.527094,0.008318086,-0.116714552,-0.019907782,0.001464462,-0.000740769,0.000581561,1.136801004,0.101622768,9.734404564
1784245992.529103,0.008318086,-0.116714552,-0.019907782,0.001658578,-0.000548303,-0.000543088,1.140709281,0.089196622,9.710568428
1784245992.531109,0.008318598,-0.116715185,-0.019907776,0.001349673,-0.000206465,-0.001163405,1.147915244,0.092557967,9.728979111
1784245992.533096,0.008318598,-0.116715185,-0.019907776,0.000558870,-0.000297419,-0.000950176,1.109344959,0.096032321,9.750931740
1784245992.535106,0.008318598,-0.116715185,-0.019907776,0.000213456,-0.000779814,-0.000850948,1.133984923,0.056200765,9.763253212
1784245992.537105,0.008317509,-0.116714105,-0.019907787,0.000162255,-0.000919397,-0.000452231,1.130849838,0.056692149,9.762805939
1784245992.539106,0.008317509,-0.116714105,-0.019907787,0.000087321,-0.001059441,0.000289253,1.160097241,0.059800759,9.713985443
1784245992.541112,0.008316793,-0.116715468,-0.019907776,-0.000205134,-0.001498669,0.000466123,1.158926487,0.076602064,9.747715950
1784245992.543149,0.008316793,-0.116715468,-0.019907776,-0.000881118,-0.001252908,0.000146092,1.138368487,0.081568703,9.716345787
1784245992.545122,0.008316793,-0.116715468,-0.019907776,-0.000954749,-0.000930743,-0.000681294,1.125280380,0.075463980,9.716294289
1784245992.547118,0.008316328,-0.116715021,-0.019907780,-0.000252436,-0.001027855,-0.001338839,1.161220074,0.078994364,9.722179413
1784245992.549117,0.008316328,-0.116715021,-0.019907780,0.000259035,-0.000906472,-0.000860037,1.152435303,0.095598064,9.734381676
1784245992.551120,0.008317134,-0.116715647,-0.019907776,0.000415768,-0.000707945,-0.000474861,1.134313822,0.081086628,9.728443146
1784245992.553116,0.008317134,-0.116715647,-0.019907776,0.000712540,-0.000508193,-0.000699118,1.162461519,0.070856579,9.730195999
1784245992.555130,0.008317134,-0.116715647,-0.019907776,0.000911655,-0.000359946,-0.001277691,1.148319244,0.088552363,9.724470139
1784245992.557125,0.008317310,-0.116716363,-0.019907773,0.001017430,-0.000539513,-0.001700839,1.139351606,0.089528292,9.729398727
1784245992.559125,0.008317310,-0.116716363,-0.019907773,0.001293397,-0.000462347,-0.001050877,1.131226182,0.084383428,9.711424828
1784245992.561127,0.008317488,-0.116715975,-0.019907776,0.000915399,-0.000418662,-0.000452014,1.117360115,0.085718319,9.674656868
1784245992.563131,0.008317488,-0.116715975,-0.019907776,-0.000013442,-0.000754012,-0.000632594,1.122966528,0.070479296,9.728363991
1784245992.565165,0.008317488,-0.116715975,-0.019907776,-0.000236031,-0.000787881,-0.000653940,1.141560197,0.086389259,9.725793839
1784245992.567143,0.008317428,-0.116716206,-0.019907776,0.000345254,-0.000552464,-0.000359980,1.139344096,0.087847732,9.713696480
1784245992.569135,0.008317428,-0.116716206,-0.019907776,0.000858112,-0.000419477,0.000106821,1.134364724,0.084730729,9.719947815
1784245992.571142,0.008317286,-0.116716586,-0.019907771,0.000687396,-0.000531722,0.000282383,1.157219887,0.082185000,9.721747398
1784245992.573133,0.008317286,-0.116716586,-0.019907771,0.000256833,-0.000624758,-0.000149877,1.130474210,0.097296782,9.724060059
1784245992.575137,0.008317286,-0.116716586,-0.019907771,0.000144577,-0.000355710,0.000024822,1.149849772,0.068205774,9.747653008
1784245992.577141,0.008316688,-0.116716661,-0.019907771,0.000244326,0.000015225,0.000658802,1.158078313,0.080244958,9.741014481
1784245992.579141,0.008316688,-0.116716661,-0.019907771,0.000443897,0.000214960,0.000651112,1.153505683,0.073548034,9.745899200
1784245992.581143,0.008316183,-0.116717309,-0.019907765,0.000914691,0.000234392,0.000085718,1.155054092,0.090121239,9.743764877
1784245992.583142,0.008316183,-0.116717309,-0.019907765,0.001274394,0.000174932,-0.000091875,1.142020702,0.088905923,9.749124527
1784245992.585145,0.008316183,-0.116717309,-0.019907765,0.001158042,0.000436481,0.000628282,1.137124181,0.091711000,9.741515160
1784245992.587146,0.008316582,-0.116716571,-0.019907771,0.001038467,0.000700827,0.000918592,1.146396041,0.078240454,9.728885651
1784245992.589146,0.008316582,-0.116716571,-0.019907771,0.000857259,0.000447424,0.000640046,1.162578702,0.081912525,9.750443459
1784245992.591150,0.008316670,-0.116716728,-0.019907771,0.000305161,-0.000181078,0.000181262,1.154763937,0.103130579,9.742053986
1784245992.593149,0.008316670,-0.116716728,-0.019907771,0.000143370,-0.000277780,-0.000764324,1.133180380,0.100613855,9.756812096
1784245992.595156,0.008316670,-0.116716728,-0.019907771,0.000884789,0.000489466,-0.001609608,1.116217375,0.069202572,9.731039047
1784245992.597153,0.008316708,-0.116715834,-0.019907780,0.001781052,0.000628141,-0.001830024,1.139189005,0.075276211,9.717650414
1784245992.599156,0.008316708,-0.116715834,-0.019907780,0.002009674,0.000064559,-0.001471469,1.138948321,0.056760367,9.738602638
1784245992.601158,0.008315822,-0.116715856,-0.019907778,0.001723352,-0.000465898,-0.001410223,1.148241043,0.081855200,9.721288681
1784245992.603162,0.008315822,-0.116715856,-0.019907778,0.001694740,-0.000961381,-0.001510342,1.114117622,0.081713825,9.739635468
1784245992.605160,0.008315822,-0.116715856,-0.019907778,0.001712760,-0.000983314,-0.001166136,1.122244716,0.085251249,9.731595993
1784245992.607165,0.008315697,-0.116714127,-0.019907791,0.001276913,-0.000619235,-0.000462685,1.125099182,0.098248981,9.725854874
1784245992.609165,0.008315697,-0.116714127,-0.019907791,0.000539958,-0.000586240,0.000499106,1.163049221,0.082485087,9.732067108
1784245992.611166,0.008315493,-0.116716042,-0.019907774,-0.000107699,-0.000794447,0.001108031,1.121152759,0.105916053,9.725899696
1784245992.613171,0.008315493,-0.116716042,-0.019907774,-0.000234093,-0.000909976,0.000920564,1.159001350,0.080840372,9.718602180
1784245992.615168,0.008315493,-0.116716042,-0.019907774,0.000180464,-0.001016050,0.000531954,1.149193764,0.049959585,9.731396675
1784245992.617168,0.008314469,-0.116716832,-0.019907769,0.000319142,-0.001093113,0.000501322,1.145719886,0.057808526,9.704991341
1784245992.619170,0.008314469,-0.116716832,-0.019907769,0.000168465,-0.001020434,0.000461274,1.143968105,0.100625336,9.735750198
1784245992.621181,0.008315935,-0.116717145,-0.019907765,0.000533266,-0.000541067,0.000507436,1.142541170,0.094329789,9.741538048
1784245992.623178,0.008315935,-0.116717145,-0.019907765,0.001195379,-0.000304675,0.000631324,1.147341847,0.081447363,9.717248917
1784245992.625178,0.008315935,-0.116717145,-0.019907765,0.001039661,-0.000664124,0.000482927,1.128141165,0.089729264,9.721319199
1784245992.627195,0.008316146,-0.116717234,-0.019907765,0.000529885,-0.000795600,0.000356865,1.134340405,0.083726712,9.735185623
1784245992.629182,0.008316146,-0.116717234,-0.019907765,0.000723528,-0.000535827,-0.000002868,1.137585998,0.055840354,9.744423866
1784245992.631187,0.008314976,-0.116716452,-0.019907774,0.000736243,-0.000577308,-0.000573300,1.136036754,0.074417360,9.718090057
1784245992.633188,0.008314976,-0.116716452,-0.019907774,0.000328099,-0.000729574,-0.000899937,1.155254364,0.067485705,9.713132858
1784245992.635216,0.008314976,-0.116716452,-0.019907774,0.000196883,-0.000466078,-0.000846710,1.145922184,0.076022305,9.726629257
1784245992.637202,0.008314244,-0.116717912,-0.019907760,0.000682167,0.000075612,-0.000155198,1.153566599,0.078485154,9.744584084
1784245992.639206,0.008314244,-0.116717912,-0.019907760,0.001072086,0.000592952,0.000818649,1.131822109,0.060108904,9.721581459
1784245992.641199,0.008312592,-0.116717502,-0.019907765,0.000578253,0.000836990,0.001074816,1.119856954,0.109167591,9.712020874
1784245992.643199,0.008312592,-0.116717502,-0.019907765,0.000144236,0.000695569,0.000609669,1.127651572,0.086573839,9.724884987
1784245992.645202,0.008312592,-0.116717502,-0.019907765,0.000205213,0.000337043,0.000179731,1.127174377,0.084733680,9.732494354
1784245992.647199,0.008312195,-0.116716877,-0.019907773,0.000431098,0.000163126,-0.000006337,1.141824603,0.108332984,9.726832390
1784245992.649200,0.008312195,-0.116716877,-0.019907773,0.000470914,0.000322440,0.000401064,1.159425139,0.116200686,9.722863197
1784245992.651203,0.008314022,-0.116717920,-0.019907763,0.000193916,0.000550237,0.000625781,1.150318027,0.105539173,9.726373672
1784245992.653201,0.008314022,-0.116717920,-0.019907763,0.000065487,0.000648044,0.000031045,1.140438557,0.068418719,9.734644890
1784245992.655207,0.008314022,-0.116717920,-0.019907763,0.000190223,0.000825380,-0.000473483,1.123418093,0.069685742,9.713115692
1784245992.657207,0.008313602,-0.116717108,-0.019907771,0.000873200,0.000691657,-0.000101426,1.135858178,0.059228010,9.712165833
1784245992.659209,0.008313602,-0.116717108,-0.019907771,0.001603649,0.000411295,0.000241172,1.147317767,0.080853119,9.737869263
1784245992.661208,0.008313146,-0.116717122,-0.019907771,0.001708503,0.000648623,-0.000319800,1.144670844,0.082867086,9.711428642
1784245992.663208,0.008313146,-0.116717122,-0.019907771,0.001692887,0.000713404,-0.000548692,1.160008073,0.089391008,9.711483955
1784245992.665210,0.008313146,-0.116717122,-0.019907771,0.001533343,0.000560660,-0.000139129,1.134273529,0.076715127,9.713172913
1784245992.667214,0.008313997,-0.116717793,-0.019907765,0.000951277,0.000867728,0.000269135,1.114292622,0.059284575,9.743080139
1784245992.669214,0.008313997,-0.116717793,-0.019907765,0.000616908,0.001053573,0.000710897,1.133258581,0.068504341,9.735534668
1784245992.671215,0.008313331,-0.116717562,-0.019907769,0.000332748,0.000723078,0.000759278,1.136612415,0.085950479,9.733408928
1784245992.673219,0.008313331,-0.116717562,-0.019907769,-0.000577986,0.000475890,0.000143505,1.162176132,0.083904073,9.723107338
1784245992.675218,0.008313331,-0.116717562,-0.019907769,-0.001202472,0.000582607,-0.000177057,1.145673394,0.093816131,9.745123863
1784245992.677222,0.008313654,-0.116718143,-0.019907763,-0.000844919,0.000648822,0.000041939,1.155965447,0.090624481,9.734353065
1784245992.679223,0.008313654,-0.116718143,-0.019907763,-0.000478957,0.000338261,-0.000179445,1.147083759,0.062794782,9.757479668
1784245992.681224,0.008312635,-0.116718516,-0.019907760,-0.000754434,0.000153643,-0.000305246,1.151634812,0.065269634,9.716253281
1784245992.683234,0.008312635,-0.116718516,-0.019907760,-0.000788180,0.000430668,-0.000286022,1.163488388,0.082403027,9.742826462
1784245992.685232,0.008312635,-0.116718516,-0.019907760,-0.000665265,0.000743199,-0.000975187,1.152814627,0.088965096,9.721338272
1784245992.687234,0.008313006,-0.116718709,-0.019907758,-0.000619355,0.000304711,-0.001372706,1.141969204,0.083231889,9.728014946
1784245992.689237,0.008313006,-0.116718709,-0.019907758,-0.000373446,-0.000290987,-0.001013631,1.118263006,0.091018379,9.746872902
1784245992.691236,0.008313206,-0.116717465,-0.019907769,-0.000553031,-0.000433755,-0.000642686,1.120866418,0.082987368,9.737409592
1784245992.693235,0.008313206,-0.116717465,-0.019907769,-0.001026236,-0.000496187,-0.000679649,1.156862974,0.091426231,9.746015549
1784245992.695239,0.008313206,-0.116717465,-0.019907769,-0.001350997,-0.000379559,-0.000759797,1.143010974,0.094085909,9.711945534
1784245992.697242,0.008314023,-0.116717055,-0.019907773,-0.001372040,-0.000318019,-0.000312521,1.147500992,0.095267378,9.726753235
1784245992.699245,0.008314023,-0.116717055,-0.019907773,-0.001170764,-0.000311411,-0.000004606,1.140210152,0.085968085,9.724444389
1784245992.701241,0.008313783,-0.116717495,-0.019907769,-0.001368445,-0.000392438,0.000146474,1.137972713,0.086044520,9.717718124
1784245992.703243,0.008313783,-0.116717495,-0.019907769,-0.001713428,-0.000647179,0.000237073,1.136269450,0.058116477,9.741747856
1784245992.705247,0.008313783,-0.116717495,-0.019907769,-0.001367451,-0.000889984,-0.000219799,1.147746921,0.080288120,9.753558159
1784245992.707253,0.008313807,-0.116717942,-0.019907761,-0.001112032,-0.000743247,-0.000496661,1.157322049,0.054723263,9.739953995
1784245992.709259,0.008313807,-0.116717942,-0.019907761,-0.001432987,-0.000650433,-0.000446511,1.116963625,0.093431242,9.724919319
1784245992.711254,0.008314497,-0.116715454,-0.019907780,-0.001906530,-0.000994768,-0.000322395,1.113881111,0.096362755,9.696241379
1784245992.713255,0.008314497,-0.116715454,-0.019907780,-0.002138496,-0.000902742,-0.000572872,1.139601469,0.073364146,9.733778954
1784245992.715257,0.008314497,-0.116715454,-0.019907780,-0.001829534,-0.000120667,-0.000786702,1.150444269,0.078268193,9.717680931
1784245992.717260,0.008314192,-0.116715729,-0.019907780,-0.001404204,0.000730468,-0.000218517,1.164509892,0.055508118,9.742653847
1784245992.719259,0.008314192,-0.116715729,-0.019907780,-0.001405625,0.001011328,0.000283275,1.140355825,0.060876507,9.724283218
1784245992.721263,0.008313854,-0.116715670,-0.019907778,-0.000993066,0.000978258,0.000521795,1.147636175,0.069283068,9.726138115
1784245992.723263,0.008313854,-0.116715670,-0.019907778,-0.000058813,0.001002217,0.000552415,1.124239564,0.062589534,9.701415062
1784245992.725265,0.008313854,-0.116715670,-0.019907778,0.000220982,0.000718669,0.000464096,1.147623062,0.067557991,9.716713905
1784245992.727268,0.008313263,-0.116716526,-0.019907773,0.000186185,0.000085467,-0.000054294,1.153115630,0.076448239,9.716774940
1784245992.729267,0.008313263,-0.116716526,-0.019907773,-0.000038818,-0.000375654,-0.000107320,1.132151961,0.087027915,9.715926170
1784245992.731280,0.008312782,-0.116716363,-0.019907774,-0.000183854,-0.000482217,0.000577432,1.158816218,0.066410229,9.731959343
1784245992.733274,0.008312782,-0.116716363,-0.019907774,0.000364077,-0.000454914,0.000428024,1.155459881,0.086941600,9.749124527
1784245992.735313,0.008312782,-0.116716363,-0.019907774,0.001019576,-0.000132024,0.000357381,1.139971733,0.067064688,9.736876488
1784245992.737280,0.008312101,-0.116717093,-0.019907769,0.001193715,0.000519123,0.000524375,1.121681690,0.077060163,9.750372887
1784245992.739277,0.008312101,-0.116717093,-0.019907769,0.001044144,0.000388026,0.000064559,1.129761100,0.076165676,9.735580444
1784245992.741322,0.008311629,-0.116716184,-0.019907776,0.000764413,-0.000496271,-0.000491701,1.131863475,0.064893395,9.741786957
1784245992.743322,0.008311629,-0.116716184,-0.019907776,0.000168084,-0.000632926,-0.000786415,1.129386425,0.082026713,9.731135368
1784245992.745292,0.008311629,-0.116716184,-0.019907776,-0.000603302,-0.000047089,-0.000636792,1.126952171,0.103144005,9.727231979
1784245992.747291,0.008313056,-0.116715729,-0.019907780,-0.001113329,0.000180694,-0.000456612,1.119351387,0.069108278,9.738662720
1784245992.749289,0.008313056,-0.116715729,-0.019907780,-0.001090532,0.000001170,-0.000453013,1.143888116,0.056728926,9.734124184
1784245992.751284,0.008311822,-0.116715662,-0.019907780,-0.000349627,-0.000029537,-0.000430632,1.141861320,0.075895973,9.751729965
1784245992.753292,0.008311822,-0.116715662,-0.019907780,0.000623911,-0.000074362,-0.000449867,1.117867112,0.093870893,9.724473953
1784245992.755292,0.008311822,-0.116715662,-0.019907780,0.000624628,-0.000405584,-0.000430564,1.110017419,0.073982067,9.700129509
1784245992.757295,0.008311698,-0.116714455,-0.019907791,-0.000063596,-0.000853890,-0.000671476,1.126211882,0.078152962,9.714517593
1784245992.759298,0.008311698,-0.116714455,-0.019907791,-0.000131338,-0.001168370,-0.000647651,1.141543031,0.084225759,9.715021133
1784245992.761296,0.008311747,-0.116714530,-0.019907789,0.000293577,-0.001006818,-0.000591261,1.134522319,0.096511267,9.701194763
1784245992.763299,0.008311747,-0.116714530,-0.019907789,0.000548257,-0.000977649,-0.000695177,1.137051105,0.083838478,9.714564323
1784245992.765316,0.008311747,-0.116714530,-0.019907789,0.000639728,-0.001157249,-0.000140333,1.133081436,0.053327721,9.727815628
1784245992.767307,0.008310616,-0.116714060,-0.019907793,0.001038938,-0.000573365,0.000539152,1.149731636,0.057546914,9.734583855
1784245992.769306,0.008310616,-0.116714060,-0.019907793,0.001372547,0.000358494,0.000549641,1.135290146,0.086965404,9.719066620
1784245992.771313,0.008311175,-0.116713539,-0.019907799,0.001028529,0.000199371,0.000280904,1.156776071,0.119818874,9.722886086
1784245992.773345,0.008311175,-0.116713539,-0.019907799,0.000284077,-0.000433311,0.000099519,1.154335260,0.104105383,9.731748581
1784245992.775316,0.008311175,-0.116713539,-0.019907799,-0.000122467,-0.000032048,0.000026557,1.146005154,0.083161063,9.730710030
1784245992.777312,0.008310947,-0.116714135,-0.019907793,-0.000346011,0.000365266,0.000335142,1.154555798,0.085682355,9.738804817
1784245992.779363,0.008310947,-0.116714135,-0.019907793,-0.000437236,0.000582158,0.000523548,1.134035945,0.096218146,9.743335724
1784245992.781332,0.008311857,-0.116713449,-0.019907797,-0.000014770,0.000771884,0.000499288,1.152434111,0.094778433,9.723617554
1784245992.783326,0.008311857,-0.116713449,-0.019907797,0.000015240,0.000283785,0.000369373,1.139840126,0.057921052,9.762821198
1784245992.785334,0.008311857,-0.116713449,-0.019907797,-0.000271328,-0.000211241,0.000074894,1.151333928,0.078599744,9.732478142
1784245992.787349,0.008311812,-0.116714656,-0.019907791,0.000065841,-0.000218651,0.000007619,1.142574906,0.061060440,9.757464409
1784245992.789325,0.008311812,-0.116714656,-0.019907791,0.000114197,-0.000112820,-0.000221602,1.117783427,0.086322330,9.715010643
1784245992.791327,0.008311693,-0.116713904,-0.019907797,-0.000268828,-0.000212422,-0.000191666,1.147936344,0.094346635,9.729438782
1784245992.793334,0.008311693,-0.116713904,-0.019907797,-0.000150743,-0.000273367,0.000173822,1.140570283,0.078779064,9.726640701
1784245992.795333,0.008311693,-0.116713904,-0.019907797,0.000226652,-0.000158028,0.000297015,1.152603626,0.071901239,9.727056503
1784245992.797343,0.008311387,-0.116714031,-0.019907795,0.000377172,0.000020321,-0.000100312,1.136038542,0.075646773,9.734238625
1784245992.799345,0.008311387,-0.116714031,-0.019907795,-0.000273113,0.000051884,-0.000626189,1.133866310,0.081101917,9.727098465
1784245992.801445,0.008311004,-0.116713561,-0.019907799,-0.001220329,-0.000033768,-0.000071948,1.140649438,0.087509349,9.758976936
1784245992.803365,0.008311004,-0.116713561,-0.019907799,-0.001782101,0.000099337,0.000513621,1.142164588,0.099768288,9.733502388
1784245992.805374,0.008311004,-0.116713561,-0.019907799,-0.002062752,0.000305126,0.000579977,1.121293068,0.082403295,9.755786896
1784245992.807387,0.008311213,-0.116712146,-0.019907810,-0.001780296,0.000359131,0.000736866,1.145132303,0.086203359,9.745523453
1784245992.809380,0.008311213,-0.116712146,-0.019907810,-0.001197768,0.000141979,0.000922536,1.140774608,0.094981976,9.715985298
1784245992.811358,0.008312480,-0.116710648,-0.019907823,-0.001066222,-0.000372154,0.000910931,1.152705073,0.080806404,9.734735489
1784245992.813378,0.008312480,-0.116710648,-0.019907823,-0.000878065,-0.000655259,0.000505993,1.168366551,0.076618053,9.728446960
1784245992.815369,0.008312480,-0.116710648,-0.019907823,-0.000104039,-0.000455159,0.000340639,1.146759868,0.071080051,9.727046013
1784245992.817361,0.008311732,-0.116711333,-0.019907817,0.000568545,-0.000292451,0.000202395,1.148087740,0.068489507,9.710890770
1784245992.819368,0.008311732,-0.116711333,-0.019907817,0.000588000,-0.000292517,-0.000278810,1.156982780,0.100071043,9.727242470
1784245992.821359,0.008313016,-0.116712198,-0.019907810,0.000112795,-0.000342946,-0.000359644,1.138162971,0.102136157,9.722753525
1784245992.823373,0.008313016,-0.116712198,-0.019907810,-0.000756497,-0.000178487,-0.000021102,1.152312517,0.085714288,9.738353729
1784245992.825362,0.008313016,-0.116712198,-0.019907810,-0.001369630,0.000103870,0.000100098,1.151064873,0.093397759,9.731227875
1784245992.827363,0.008313513,-0.116712302,-0.019907808,-0.001222681,-0.000037050,-0.000101426,1.132027030,0.077938333,9.734249115
1784245992.829369,0.008313513,-0.116712302,-0.019907808,-0.001114225,0.000056385,0.000059741,1.125649691,0.069968231,9.732398987
1784245992.831377,0.008312520,-0.116711423,-0.019907815,-0.000796592,0.000551093,0.000631201,1.139372110,0.092527315,9.748697281
1784245992.833371,0.008312520,-0.116711423,-0.019907815,-0.000078138,0.000693451,0.000523561,1.135756850,0.088722870,9.723114014
1784245992.835369,0.008312520,-0.116711423,-0.019907815,-0.000048587,0.000140385,-0.000191111,1.137786984,0.070394509,9.713582039
1784245992.837372,0.008311625,-0.116712093,-0.019907812,-0.000393846,-0.000691872,-0.000498096,1.146345496,0.075006180,9.742762566
1784245992.839389,0.008311625,-0.116712093,-0.019907812,-0.000550247,-0.000797093,-0.000411907,1.149331808,0.061180875,9.728329659
1784245992.841396,0.008311029,-0.116711594,-0.019907815,-0.000605140,-0.000302059,0.000249869,1.129266143,0.072565481,9.738696098
1784245992.843384,0.008311029,-0.116711594,-0.019907815,-0.000155753,0.000178953,0.000787570,1.109441161,0.101249255,9.710166931
1784245992.845386,0.008311029,-0.116711594,-0.019907815,0.000280573,0.000564411,0.001143544,1.135911822,0.102104485,9.731268883
1784245992.847392,0.008311708,-0.116710834,-0.019907825,0.000034398,0.000579647,0.001671269,1.131898046,0.104376957,9.733969688
1784245992.849389,0.008311708,-0.116710834,-0.019907825,-0.000418722,0.000167030,0.001186428,1.135644913,0.080545120,9.739200592
1784245992.851391,0.008310811,-0.116710611,-0.019907827,-0.000328893,0.000064887,0.000022668,1.132832289,0.070308298,9.734648705
1784245992.853389,0.008310811,-0.116710611,-0.019907827,-0.000334212,0.000135234,-0.000824424,1.154966831,0.081327364,9.720394135
1784245992.855394,0.008310811,-0.116710611,-0.019907827,-0.000761236,-0.000317694,-0.000668776,1.160130620,0.061684825,9.700995445
1784245992.857399,0.008310057,-0.116712041,-0.019907812,-0.000942540,-0.000238276,-0.000029398,1.146093845,0.051944289,9.709886551
1784245992.859398,0.008310057,-0.116712041,-0.019907812,-0.001032976,0.000200656,-0.000139087,1.147804499,0.046799771,9.737202644
1784245992.861396,0.008308802,-0.116712019,-0.019907812,-0.000922439,0.000087305,-0.000347489,1.138648152,0.070906915,9.766042709
1784245992.863396,0.008308802,-0.116712019,-0.019907812,-0.000678553,0.000144638,-0.000119181,1.147264719,0.074759737,9.712724686
1784245992.865395,0.008308802,-0.116712019,-0.019907812,-0.000609903,0.000133692,0.000028620,1.131483793,0.069089778,9.719397545
1784245992.867395,0.008308627,-0.116712213,-0.019907810,-0.000743046,-0.000070851,0.000225165,1.145153165,0.086772159,9.728489876
1784245992.869396,0.008308627,-0.116712213,-0.019907810,-0.000910690,-0.000022323,0.000567904,1.141599059,0.090341419,9.737027168
1784245992.871393,0.008308593,-0.116712287,-0.019907810,-0.000781462,-0.000116672,0.000979728,1.124707222,0.104376733,9.746965408
1784245992.873395,0.008308593,-0.116712287,-0.019907810,-0.000327553,-0.000368943,0.001225132,1.133634210,0.099432737,9.733043671
1784245992.875404,0.008308593,-0.116712287,-0.019907810,0.000041053,-0.000513589,0.000826526,1.154939651,0.115460828,9.708956718
1784245992.877409,0.008309782,-0.116712742,-0.019907806,-0.000180077,-0.000827570,0.000191221,1.153889298,0.104943462,9.740719795
1784245992.879408,0.008309782,-0.116712742,-0.019907806,-0.000144053,-0.001080411,0.000378453,1.117805958,0.088120520,9.714126587
1784245992.881410,0.008309801,-0.116711959,-0.019907817,0.000376939,-0.000710523,0.000284048,1.129413247,0.085073434,9.743707657
1784245992.883420,0.008309801,-0.116711959,-0.019907817,0.000311668,0.000054581,-0.000576949,1.155076742,0.091516010,9.736599922
1784245992.885413,0.008309801,-0.116711959,-0.019907817,-0.000212226,0.000041002,-0.001190063,1.128858209,0.075325772,9.729297638
1784245992.887413,0.008309801,-0.116711557,-0.019907823,-0.000239441,-0.000551010,-0.001260302,1.118409157,0.065523371,9.740432739
1784245992.889415,0.008309801,-0.116711557,-0.019907823,0.000051133,-0.000575302,-0.000713000,1.167864323,0.072553985,9.733799934
1784245992.891422,0.008309479,-0.116712712,-0.019907810,-0.000278702,-0.000444937,-0.000025503,1.127532721,0.076315239,9.718543053
1784245992.893417,0.008309479,-0.116712712,-0.019907810,-0.001042632,-0.000377665,0.000041102,1.112162590,0.103067026,9.701663017
1784245992.895424,0.008309479,-0.116712712,-0.019907810,-0.001325637,-0.000203177,-0.000306383,1.131883144,0.066669352,9.744040489
1784245992.897429,0.008309250,-0.116712652,-0.019907810,-0.000992870,-0.000318189,-0.000180927,1.134868503,0.090427652,9.737021446
1784245992.899426,0.008309250,-0.116712652,-0.019907810,-0.000841671,-0.000508100,-0.000234685,1.130113482,0.104886048,9.728590965
1784245992.901426,0.008309825,-0.116711870,-0.019907817,-0.000420837,-0.000466265,-0.000850007,1.133116603,0.056441195,9.730973244
1784245992.903421,0.008309825,-0.116711870,-0.019907817,-0.000023889,-0.000419316,-0.001207768,1.147668600,0.107937485,9.708901405
1784245992.905423,0.008309825,-0.116711870,-0.019907817,-0.000293402,-0.000129537,-0.001070717,1.146960258,0.086847708,9.714593887
1784245992.907428,0.008310279,-0.116712086,-0.019907817,-0.000487249,0.000350418,-0.000788857,1.146794438,0.073380269,9.718542099
1784245992.909427,0.008310279,-0.116712086,-0.019907817,-0.000270236,0.000425103,-0.000403970,1.141796827,0.068496868,9.721195221
1784245992.911428,0.008309894,-0.116712414,-0.019907812,-0.000204902,0.000246963,-0.000197234,1.136895537,0.073290542,9.749019623
1784245992.913434,0.008309894,-0.116712414,-0.019907812,-0.000369817,0.000463348,-0.000351918,1.119331360,0.102082275,9.701215744
1784245992.915442,0.008309894,-0.116712414,-0.019907812,-0.000365003,0.000475531,-0.000447165,1.134070039,0.096488416,9.705228806
1784245992.917438,0.008309910,-0.116712578,-0.019907812,-0.000654340,0.000180913,-0.000410396,1.127085924,0.114736944,9.734930038
1784245992.919442,0.008309910,-0.116712578,-0.019907812,-0.001060635,0.000309494,-0.000237594,1.143790722,0.124252178,9.752940178
1784245992.921447,0.008311553,-0.116713032,-0.019907808,-0.000940295,0.000487453,0.000087991,1.143168926,0.072333194,9.746329308
1784245992.923441,0.008311553,-0.116713032,-0.019907808,-0.000764698,0.000329820,0.000052938,1.164646149,0.102279887,9.717847824
1784245992.925445,0.008311553,-0.116713032,-0.019907808,-0.000598646,0.000307115,-0.000387215,1.154538274,0.083518863,9.728030205
1784245992.927455,0.008312359,-0.116713844,-0.019907800,-0.000311412,0.000612879,-0.000723854,1.142614722,0.100585334,9.743818283
1784245992.929447,0.008312359,-0.116713844,-0.019907800,-0.000321392,0.000674667,-0.000753715,1.113814116,0.092591457,9.722668648
1784245992.931451,0.008312957,-0.116712436,-0.019907815,-0.000457364,0.000593081,-0.000451446,1.102360964,0.075070761,9.749893188
1784245992.933449,0.008312957,-0.116712436,-0.019907815,-0.000700901,0.000553093,-0.000213316,1.125803947,0.082533404,9.729341507
1784245992.935456,0.008312957,-0.116712436,-0.019907815,-0.000899621,0.000183424,-0.000240341,1.173941135,0.091827430,9.721825600
1784245992.937455,0.008313257,-0.116713636,-0.019907806,-0.000954724,-0.000193731,-0.000441006,1.156680465,0.110958219,9.708930016
1784245992.939452,0.008313257,-0.116713636,-0.019907806,-0.001009654,-0.000144893,-0.000495149,1.100742936,0.089053676,9.739669800
1784245992.941452,0.008313356,-0.116711192,-0.019907827,-0.000905710,-0.000060079,-0.000010587,1.113895416,0.100124143,9.734373093
1784245992.943465,0.008313356,-0.116711192,-0.019907827,-0.000688646,-0.000288246,0.000413228,1.133814335,0.075018071,9.700606346
1784245992.945467,0.008313356,-0.116711192,-0.019907827,-0.000497996,-0.000849135,0.000449049,1.124009967,0.081752680,9.716333389
1784245992.947462,0.008312931,-0.116710536,-0.019907834,-0.000029261,-0.000899981,0.000261039,1.117444038,0.098133683,9.755885124
1784245992.949466,0.008312931,-0.116710536,-0.019907834,0.000248748,-0.000126153,0.000092390,1.151545286,0.059700139,9.743565559
1784245992.951469,0.008312239,-0.116711192,-0.019907828,0.000018019,0.000583914,0.000348745,1.140882730,0.067161299,9.721635818
1784245992.953523,0.008312239,-0.116711192,-0.019907828,-0.000132724,0.001099121,0.000842394,1.137949586,0.085456669,9.737441063
1784245992.955473,0.008312239,-0.116711192,-0.019907828,0.000207149,0.001253715,0.001183445,1.169320941,0.081515051,9.731169701
1784245992.957487,0.008312732,-0.116711780,-0.019907825,0.000632657,0.001059537,0.001249952,1.174137235,0.071186848,9.725728035
1784245992.959480,0.008312732,-0.116711780,-0.019907825,0.000797308,0.000812870,0.001099015,1.115187287,0.057630677,9.721999168
1784245992.961477,0.008311726,-0.116710603,-0.019907834,0.000630955,0.000801355,0.000484091,1.149829984,0.067239910,9.757511139
1784245992.963478,0.008311726,-0.116710603,-0.019907834,-0.000140546,0.000853866,0.000053482,1.136254430,0.056782145,9.740394592
1784245992.965480,0.008311726,-0.116710603,-0.019907834,-0.000997027,0.000584549,0.000513835,1.125359654,0.083384179,9.736519814
1784245992.967478,0.008311401,-0.116709411,-0.019907843,-0.001475938,0.000352785,0.000524297,1.156035900,0.096044533,9.728112221
1784245992.969478,0.008311401,-0.116709411,-0.019907843,-0.001137130,0.000090743,-0.000153477,1.127210617,0.124636598,9.728714943
1784245992.971488,0.008314033,-0.116708443,-0.019907851,-0.000461628,-0.000555640,-0.000504670,1.111773491,0.108810395,9.713805199
1784245992.973483,0.008314033,-0.116708443,-0.019907851,-0.000494396,-0.001022302,-0.000526648,1.118257284,0.089757182,9.735208511
1784245992.975482,0.008314033,-0.116708443,-0.019907851,-0.000727639,-0.000605586,-0.000286050,1.125652194,0.071204007,9.747649193
1784245992.977484,0.008314149,-0.116708107,-0.019907854,-0.000988881,-0.000425915,-0.000292131,1.139953494,0.064488210,9.721168518
1784245992.979487,0.008314149,-0.116708107,-0.019907854,-0.000892652,-0.000620110,-0.000622849,1.144016862,0.068283699,9.747200966
1784245992.981487,0.008313759,-0.116708152,-0.019907854,-0.000330814,-0.000372670,-0.000571997,1.147024274,0.093430407,9.733914375
1784245992.983485,0.008313759,-0.116708152,-0.019907854,-0.000503008,-0.000333677,0.000040996,1.127309918,0.096745983,9.744229317
1784245992.985487,0.008313759,-0.116708152,-0.019907854,-0.001317088,-0.000494510,0.000268784,1.132125616,0.087224685,9.751345634
1784245992.987489,0.008315045,-0.116708510,-0.019907853,-0.001978744,-0.000443961,-0.000376781,1.122818232,0.059581969,9.748918533
1784245992.989496,0.008315045,-0.116708510,-0.019907853,-0.002206215,-0.000231218,-0.000629061,1.129997730,0.058276452,9.730535507
1784245992.991494,0.008313334,-0.116708077,-0.019907858,-0.002027124,0.000238386,0.000110098,1.148704171,0.083990693,9.735200882
1784245992.993498,0.008313334,-0.116708077,-0.019907858,-0.001624669,0.000702111,0.000884351,1.133081198,0.091724589,9.746891022
1784245992.995499,0.008313334,-0.116708077,-0.019907858,-0.001662108,0.000470176,0.001011443,1.160834432,0.085983060,9.748228073
1784245992.997502,0.008314116,-0.116708174,-0.019907854,-0.001908389,0.000000799,0.000578504,1.139371514,0.090900801,9.725372314
1784245992.999501,0.008314116,-0.116708174,-0.019907854,-0.001435603,-0.000204729,0.000355168,1.158435345,0.072220407,9.734684944
1784245993.001506,0.008313545,-0.116709352,-0.019907845,-0.000314404,-0.000311932,0.000699391,1.136834979,0.103106543,9.714689255
1784245993.003508,0.008313545,-0.116709352,-0.019907845,0.000452472,0.000006602,0.000934234,1.160615921,0.066425398,9.726581573
1784245993.005507,0.008313545,-0.116709352,-0.019907845,0.000438920,0.000786015,0.000908884,1.148674250,0.082538709,9.750434875
1784245993.007508,0.008313545,-0.116709352,-0.019907845,0.000250832,0.001589830,0.000873397,1.148674250,0.082538709,9.750434875
1784245993.009515,0.008313172,-0.116709538,-0.019907843,-0.000164200,0.001513425,0.000680949,1.144148588,0.078644030,9.739197731
1784245993.011512,0.008313172,-0.116709538,-0.019907843,-0.000744559,0.000795788,0.000374157,1.144148588,0.078644030,9.739197731
1784245993.013532,0.008313157,-0.116709761,-0.019907843,-0.000531233,0.000624683,0.000388305,1.148961544,0.067480333,9.725232124
1784245993.015598,0.008312959,-0.116709992,-0.019907841,-0.000193693,0.000676513,0.000652610,1.129391670,0.081661433,9.719475746
1784245993.017600,0.008312959,-0.116709992,-0.019907841,-0.000458436,0.000218456,0.000408337,1.119104862,0.087731265,9.766579628
1784245993.019537,0.008313387,-0.116708428,-0.019907854,-0.000109763,-0.000210737,0.000176559,1.113100052,0.110260673,9.759544373
1784245993.021565,0.008313387,-0.116708428,-0.019907854,0.000201292,-0.000131794,0.000623745,1.108178854,0.109628312,9.731290817
1784245993.023533,0.008313387,-0.116708428,-0.019907854,-0.000454613,0.000153877,0.000516141,1.137086391,0.087765202,9.729385376
1784245993.025536,0.008314220,-0.116707452,-0.019907862,-0.000642531,0.000272960,-0.000230200,1.145066142,0.079601586,9.728893280
1784245993.027535,0.008314220,-0.116707452,-0.019907862,-0.000201215,0.000370146,-0.000556303,1.143206716,0.074655682,9.734687805
1784245993.029555,0.008313765,-0.116707675,-0.019907862,0.000119196,0.000333184,-0.000830571,1.116549373,0.059360765,9.728286743
1784245993.031537,0.008313765,-0.116707675,-0.019907862,-0.000013526,-0.000016438,-0.000599509,1.146959782,0.088464692,9.739262581
1784245993.033535,0.008313765,-0.116707675,-0.019907862,-0.000397294,-0.000069935,-0.000448569,1.126555443,0.071643651,9.747203827
1784245993.035543,0.008313148,-0.116707541,-0.019907862,-0.000798586,0.000167262,-0.001131546,1.117214561,0.076463386,9.716292381
1784245993.037546,0.008313148,-0.116707541,-0.019907862,-0.001421425,0.000085657,-0.000656232,1.127066493,0.072940819,9.689827919
1784245993.039546,0.008312764,-0.116706938,-0.019907866,-0.001898202,-0.000213732,0.000699557,1.138903737,0.087920263,9.704280853
1784245993.041540,0.008312764,-0.116706938,-0.019907866,-0.001785659,0.000213394,0.001330525,1.152536392,0.102879889,9.718288422
