time_sec,roll_rad,pitch_rad,yaw_rad,gyro_x,gyro_y,gyro_z,acc_x,acc_y,acc_z
1784246580.036731,0.007201522,-0.109344438,-0.981082261,0.000475689,-0.001132814,0.001756240,1.102345943,0.109299608,9.725007057
1784246580.038723,0.007203440,-0.109351434,-0.981081307,0.000692159,-0.001723358,0.001775176,1.091338396,0.090937644,9.743707657
1784246580.040688,0.007202564,-0.109362088,-0.981079638,0.000487254,-0.002309765,0.001480643,1.090813041,0.083448872,9.726623535
1784246580.042686,0.007199239,-0.109371915,-0.981079996,-0.000025619,-0.002930696,0.001210266,1.071600795,0.090421855,9.725753784
1784246580.044721,0.007206737,-0.109375045,-0.981080294,0.000074375,-0.003099049,0.000835116,1.070048809,0.113030143,9.762659073
1784246580.046729,0.007215283,-0.109382659,-0.981076241,0.000980146,-0.003069897,0.000762562,1.045217991,0.099176958,9.739233971
1784246580.048704,0.007220543,-0.109386586,-0.981071234,0.001711874,-0.003015539,0.001052991,1.090718269,0.114211321,9.748339653
1784246580.050709,0.007219169,-0.109383576,-0.981072903,0.001368316,-0.002172753,0.000978818,1.088963032,0.117789388,9.752395630
1784246580.052730,0.007211845,-0.109383650,-0.981067657,0.000270778,-0.001298331,0.001033199,1.113329053,0.090284280,9.732965469
1784246580.054724,0.007212314,-0.109384999,-0.981065214,-0.000241080,-0.000755972,0.001325471,1.077090025,0.100096732,9.741512299
1784246580.056721,0.007219985,-0.109383278,-0.981064498,0.000364685,-0.000242883,0.001125408,1.103489637,0.092285283,9.721311569
1784246580.058696,0.007224705,-0.109385766,-0.981066465,0.001092175,-0.000230070,0.000635124,1.110528231,0.081356369,9.733353615
1784246580.060731,0.007228210,-0.109392971,-0.981064975,0.001200992,-0.000684838,0.000383012,1.126309037,0.087836415,9.738791466
1784246580.062704,0.007227859,-0.109396525,-0.981062651,0.000971310,-0.001086900,0.000541451,1.112263560,0.114805833,9.751951218
1784246580.064664,0.007237487,-0.109403074,-0.981060207,0.001148429,-0.001293627,0.000675951,1.086949706,0.100688115,9.766632080
1784246580.066667,0.007241043,-0.109402552,-0.981065989,0.001480646,-0.001172886,0.000198110,1.098099947,0.093122996,9.739245415
1784246580.068665,0.007240701,-0.109399654,-0.981070042,0.001222271,-0.000627117,-0.000545377,1.106798649,0.106135011,9.720955849
1784246580.070665,0.007244023,-0.109405786,-0.981074095,0.000831753,-0.000516111,-0.000962555,1.109722495,0.088576585,9.727571487
1784246580.072677,0.007244906,-0.109412290,-0.981068671,0.000701593,-0.001070864,-0.000619896,1.082490206,0.099341691,9.711922646
1784246580.074697,0.007246330,-0.109410986,-0.981066883,0.000592179,-0.001063403,0.000047190,1.099852800,0.126305759,9.732286453
1784246580.076682,0.007239382,-0.109410144,-0.981069684,-0.000077665,-0.000562527,0.000029526,1.097372413,0.107443817,9.742922783
1784246580.078679,0.007235568,-0.109410927,-0.981071949,-0.000820482,-0.000409336,-0.000237651,1.079535007,0.116248637,9.733996391
1784246580.080690,0.007239765,-0.109404378,-0.981075704,-0.000814447,0.000111119,-0.000555502,1.065203428,0.119075879,9.740278244
1784246580.082687,0.007241542,-0.109400630,-0.981065214,-0.000338433,0.000804184,0.000027776,1.096472502,0.143809512,9.734189034
1784246580.084695,0.007251217,-0.109403431,-0.981058002,0.000290998,0.000851620,0.001172661,1.092089653,0.152794436,9.738726616
1784246580.086676,0.007254745,-0.109405152,-0.981056452,0.000801155,0.000511401,0.001390930,1.100674272,0.120426230,9.738527298
1784246580.088685,0.007255237,-0.109407499,-0.981063724,0.000811565,0.000093324,0.000591668,1.092645407,0.087775134,9.745034218
1784246580.090670,0.007261794,-0.109417588,-0.981066942,0.000815643,-0.000605193,-0.000317719,1.081468463,0.090266764,9.729796410
1784246580.092728,0.007265321,-0.109424882,-0.981065869,0.001084992,-0.001444234,-0.000440060,1.110470057,0.076438330,9.731977463
1784246580.094687,0.007265623,-0.109430060,-0.981060863,0.001104292,-0.001571123,0.000050891,1.089982867,0.089665063,9.736077309
1784246580.096682,0.007268532,-0.109426469,-0.981060505,0.001072194,-0.000924876,0.000376482,1.080310941,0.105549663,9.724961281
1784246580.098679,0.007264100,-0.109415099,-0.981060743,0.000678506,0.000343858,0.000292597,1.116439462,0.123945422,9.719286919
1784246580.100681,0.007262133,-0.109411061,-0.981056154,-0.000183754,0.001632203,0.000575585,1.101502299,0.113384083,9.719203949
1784246580.102685,0.007266047,-0.109405555,-0.981059849,-0.000273116,0.002170728,0.000491538,1.127076983,0.114260361,9.738961220
1784246580.104680,0.007274929,-0.109407634,-0.981062412,0.000237773,0.002200274,-0.000130402,1.083809733,0.135487840,9.730089188
1784246580.106678,0.007276765,-0.109410584,-0.981065154,0.000476943,0.001646704,-0.000496635,1.086845517,0.127323896,9.738558769
1784246580.108686,0.007275857,-0.109411456,-0.981064558,0.000394144,0.000938671,-0.000512814,1.059348941,0.118575454,9.758201599
1784246580.110680,0.007280357,-0.109405041,-0.981060505,0.000230850,0.001033083,-0.000052016,1.066964388,0.116759002,9.747885704
1784246580.112691,0.007279895,-0.109401435,-0.981056452,0.000168880,0.001405794,0.000520127,1.048580408,0.119123258,9.763574600
1784246580.114690,0.007282845,-0.109396294,-0.981058240,-0.000040016,0.001501409,0.000556600,1.121557236,0.140313670,9.739570618
1784246580.116692,0.007282182,-0.109392434,-0.981054604,-0.000209990,0.001589478,0.000547140,1.111785769,0.112555876,9.754179001
1784246580.118692,0.007277440,-0.109388016,-0.981050491,-0.000460588,0.001724454,0.000955633,1.096916795,0.106585450,9.738433838
1784246580.120688,0.007270623,-0.109384753,-0.981052279,-0.001310410,0.001921744,0.000963878,1.091713905,0.120649345,9.723275185
1784246580.122685,0.007266368,-0.109379418,-0.981054723,-0.001945906,0.002122409,0.000518881,1.085117221,0.132328510,9.730965614
1784246580.124700,0.007273521,-0.109376132,-0.981056333,-0.001630686,0.002314642,0.000123991,1.100198269,0.117785551,9.732680321
1784246580.126738,0.007275216,-0.109372973,-0.981061816,-0.001022336,0.002308154,-0.000416623,1.057770252,0.097710229,9.733856201
1784246580.128701,0.007280755,-0.109369867,-0.981065929,-0.000327714,0.002103944,-0.001009737,1.102947712,0.122659564,9.735404968
1784246580.130697,0.007289420,-0.109363385,-0.981064022,0.000362028,0.002328193,-0.000952045,1.098891020,0.083761550,9.731117249
1784246580.132735,0.007292046,-0.109355681,-0.981070459,0.000651163,0.002800618,-0.001034996,1.073832273,0.090704359,9.745034218
1784246580.134701,0.007298130,-0.109351166,-0.981079102,0.000788443,0.002897893,-0.001800938,1.089995861,0.093820348,9.781832695
1784246580.136704,0.007294524,-0.109345019,-0.981084883,0.000471283,0.002864818,-0.002287954,1.084846139,0.074767523,9.761084557
1784246580.138703,0.007290280,-0.109339163,-0.981089830,-0.000266139,0.002898299,-0.002336343,1.077817202,0.084962666,9.726171494
1784246580.140733,0.007294055,-0.109335847,-0.981090009,-0.000335275,0.002807544,-0.002028507,1.100411534,0.062121958,9.747117996
1784246580.142707,0.007297274,-0.109338321,-0.981090665,0.000150133,0.002176239,-0.001571876,1.062034369,0.078466721,9.722977638
1784246580.144708,0.007299677,-0.109334812,-0.981089890,0.000484129,0.001590115,-0.001167752,1.034689903,0.081457511,9.729694366
1784246580.146707,0.007292322,-0.109327190,-0.981085956,0.000046923,0.001852113,-0.000491507,1.048108578,0.116107740,9.747414589
1784246580.148716,0.007288910,-0.109322935,-0.981088877,-0.000685709,0.002156765,-0.000215515,1.074505568,0.110707417,9.766235352
1784246580.150713,0.007291990,-0.109319270,-0.981088400,-0.000751634,0.002105330,-0.000286015,1.052002430,0.102353610,9.721327782
1784246580.152719,0.007291268,-0.109319270,-0.981091797,-0.000621855,0.001778288,-0.000392859,1.058303356,0.106069490,9.754533768
1784246580.154724,0.007283020,-0.109310299,-0.981094837,-0.001210579,0.001854502,-0.000650546,1.072775841,0.077302463,9.741361618
1784246580.156720,0.007269360,-0.109303810,-0.981099367,-0.002520709,0.002351396,-0.000819158,1.067542553,0.091937944,9.771936417
1784246580.158718,0.007265213,-0.109300137,-0.981098235,-0.003063223,0.002401401,-0.000690348,1.042158961,0.106753029,9.750487328
1784246580.160717,0.007266629,-0.109290726,-0.981102228,-0.002589330,0.002536787,-0.000648735,1.061794758,0.057933643,9.712533951
1784246580.162790,0.007262710,-0.109284103,-0.981105149,-0.002259345,0.002835340,-0.000906159,1.105578303,0.080091640,9.731099129
1784246580.164746,0.007259525,-0.109279878,-0.981098235,-0.002148697,0.002923589,-0.000336440,1.074545503,0.076675698,9.763328552
1784246580.166739,0.007261012,-0.109274156,-0.981096923,-0.001671538,0.002928053,0.000331616,1.057125330,0.082793362,9.753486633
1784246580.168738,0.007265980,-0.109266818,-0.981100142,-0.000796834,0.003020267,0.000061445,1.044547319,0.080409661,9.733284950
1784246580.170732,0.007274299,-0.109258339,-0.981099904,0.000276341,0.003245511,-0.000260161,1.061387658,0.064347215,9.756510735
1784246580.172733,0.007274065,-0.109251246,-0.981099844,0.000731864,0.003393458,-0.000224279,1.061116338,0.079126135,9.757949829
1784246580.174751,0.007268245,-0.109243855,-0.981099665,0.000068304,0.003439307,-0.000091755,1.068941236,0.093144126,9.725766182
1784246580.176745,0.007261835,-0.109245405,-0.981102705,-0.000855038,0.002884475,-0.000161655,1.064878821,0.091791570,9.734274864
1784246580.178733,0.007255632,-0.109246664,-0.981107652,-0.001533096,0.001906472,-0.000558767,1.062582731,0.088163495,9.744559288
1784246580.180739,0.007249441,-0.109243691,-0.981108308,-0.002041430,0.001571149,-0.000683514,1.032330751,0.111273289,9.762612343
1784246580.182741,0.007244609,-0.109239340,-0.981098533,-0.002210929,0.001714710,0.000202887,1.016300797,0.082563713,9.733271599
1784246580.184753,0.007242746,-0.109229356,-0.981100976,-0.002006640,0.001996748,0.000687664,1.031139851,0.084651940,9.727918625
1784246580.186741,0.007247787,-0.109220952,-0.981102467,-0.001274359,0.002470998,0.000212860,1.010086298,0.088848881,9.742720604
1784246580.188757,0.007246781,-0.109219715,-0.981100917,-0.000655053,0.002453916,0.000135864,1.008710861,0.086203799,9.739115715
1784246580.190748,0.007245469,-0.109216884,-0.981100261,-0.000698363,0.001905610,0.000274572,1.028764009,0.074720629,9.742648125
1784246580.192782,0.007245641,-0.109215803,-0.981106937,-0.000710684,0.001491400,-0.000184038,1.050905585,0.089037202,9.768764496
1784246580.194762,0.007245481,-0.109202959,-0.981103301,-0.000604253,0.001871161,-0.000315581,1.031157017,0.087218873,9.744971275
1784246580.196754,0.007239490,-0.109197423,-0.981102109,-0.000886339,0.002454246,0.000149334,1.044366598,0.066014491,9.741709709
1784246580.198757,0.007239092,-0.109197147,-0.981106043,-0.001098179,0.002180328,-0.000039386,1.009941697,0.077576719,9.752960205
1784246580.200811,0.007237911,-0.109191686,-0.981109440,-0.000964597,0.001781679,-0.000502451,0.983160913,0.090385094,9.764225006
1784246580.202793,0.007236924,-0.109186135,-0.981112421,-0.000899717,0.001851158,-0.000765628,0.982238412,0.086955979,9.744027138
1784246580.204827,0.007234174,-0.109172516,-0.981115580,-0.000939190,0.002244584,-0.000937526,1.041078448,0.088703386,9.707330704
1784246580.206794,0.007238384,-0.109164692,-0.981114447,-0.000587091,0.002687639,-0.000826601,1.025636792,0.074868962,9.727402687
1784246580.208788,0.007245387,-0.109167464,-0.981115401,0.000330567,0.002300860,-0.000676489,1.054930806,0.049266979,9.746543884
1784246580.210773,0.007247068,-0.109165892,-0.981117010,0.000866669,0.001445545,-0.000733006,1.051592827,0.070751511,9.755646706
1784246580.212781,0.007242053,-0.109162040,-0.981110394,0.000501322,0.001276935,-0.000177137,1.020666599,0.072228551,9.729622841
1784246580.214776,0.007236477,-0.109154783,-0.981109798,-0.000250331,0.001446110,0.000427233,0.992761791,0.065427162,9.728206635
1784246580.216775,0.007238235,-0.109153867,-0.981106639,-0.000365492,0.001368360,0.000596300,1.000820279,0.064370520,9.736277580
1784246580.218773,0.007238708,-0.109151907,-0.981101394,-0.000053462,0.001197795,0.000990236,1.005344391,0.067442395,9.737199783
1784246580.220819,0.007235687,-0.109144740,-0.981098115,-0.000131249,0.001292600,0.001314053,1.034792781,0.089158691,9.717639923
1784246580.222789,0.007230724,-0.109139405,-0.981101513,-0.000618177,0.001585615,0.001008960,1.041305661,0.071954541,9.730984688
1784246580.224789,0.007232822,-0.109135717,-0.981100261,-0.000648251,0.001688574,0.000624137,1.040161252,0.052589253,9.746999741
1784246580.226823,0.007232415,-0.109132752,-0.981089532,-0.000258109,0.001609497,0.001264236,0.999682188,0.047082864,9.775171280
1784246580.228802,0.007226343,-0.109129816,-0.981092751,-0.000569710,0.001577865,0.001477015,1.001641035,0.057674576,9.731303215
1784246580.230819,0.007223501,-0.109127700,-0.981103480,-0.001068368,0.001206511,0.000203556,1.020911098,0.056426514,9.746110916
1784246580.232803,0.007222913,-0.109127678,-0.981108069,-0.001071846,0.000734998,-0.000869107,1.040868759,0.072052509,9.717984200
1784246580.234812,0.007218249,-0.109131478,-0.981107354,-0.001168831,0.000189664,-0.000857526,1.008227468,0.083099261,9.735507965
1784246580.236809,0.007212735,-0.109133966,-0.981101632,-0.001496129,-0.000371370,-0.000110286,1.014711857,0.101639189,9.762982368
1784246580.238797,0.007213432,-0.109129861,-0.981098235,-0.001348378,-0.000155042,0.000564530,0.999307632,0.088910535,9.753470421
1784246580.240824,0.007215011,-0.109120622,-0.981096923,-0.000908881,0.000522942,0.000734620,1.021835923,0.096247949,9.752193451
1784246580.242801,0.007208987,-0.109119214,-0.981103241,-0.001113723,0.000828169,0.000260934,1.026501298,0.072976604,9.739945412
1784246580.244804,0.007208723,-0.109113880,-0.981101871,-0.001282783,0.000888745,-0.000085075,1.039562821,0.076844700,9.739533424
1784246580.246803,0.007215503,-0.109117255,-0.981098235,-0.000470477,0.000613371,0.000222174,1.016777754,0.083187155,9.707719803
1784246580.248806,0.007212642,-0.109118678,-0.981094778,-0.000026866,0.000125378,0.000606632,1.011766553,0.079412341,9.743558884
1784246580.250810,0.007210280,-0.109115563,-0.981100202,-0.000404610,0.000050636,0.000363653,0.982667685,0.085580915,9.747605324
1784246580.252815,0.007209684,-0.109115273,-0.981107056,-0.000604569,0.000107799,-0.000534685,1.018510580,0.081457794,9.758820534
1784246580.254816,0.007206968,-0.109113790,-0.981102228,-0.000735173,0.000019080,-0.000503849,1.040064573,0.080905586,9.734627724
1784246580.256806,0.007203176,-0.109110720,-0.981097102,-0.000956725,0.000148713,0.000349880,1.004707932,0.088562109,9.729711533
1784246580.258809,0.007200174,-0.109110959,-0.981099367,-0.001134446,0.000300311,0.000484706,1.021760702,0.087549478,9.715375900
1784246580.260807,0.007202520,-0.109111205,-0.981100082,-0.000978129,-0.000003767,0.000165878,1.031984448,0.080577001,9.732376099
1784246580.262805,0.007201391,-0.109113611,-0.981102526,-0.000739215,-0.000370516,-0.000085047,1.015892625,0.087347582,9.754373550
1784246580.264811,0.007198050,-0.109107785,-0.981107295,-0.001012104,-0.000217448,-0.000500885,1.028962016,0.053689312,9.738477707
1784246580.266814,0.007198561,-0.109107092,-0.981104970,-0.001064665,0.000106594,-0.000495522,1.041534543,0.054408357,9.740736008
1784246580.268860,0.007204897,-0.109106228,-0.981099665,-0.000256219,0.000185878,0.000104567,1.044556141,0.081289679,9.735530853
1784246580.270869,0.007204092,-0.109110720,-0.981093526,0.000255077,-0.000189167,0.000809968,1.025980592,0.069172904,9.771750450
1784246580.272826,0.007209527,-0.109115891,-0.981092632,0.000533366,-0.000873578,0.001032575,1.015817165,0.079862617,9.735942841
1784246580.274824,0.007214043,-0.109115519,-0.981089771,0.001028703,-0.001121781,0.000943877,1.038206100,0.076372653,9.745357513
1784246580.276820,0.007207426,-0.109119825,-0.981086373,0.000594036,-0.001241567,0.001131063,1.041159391,0.060263038,9.737187386
1784246580.278818,0.007204714,-0.109124519,-0.981094182,-0.000229373,-0.001517262,0.000597654,1.028854728,0.081109725,9.726100922
1784246580.280819,0.007208212,-0.109129570,-0.981094718,-0.000197609,-0.001902911,-0.000115888,1.045236111,0.061730061,9.712541580
1784246580.282825,0.007210868,-0.109132662,-0.981090307,0.000277011,-0.002067487,0.000141898,1.041162491,0.059071783,9.715659142
1784246580.284834,0.007209256,-0.109139241,-0.981092274,0.000332696,-0.002273803,0.000256543,1.028906584,0.088410281,9.770531654
1784246580.286831,0.007208641,-0.109145328,-0.981097341,0.000083129,-0.002633201,-0.000275327,1.003021121,0.099164478,9.753988266
1784246580.288834,0.007208179,-0.109148353,-0.981093764,-0.000023331,-0.002538060,-0.000299644,1.025264978,0.081965797,9.738206863
1784246580.290828,0.007211938,-0.109144300,-0.981092453,0.000175349,-0.001916299,0.000101350,1.054228783,0.066624954,9.764139175
1784246580.292853,0.007212430,-0.109146737,-0.981094956,0.000339553,-0.001425019,-0.000021478,1.039879560,0.066882052,9.753815651
1784246580.294837,0.007211525,-0.109149799,-0.981095552,0.000183176,-0.001531465,-0.000222292,1.033449411,0.055255141,9.762253761
1784246580.296839,0.007215197,-0.109151781,-0.981095374,0.000304287,-0.001576541,-0.000205563,1.058604240,0.055959474,9.743900299
1784246580.298846,0.007220186,-0.109154038,-0.981095016,0.000810245,-0.001434001,-0.000173684,1.021685123,0.082494728,9.733275414
1784246580.300843,0.007226365,-0.109157465,-0.981094480,0.001393052,-0.001584460,-0.000151536,1.031018615,0.075184353,9.736376762
1784246580.302840,0.007222771,-0.109165207,-0.981092215,0.001252590,-0.002067176,0.000060192,1.027422428,0.075989529,9.755657196
1784246580.304842,0.007217216,-0.109166496,-0.981090784,0.000301510,-0.002284679,0.000376298,1.032719851,0.068749987,9.756063461
1784246580.306839,0.007218751,-0.109172717,-0.981088758,-0.000046535,-0.002338518,0.000553554,1.019482017,0.086894959,9.748544693
1784246580.308843,0.007221505,-0.109175213,-0.981087506,0.000279648,-0.002293440,0.000593815,1.045487761,0.084385291,9.739586830
1784246580.310843,0.007220260,-0.109171584,-0.981092572,0.000288824,-0.001751282,0.000156272,1.034048319,0.104156040,9.752256393
1784246580.312847,0.007220380,-0.109180741,-0.981087744,0.000145349,-0.001806347,0.000105558,1.060725093,0.119606763,9.736689568
1784246580.314856,0.007227386,-0.109185785,-0.981082618,0.000414645,-0.002250458,0.000716821,1.055691123,0.112003781,9.743808746
1784246580.316853,0.007227308,-0.109188519,-0.981082559,0.000562046,-0.002139488,0.000839531,1.053315043,0.100855775,9.740596771
1784246580.318851,0.007228146,-0.109201252,-0.981086791,0.000429786,-0.002610387,0.000329759,1.079983354,0.078649752,9.727927208
1784246580.320929,0.007232226,-0.109211385,-0.981086314,0.000581673,-0.003406089,-0.000043732,1.070757031,0.096529946,9.750449181
1784246580.322859,0.007233187,-0.109216817,-0.981083751,0.000750932,-0.003485170,0.000138361,1.055454612,0.092306212,9.741889954
1784246580.324865,0.007233667,-0.109221421,-0.981081843,0.000569312,-0.003288278,0.000398310,1.077132583,0.068110861,9.765964508
1784246580.326890,0.007235527,-0.109222792,-0.981084585,0.000458876,-0.002872878,0.000228194,1.083132505,0.079889797,9.736905098
1784246580.328868,0.007239505,-0.109229453,-0.981090009,0.000668173,-0.002642174,-0.000419176,1.053820968,0.069385238,9.754743576
1784246580.330901,0.007233850,-0.109233856,-0.981092572,0.000330617,-0.002631150,-0.000838277,1.053365231,0.106113635,9.757220268
1784246580.332869,0.007226306,-0.109244637,-0.981098473,-0.000695949,-0.002903021,-0.001092232,1.058761477,0.106140055,9.743774414
1784246580.334901,0.007229897,-0.109254286,-0.981098950,-0.001050205,-0.003465968,-0.001170332,1.083109498,0.114461668,9.726814270
1784246580.336878,0.007224410,-0.109254472,-0.981105328,-0.001173792,-0.003157218,-0.001277164,1.073075891,0.101959407,9.738830566
1784246580.338873,0.007218483,-0.109259576,-0.981101096,-0.001641434,-0.002660450,-0.000993040,1.051592588,0.106311537,9.732561111
1784246580.340907,0.007225342,-0.109261781,-0.981096387,-0.001281977,-0.002616300,-0.000100747,1.090794683,0.081682473,9.723026276
1784246580.342883,0.007232147,-0.109264523,-0.981100261,-0.000221308,-0.002426772,-0.000098440,1.091326952,0.052041944,9.731801033
1784246580.344880,0.007239345,-0.109269015,-0.981101394,0.000915220,-0.002181866,-0.000546882,1.076055884,0.051713146,9.742545128
1784246580.346877,0.007241680,-0.109269410,-0.981098831,0.001490640,-0.001841727,-0.000385668,1.075108886,0.082843199,9.714051247
1784246580.348886,0.007241010,-0.109272972,-0.981095850,0.001239829,-0.001606928,0.000091674,1.061810136,0.099291354,9.756287575
1784246580.350883,0.007247798,-0.109275065,-0.981094897,0.001218574,-0.001580838,0.000312499,1.089066863,0.088313594,9.738758087
1784246580.352884,0.007249008,-0.109278612,-0.981094480,0.001312001,-0.001561900,0.000293022,1.078523517,0.108063295,9.752773285
1784246580.354889,0.007249213,-0.109275445,-0.981097221,0.000824218,-0.001162798,0.000063475,1.074723125,0.127015248,9.740785599
1784246580.356881,0.007251943,-0.109279230,-0.981098533,0.000559379,-0.000890256,-0.000230068,1.101053119,0.115006812,9.743871689
1784246580.358888,0.007256403,-0.109280974,-0.981095791,0.000904537,-0.001023492,-0.000119972,1.093868613,0.076250792,9.725235939
1784246580.360887,0.007257446,-0.109283045,-0.981088400,0.001013229,-0.000816681,0.000557408,1.054958820,0.087482974,9.727959633
1784246580.362895,0.007251563,-0.109286815,-0.981086850,0.000385756,-0.000802395,0.001048989,1.089299679,0.070799202,9.744025230
1784246580.364893,0.007250230,-0.109291069,-0.981085062,-0.000217456,-0.001004190,0.001044650,1.095551133,0.105636820,9.748290062
1784246580.366890,0.007251075,-0.109295920,-0.981086314,-0.000223201,-0.001226430,0.000807086,1.061940908,0.108428627,9.731239319
1784246580.368917,0.007252677,-0.109298848,-0.981091678,-0.000045767,-0.001423186,0.000128666,1.060769796,0.086016633,9.734682083
1784246580.370912,0.007255147,-0.109299898,-0.981089175,0.000157389,-0.001370765,-0.000129674,1.054242373,0.103106327,9.737474442
1784246580.372901,0.007253467,-0.109297156,-0.981081486,0.000180949,-0.000940787,0.000586704,1.071297884,0.102926023,9.732109070
1784246580.374907,0.007253650,-0.109300524,-0.981077790,-0.000019100,-0.000625875,0.001216553,1.101547718,0.081420474,9.740518570
1784246580.376922,0.007250547,-0.109303445,-0.981079340,-0.000330359,-0.000786898,0.001059191,1.080912828,0.119722880,9.747020721
1784246580.378905,0.007255274,-0.109300599,-0.981083274,-0.000172586,-0.000580932,0.000387361,1.093918204,0.119095467,9.748822212
1784246580.380903,0.007261745,-0.109296560,-0.981087089,0.000400855,0.000123362,-0.000296814,1.096910477,0.107344635,9.757717133
1784246580.382905,0.007264405,-0.109300092,-0.981087387,0.000704838,0.000204129,-0.000545093,1.098146796,0.096328668,9.729403496
1784246580.384912,0.007276300,-0.109305620,-0.981085002,0.001335157,-0.000301742,-0.000349370,1.080930114,0.083889775,9.745446205
1784246580.386907,0.007277588,-0.109306775,-0.981085002,0.001705610,-0.000507535,-0.000169918,1.104623318,0.075191446,9.728824615
1784246580.388912,0.007275935,-0.109309405,-0.981089890,0.001181184,-0.000628345,-0.000455481,1.090484262,0.056132779,9.725102425
1784246580.390914,0.007276311,-0.109311022,-0.981091797,0.000818309,-0.000643789,-0.000789439,1.093098640,0.051431075,9.751526833
1784246580.392916,0.007276806,-0.109312445,-0.981089413,0.000752676,-0.000570064,-0.000562587,1.085445404,0.086081624,9.744120598
1784246580.394918,0.007276806,-0.109312445,-0.981089413,0.000648956,-0.000607521,-0.000109096,1.085445404,0.086081624,9.744120598
1784246580.396918,0.007273893,-0.109322675,-0.981079042,0.000518076,-0.000706982,0.000347140,1.091911674,0.099614851,9.719553947
1784246580.398919,0.007273893,-0.109322675,-0.981079042,0.000367411,-0.000851614,0.000805376,1.091911674,0.099614851,9.719553947
1784246580.400919,0.007278870,-0.109322555,-0.981081307,0.000279548,-0.000702458,0.000689354,1.099784374,0.157681480,9.730694771
1784246580.402917,0.007295701,-0.109326608,-0.981080770,0.000652115,-0.000434189,0.000227327,1.087152362,0.117281750,9.764048576
1784246580.404924,0.007296085,-0.109330177,-0.981077671,0.000955266,-0.000565409,0.000268064,1.078549504,0.109080039,9.735742569
1784246580.406928,0.007298686,-0.109330289,-0.981077313,0.000922737,-0.000658934,0.000405660,1.104007244,0.099307001,9.741085052
1784246580.408922,0.007298477,-0.109331936,-0.981075883,0.000722018,-0.000400509,0.000399125,1.077282667,0.080237605,9.761560440
1784246580.410945,0.007296115,-0.109330937,-0.981074274,0.000250844,-0.000137522,0.000520626,1.082283258,0.083523139,9.731547356
1784246580.412942,0.007294219,-0.109326705,-0.981074750,-0.000143259,0.000343260,0.000502358,1.082480669,0.102102213,9.764843941
1784246580.414944,0.007294349,-0.109320700,-0.981073260,-0.000263854,0.001033916,0.000455108,1.114287853,0.133616284,9.749383926
1784246580.416934,0.007303316,-0.109317109,-0.981076658,0.000406957,0.001404648,0.000132325,1.070820212,0.100676052,9.734336853
1784246580.418941,0.007309951,-0.109322660,-0.981076181,0.001121526,0.000808880,-0.000197543,1.084229708,0.095232971,9.719519615
1784246580.420939,0.007303677,-0.109324761,-0.981078029,0.000624831,-0.000011473,-0.000224995,1.082494378,0.100996785,9.731210709
1784246580.422946,0.007293228,-0.109323472,-0.981078148,-0.000851513,0.000014345,-0.000153032,1.068514347,0.096971661,9.755382538
1784246580.424949,0.007287335,-0.109316841,-0.981080234,-0.001902457,0.000626973,-0.000115312,1.096454740,0.067679599,9.728769302
1784246580.426971,0.007292441,-0.109310098,-0.981077611,-0.001435437,0.001365740,-0.000048143,1.105675220,0.088961810,9.743709564
1784246580.428948,0.007305868,-0.109311469,-0.981078446,0.000131190,0.001603044,-0.000053093,1.081285238,0.075039275,9.729249954
1784246580.430983,0.007304646,-0.109312952,-0.981089532,0.000744006,0.001210954,-0.000927174,1.085038424,0.090875052,9.763877869
1784246580.432975,0.007298306,-0.109314598,-0.981087744,-0.000114244,0.000739294,-0.001224058,1.075139403,0.087541856,9.746360779
1784246580.434959,0.007298082,-0.109309159,-0.981083095,-0.000555932,0.000873275,-0.000390377,1.053884506,0.110314429,9.732588768
1784246580.436955,0.007301994,-0.109309852,-0.981080174,-0.000100241,0.000962607,0.000200088,1.052729845,0.126026228,9.730446815
1784246580.438957,0.007309552,-0.109309845,-0.981083333,0.000499777,0.000614244,0.000068752,1.072452545,0.122777432,9.710717201
1784246580.440988,0.007308863,-0.109305643,-0.981084466,0.000597451,0.000689550,-0.000260305,1.107945919,0.089959361,9.725337029
1784246580.442969,0.007305186,-0.109301597,-0.981090784,0.000005281,0.001238425,-0.000642735,1.085813284,0.077332869,9.713578224
1784246580.444961,0.007301975,-0.109298073,-0.981098056,-0.000642689,0.001589047,-0.001319089,1.064897418,0.093154535,9.731593132
1784246580.446966,0.007299811,-0.109294489,-0.981093049,-0.000847463,0.001639062,-0.001072402,1.040757656,0.102281138,9.751802444
1784246580.448960,0.007293466,-0.109283283,-0.981089890,-0.001247240,0.002069644,-0.000150771,1.071884751,0.078578345,9.752576828
1784246580.450959,0.007289111,-0.109278463,-0.981093943,-0.001753213,0.002461284,-0.000074989,1.052716136,0.052764941,9.762704849
1784246580.452963,0.007288113,-0.109272815,-0.981104195,-0.001652912,0.002423524,-0.000995636,1.043720841,0.085844390,9.726593018
1784246580.454999,0.007289591,-0.109271228,-0.981110513,-0.001202083,0.002177060,-0.001847454,1.087171793,0.117840998,9.748360634
1784246580.456976,0.007284086,-0.109266937,-0.981114030,-0.001218576,0.001980135,-0.001963190,1.071317434,0.104701966,9.734362602
1784246580.459003,0.007281843,-0.109266944,-0.981112599,-0.001540607,0.001710705,-0.001507142,1.087981820,0.110249147,9.743380547
1784246580.460979,0.007277332,-0.109265693,-0.981108487,-0.001652008,0.001312010,-0.000670397,1.071998596,0.087988719,9.752189636
1784246580.462970,0.007275175,-0.109261543,-0.981105924,-0.001676564,0.001254502,0.000012758,1.066816568,0.066251308,9.730973244
1784246580.464972,0.007277391,-0.109258980,-0.981106758,-0.001276741,0.001300424,0.000132494,1.073981404,0.063611455,9.711236000
1784246580.466972,0.007272589,-0.109257631,-0.981109560,-0.001130648,0.001211552,-0.000124177,1.087816000,0.097188309,9.753160477
1784246580.468975,0.007268212,-0.109252051,-0.981113851,-0.001599400,0.001424107,-0.000491045,1.072646022,0.104544811,9.754089355
1784246580.470981,0.007267787,-0.109251000,-0.981117547,-0.001651590,0.001558385,-0.000848219,1.038896084,0.097319335,9.759840012
1784246580.472981,0.007272210,-0.109248534,-0.981121302,-0.001078920,0.001271860,-0.001145691,1.030916214,0.105076306,9.754501343
1784246580.474984,0.007271248,-0.109241791,-0.981114864,-0.000622938,0.001454488,-0.000674186,1.083217859,0.086237565,9.726186752
1784246580.476987,0.007263414,-0.109235168,-0.981114209,-0.000992715,0.001970648,0.000067460,1.072530985,0.091884620,9.707382202
1784246580.478979,0.007256094,-0.109227389,-0.981120467,-0.001856172,0.002412049,-0.000205170,1.082903624,0.096625917,9.715044022
1784246580.480982,0.007253940,-0.109220274,-0.981120050,-0.002104962,0.002765946,-0.000475201,1.058378696,0.074344337,9.742224693
1784246580.482992,0.007249161,-0.109221451,-0.981121123,-0.002004972,0.002352651,-0.000332223,1.045227051,0.062063556,9.728682518
1784246580.484988,0.007246490,-0.109224632,-0.981124163,-0.001993407,0.001351701,-0.000466736,1.042560101,0.063108437,9.712548256
1784246580.486995,0.007247492,-0.109222591,-0.981123745,-0.001584248,0.000905854,-0.000508356,1.037170768,0.064759418,9.742142677
1784246580.488992,0.007243878,-0.109218039,-0.981122375,-0.001281850,0.001047110,-0.000229192,1.033746958,0.079082943,9.750302315
1784246580.490984,0.007239569,-0.109214902,-0.981122255,-0.001422407,0.001225791,-0.000007923,1.050743818,0.074791469,9.756118774
1784246580.492990,0.007241267,-0.109203808,-0.981122971,-0.001247913,0.001840058,-0.000024112,1.031033158,0.075705439,9.726067543
1784246580.494994,0.007247231,-0.109191179,-0.981124997,-0.000444278,0.002929660,-0.000265926,1.030079603,0.108404770,9.728966713
1784246580.496991,0.007246322,-0.109189130,-0.981124163,0.000007869,0.003130113,-0.000319240,1.058674812,0.098566048,9.737897873
1784246580.498991,0.007247615,-0.109189078,-0.981120825,-0.000124738,0.002450504,0.000069830,1.053251505,0.095896386,9.745048523
1784246580.501016,0.007243889,-0.109181382,-0.981123030,-0.000433765,0.002336796,0.000174533,1.040013194,0.078068368,9.755681038
1784246580.503005,0.007238730,-0.109171845,-0.981131792,-0.001013495,0.002730634,-0.000541379,1.043908834,0.101106860,9.722208977
1784246580.505002,0.007236484,-0.109169208,-0.981133223,-0.001331138,0.002674207,-0.001028556,1.034374833,0.057896432,9.767203331
1784246580.506999,0.007233977,-0.109164193,-0.981134653,-0.001312311,0.002465532,-0.000914649,1.022293329,0.057505507,9.717872620
1784246580.509002,0.007233265,-0.109158374,-0.981141210,-0.001206746,0.002368736,-0.001192251,1.031258702,0.057727184,9.733574867
1784246580.510999,0.007225915,-0.109153010,-0.981144726,-0.001472895,0.002320584,-0.001503213,1.022128820,0.084881037,9.774986267
1784246580.513003,0.007219243,-0.109142497,-0.981138289,-0.002045197,0.002607816,-0.000789856,1.011330247,0.079110034,9.723829269
1784246580.515028,0.007213440,-0.109138839,-0.981136680,-0.002319473,0.002705427,0.000072405,1.017837524,0.099451341,9.749968529
1784246580.517019,0.007209728,-0.109140947,-0.981139958,-0.002344440,0.002076888,0.000010965,1.034976602,0.106819585,9.754067421
1784246580.519011,0.007210876,-0.109134927,-0.981136203,-0.001964753,0.001650048,0.000075322,1.062878132,0.111568771,9.729019165
1784246580.521033,0.007211960,-0.109131053,-0.981136262,-0.001340599,0.001748228,0.000305556,1.027866960,0.074735299,9.742197990
1784246580.523018,0.007212076,-0.109130226,-0.981137931,-0.000889092,0.001444126,0.000092092,1.025744081,0.082605138,9.710415840
1784246580.525012,0.007209926,-0.109128661,-0.981140435,-0.000796612,0.001064034,-0.000209087,1.003693700,0.079544455,9.739516258
1784246580.527035,0.007210161,-0.109127052,-0.981145203,-0.000762779,0.000986712,-0.000626004,1.009489894,0.076746956,9.744436264
1784246580.529019,0.007206465,-0.109125055,-0.981148958,-0.000866659,0.000734222,-0.001003228,1.025178790,0.074801594,9.737712860
1784246580.531066,0.007202386,-0.109121680,-0.981146038,-0.001177303,0.000675494,-0.000736153,1.050119638,0.059633326,9.746606827
1784246580.533035,0.007202397,-0.109114490,-0.981143355,-0.001019436,0.001130111,-0.000141071,1.044958711,0.076461293,9.720706940
1784246580.535038,0.007205653,-0.109111831,-0.981150985,-0.000487368,0.001407448,-0.000465372,1.031013250,0.073926315,9.724262238
1784246580.537034,0.007194611,-0.109111413,-0.981157959,-0.000988593,0.001226519,-0.001264775,1.014442086,0.077624150,9.738168716
1784246580.539027,0.007187806,-0.109106585,-0.981159985,-0.001986812,0.001170770,-0.001396418,1.007732987,0.080312304,9.750285149
1784246580.541048,0.007196415,-0.109105989,-0.981158078,-0.001322592,0.001148386,-0.001038711,1.005911112,0.115278848,9.750956535
1784246580.543030,0.007200490,-0.109105483,-0.981159568,-0.000264767,0.000694133,-0.000815757,1.026390314,0.100775018,9.737433434
1784246580.545045,0.007195364,-0.109104879,-0.981164455,-0.000469807,0.000357839,-0.000997902,1.010617495,0.058388740,9.740732193
1784246580.547036,0.007196396,-0.109099634,-0.981166363,-0.000667524,0.000653461,-0.001145709,1.030056119,0.033850487,9.754042625
1784246580.549034,0.007193311,-0.109096996,-0.981166542,-0.000468118,0.000917452,-0.000981791,1.010582924,0.054875012,9.730845451
1784246580.551035,0.007191225,-0.109094612,-0.981169760,-0.000541820,0.000914468,-0.000917970,0.996899664,0.038298041,9.755385399
1784246580.553040,0.007193479,-0.109088622,-0.981167555,-0.000270583,0.000890018,-0.000744722,1.031898379,0.074222870,9.743993759
1784246580.555042,0.007197178,-0.109087728,-0.981162548,0.000376802,0.000774263,-0.000112893,1.042318702,0.082986280,9.753025055
1784246580.557045,0.007197596,-0.109085657,-0.981163979,0.000578526,0.000766172,0.000130762,1.016448140,0.093048058,9.707783699
1784246580.559040,0.007192588,-0.109083652,-0.981157541,-0.000017377,0.000659187,0.000487037,1.018961191,0.078631118,9.714417458
1784246580.561044,0.007187467,-0.109085329,-0.981152952,-0.000780728,0.000330044,0.001195951,1.041899323,0.083224125,9.720297813
1784246580.563040,0.007188751,-0.109080292,-0.981156111,-0.000880416,0.000341652,0.001010494,1.011466265,0.091532119,9.740945816
1784246580.565053,0.007190733,-0.109078206,-0.981159568,-0.000533051,0.000601221,0.000281746,1.000235200,0.090757675,9.744069099
1784246580.567049,0.007193043,-0.109078579,-0.981158853,-0.000120384,0.000553166,-0.000015533,1.042727590,0.079425447,9.748968124
1784246580.569053,0.007195524,-0.109076984,-0.981155217,0.000231745,0.000370621,0.000254562,1.039176464,0.080990203,9.724315643
1784246580.571088,0.007195431,-0.109073490,-0.981161594,0.000275130,0.000494694,0.000001121,1.008298755,0.089335740,9.740480423
1784246580.573061,0.007196456,-0.109067731,-0.981160283,0.000181935,0.000713416,-0.000345458,1.031923771,0.075639889,9.733690262
1784246580.575057,0.007200419,-0.109066792,-0.981157720,0.000454407,0.000703550,-0.000020681,1.003933907,0.099273808,9.736952782
1784246580.577055,0.007198192,-0.109067813,-0.981164634,0.000416982,0.000504126,-0.000309032,1.022452593,0.072135590,9.739487648
1784246580.579056,0.007195942,-0.109065749,-0.981166840,-0.000081014,0.000239700,-0.000809334,1.017416596,0.064923353,9.754678726
1784246580.581060,0.007199581,-0.109064847,-0.981163740,0.000026303,0.000182120,-0.000540486,1.025627136,0.076009355,9.756103516
1784246580.583063,0.007199429,-0.109059490,-0.981170475,0.000161798,0.000357428,-0.000650212,1.012032628,0.101775415,9.748634338
1784246580.585063,0.007188349,-0.109064966,-0.981172979,-0.000774240,0.000047977,-0.001005003,1.017674327,0.084789447,9.732837677
1784246580.587063,0.007186625,-0.109070122,-0.981167972,-0.001409265,-0.000686808,-0.000471949,1.030871987,0.100269571,9.737433434
1784246580.589071,0.007196430,-0.109064884,-0.981166363,-0.000564033,-0.000642992,0.000048043,1.000580668,0.083047554,9.756572723
1784246580.591063,0.007199339,-0.109063894,-0.981168628,0.000310563,-0.000196673,-0.000093931,1.010931373,0.085183747,9.752560616
1784246580.593071,0.007194790,-0.109063260,-0.981172323,0.000039465,-0.000310170,-0.000453969,1.032696486,0.065728739,9.739904404
1784246580.595073,0.007192331,-0.109065756,-0.981167555,-0.000469127,-0.000626585,-0.000212600,1.047816277,0.091104575,9.735597610
1784246580.597075,0.007194850,-0.109067298,-0.981166601,-0.000116850,-0.000830877,0.000289463,1.060379267,0.090533800,9.730226517
1784246580.599072,0.007205742,-0.109108105,-0.981104732,0.000354778,-0.000899060,0.000464276,1.029650807,0.075164385,9.762677193
1784246580.601072,0.007205698,-0.109109990,-0.981109321,0.000305084,-0.000872164,0.000177064,0.997978210,0.051874828,9.734401703
1784246580.603073,0.007202676,-0.109107718,-0.981114030,0.000040024,-0.000931406,-0.000472231,1.024123073,0.062216122,9.745252609
1784246580.605081,0.007202196,-0.109105431,-0.981114209,-0.000150646,-0.000688371,-0.000654808,1.040280223,0.101251058,9.771522522
1784246580.607080,0.007204819,-0.109105900,-0.981109023,0.000072079,-0.000375102,-0.000154667,1.046831250,0.084752426,9.748558044
1784246580.609080,0.007207493,-0.109104238,-0.981104493,0.000359175,-0.000240112,0.000516241,1.036767244,0.068768203,9.746204376
1784246580.611084,0.007208682,-0.109104849,-0.981105566,0.000424490,-0.000155676,0.000589492,1.038547277,0.068224110,9.756514549
1784246580.613088,0.007205370,-0.109101452,-0.981107414,0.000183367,-0.000124615,0.000245087,1.040784121,0.066117726,9.733636856
1784246580.615089,0.007202948,-0.109109014,-0.981103241,-0.000197142,-0.000570082,0.000370346,1.047146678,0.074373610,9.758354187
1784246580.617089,0.007208130,-0.109112643,-0.981099606,0.000100537,-0.001172667,0.000767841,1.047316194,0.087869689,9.750370979
1784246580.619090,0.007208652,-0.109112874,-0.981097341,0.000467444,-0.001144398,0.000915839,1.046543002,0.098587736,9.756715775
1784246580.621093,0.007207016,-0.109119266,-0.981100142,0.000227278,-0.001313999,0.000642700,1.049368024,0.107706413,9.729429245
1784246580.623091,0.007208954,-0.109117739,-0.981099248,0.000034457,-0.001436804,0.000353438,1.054608703,0.058781657,9.732257843
1784246580.625098,0.007210675,-0.109115534,-0.981095254,0.000170571,-0.000937931,0.000579674,1.051730633,0.081566170,9.746748924
1784246580.627097,0.007212486,-0.109125122,-0.981100380,0.000354495,-0.001184848,0.000326027,1.070014358,0.073546596,9.770476341
1784246580.629097,0.007215600,-0.109136529,-0.981102645,0.000498052,-0.002244133,-0.000296879,1.040272117,0.061570726,9.743919373
1784246580.631097,0.007210157,-0.109135792,-0.981101871,0.000157166,-0.002311805,-0.000296151,1.046354294,0.080482058,9.719836235
1784246580.633109,0.007206461,-0.109134845,-0.981100559,-0.000463730,-0.001638890,-0.000003359,1.070997238,0.041889448,9.746959686
1784246580.635109,0.007214854,-0.109139293,-0.981099248,0.000020549,-0.001500318,0.000137259,1.045583725,0.093652569,9.759373665
1784246580.637146,0.007225126,-0.109143950,-0.981102884,0.001256956,-0.001712228,-0.000193886,1.071740627,0.102469131,9.732555389
1784246580.639120,0.007226142,-0.109143369,-0.981103003,0.001583309,-0.001482205,-0.000469995,1.056807518,0.093559727,9.752210617
1784246580.641139,0.007224407,-0.109148547,-0.981100023,0.001060029,-0.001345748,-0.000130967,1.043926954,0.102466650,9.719975471
1784246580.643120,0.007225181,-0.109147765,-0.981100440,0.000587064,-0.001371345,0.000115170,1.076753378,0.108686879,9.731254578
1784246580.645121,0.007220443,-0.109152578,-0.981101513,0.000008329,-0.001367807,0.000023452,1.053927064,0.077111855,9.739101410
1784246580.647120,0.007216248,-0.109156601,-0.981102705,-0.000614593,-0.001596827,-0.000081077,1.084619045,0.055143088,9.748852730
1784246580.649112,0.007218379,-0.109156996,-0.981108963,-0.000611353,-0.001388176,-0.000551547,1.086525917,0.064111106,9.744429588
1784246580.651120,0.007215112,-0.109161779,-0.981111288,-0.000555122,-0.001290201,-0.000984754,1.062976480,0.083671771,9.745428085
1784246580.653116,0.007218479,-0.109162681,-0.981106937,-0.000445918,-0.001439981,-0.000579392,1.047666907,0.080200888,9.757047653
1784246580.655127,0.007214788,-0.109166212,-0.981105387,-0.000366040,-0.001460760,-0.000012820,1.061288953,0.092241019,9.740549088
1784246580.657127,0.007209437,-0.109170549,-0.981103599,-0.000851334,-0.001595368,0.000290081,1.058176994,0.094536960,9.738319397
1784246580.659128,0.007205068,-0.109170340,-0.981099129,-0.001276101,-0.001549883,0.000709998,1.095148563,0.108438440,9.733063698
1784246580.661122,0.007202952,-0.109172560,-0.981097221,-0.001366984,-0.001375000,0.000998989,1.099056005,0.098032713,9.740174294
1784246580.663125,0.007212612,-0.109179132,-0.981097639,-0.000621742,-0.001541791,0.000793974,1.087921977,0.104914941,9.737518311
1784246580.665135,0.007216345,-0.109181896,-0.981100202,0.000283181,-0.001701095,0.000302003,1.067207456,0.099324122,9.741945267
1784246580.667130,0.007212117,-0.109187618,-0.981094003,0.000199897,-0.001812349,0.000465956,1.071120262,0.089366347,9.749058723
1784246580.669129,0.007207020,-0.109189384,-0.981091022,-0.000475734,-0.001817426,0.001018084,1.088246107,0.095819592,9.755842209
1784246580.671131,0.007203727,-0.109187610,-0.981090248,-0.000943517,-0.001315196,0.001062125,1.066859365,0.105798461,9.714190483
1784246580.673131,0.007207531,-0.109189942,-0.981089711,-0.000777550,-0.000953462,0.000878369,1.092550993,0.078924008,9.729734421
1784246580.675135,0.007210310,-0.109190047,-0.981090665,-0.000259873,-0.000819220,0.000581948,1.095689535,0.078054614,9.720316887
1784246580.677174,0.007203768,-0.109199420,-0.981088221,-0.000431261,-0.001238705,0.000560825,1.085749507,0.072776951,9.724308014
1784246580.679170,0.007204401,-0.109214097,-0.981080532,-0.000638832,-0.002375021,0.001136387,1.066965699,0.079178587,9.740023613
1784246580.681149,0.007203809,-0.109216072,-0.981077850,-0.000386755,-0.002702964,0.001523000,1.053194046,0.054204825,9.748368263
1784246580.683194,0.007202736,-0.109211847,-0.981078744,-0.000263132,-0.001929723,0.001232529,1.030315638,0.056162693,9.766291618
1784246580.685154,0.007204982,-0.109210603,-0.981081963,-0.000025101,-0.001149485,0.000607177,1.069301724,0.087985069,9.757566452
1784246580.687153,0.007202456,-0.109212510,-0.981083453,-0.000071921,-0.000884591,0.000131521,1.090463161,0.091124013,9.719051361
1784246580.689149,0.007199015,-0.109212741,-0.981085300,-0.000540474,-0.000705818,-0.000071344,1.099417925,0.092883170,9.770629883
1784246580.691150,0.007201015,-0.109208360,-0.981083572,-0.000552138,-0.000148265,-0.000035706,1.107909918,0.088053048,9.741463661
1784246580.693151,0.007207374,-0.109214298,-0.981077015,0.000104010,-0.000040236,0.000477049,1.122835994,0.098528527,9.753650665
1784246580.695152,0.007205325,-0.109214596,-0.981080353,0.000271888,-0.000280299,0.000541437,1.080587983,0.091221884,9.723077774
1784246580.697150,0.007207415,-0.109213710,-0.981077254,0.000198953,-0.000163761,0.000373034,1.066086531,0.118546449,9.750138283
1784246580.699156,0.007212746,-0.109216735,-0.981069148,0.000612350,-0.000250425,0.000990264,1.045487285,0.122782156,9.758664131
1784246580.701153,0.007211376,-0.109215014,-0.981066227,0.000679014,-0.000257144,0.001457903,1.070750594,0.131638825,9.727808952
1784246580.703160,0.007214598,-0.109213069,-0.981071532,0.000317977,0.000125785,0.000915544,1.080058455,0.122911446,9.741211891
1784246580.705157,0.007212769,-0.109215416,-0.981079280,-0.000054892,0.000122371,-0.000203379,1.103734612,0.113266312,9.731760025
1784246580.707160,0.007211804,-0.109211668,-0.981087148,-0.000343626,0.000175061,-0.001180688,1.105130553,0.080510356,9.736033440
1784246580.709159,0.007221188,-0.109207049,-0.981092751,0.000193741,0.000816912,-0.001815891,1.105146885,0.081044167,9.723932266
1784246580.711166,0.007228415,-0.109203763,-0.981092393,0.001198538,0.001256894,-0.001790410,1.082381368,0.091996230,9.736981392
1784246580.713165,0.007231517,-0.109202757,-0.981087327,0.001472188,0.001163617,-0.000998653,1.045413494,0.077719942,9.731923103
1784246580.715231,0.007237967,-0.109200947,-0.981077671,0.001687124,0.001001629,0.000209448,1.040228486,0.094763756,9.738752365
1784246580.717180,0.007242243,-0.109201655,-0.981075227,0.002042273,0.000810702,0.000890876,1.083953142,0.075624071,9.768262863
1784246580.719177,0.007242746,-0.109203741,-0.981076896,0.001774685,0.000339621,0.000680583,1.089667439,0.100853935,9.738389969
1784246580.721173,0.007235601,-0.109202512,-0.981072664,0.000821305,0.000129398,0.000725492,1.102414250,0.114297129,9.715175629
1784246580.723176,0.007232471,-0.109201334,-0.981068909,-0.000230695,0.000445651,0.001157395,1.108796954,0.085528664,9.716791153
1784246580.725184,0.007230516,-0.109202020,-0.981063366,-0.000636973,0.000545829,0.001526034,1.081841946,0.083992735,9.729309082
1784246580.727186,0.007231223,-0.109206893,-0.981062949,-0.000504819,0.000021879,0.001521160,1.060464144,0.099715225,9.762116432
1784246580.729179,0.007232781,-0.109211303,-0.981060207,-0.000265968,-0.000594123,0.001317961,1.078952432,0.105064899,9.732578278
1784246580.731183,0.007232866,-0.109211087,-0.981063366,-0.000160017,-0.000698717,0.000937069,1.074481130,0.106056474,9.727200508
1784246580.733182,0.007235892,-0.109211840,-0.981067181,-0.000115176,-0.000519807,0.000209667,1.085239530,0.106242441,9.744696617
1784246580.735188,0.007232743,-0.109208241,-0.981064975,-0.000261680,-0.000155876,0.000059868,1.081305981,0.115224801,9.748785973
1784246580.737185,0.007233209,-0.109208055,-0.981066763,-0.000368363,0.000144356,0.000095350,1.082888484,0.096911699,9.737909317
1784246580.739188,0.007241192,-0.109208733,-0.981070042,0.000149868,0.000197421,-0.000330073,1.059583068,0.061860505,9.731386185
1784246580.741200,0.007237103,-0.109204605,-0.981066585,0.000258217,0.000506644,-0.000259821,1.082220197,0.078973562,9.741380692
1784246580.743198,0.007237028,-0.109201625,-0.981069803,-0.000148632,0.000970694,-0.000135877,1.092277884,0.093690217,9.732967377
1784246580.745191,0.007231078,-0.109204508,-0.981074393,-0.000629815,0.000827974,-0.000572061,1.056543708,0.105965659,9.709249496
1784246580.747200,0.007231577,-0.109207213,-0.981079042,-0.000895153,0.000219771,-0.001000800,1.070313931,0.095770143,9.732063293
1784246580.749192,0.007235955,-0.109208673,-0.981082380,-0.000455130,-0.000176239,-0.001293812,1.057009220,0.108930305,9.732582092
1784246580.751198,0.007241770,-0.109206200,-0.981081307,0.000266240,-0.000111169,-0.001161678,1.052610636,0.081011325,9.760195732
1784246580.753199,0.007242738,-0.109200224,-0.981076896,0.000669352,0.000438211,-0.000521262,1.055340290,0.084919438,9.772776604
1784246580.755207,0.007242712,-0.109192908,-0.981075883,0.000568691,0.001166444,-0.000017422,1.116513371,0.095044419,9.750931740
1784246580.757207,0.007247798,-0.109189339,-0.981075525,0.000766119,0.001587922,0.000042563,1.099461198,0.096466862,9.770651817
1784246580.759204,0.007251645,-0.109190241,-0.981070042,0.001139603,0.001458735,0.000373024,1.086201429,0.112413369,9.757291794
1784246580.761204,0.007251984,-0.109184548,-0.981067657,0.001105501,0.001510923,0.000776557,1.050694704,0.107536539,9.750948906
1784246580.763213,0.007253922,-0.109178893,-0.981067419,0.000813175,0.001823806,0.000746700,1.059059858,0.093194306,9.736518860
1784246580.765226,0.007258479,-0.109173484,-0.981066883,0.000871561,0.002031700,0.000580854,1.058522820,0.086423397,9.744544983
1784246580.767210,0.007257025,-0.109170645,-0.981067836,0.000840436,0.002040502,0.000368867,1.054136276,0.094569631,9.741006851
1784246580.769225,0.007253802,-0.109172300,-0.981070757,0.000197606,0.001514622,0.000048019,1.060393810,0.092675045,9.744138718
1784246580.771223,0.007253285,-0.109175824,-0.981071234,-0.000203136,0.000698594,-0.000151917,1.072051048,0.092455596,9.754011154
1784246580.773215,0.007254056,-0.109173343,-0.981072485,-0.000238627,0.000424903,-0.000223166,1.060002804,0.100025862,9.782293320
1784246580.775223,0.007255299,-0.109171309,-0.981073797,-0.000151738,0.000602733,-0.000344997,1.075230241,0.094337560,9.735644341
1784246580.777218,0.007255755,-0.109166324,-0.981077492,-0.000031861,0.000912659,-0.000595120,1.070281386,0.093082361,9.732046127
1784246580.779220,0.007255352,-0.109160744,-0.981079876,-0.000086503,0.001374289,-0.000830400,1.053753138,0.099144019,9.728482246
1784246580.781225,0.007256288,-0.109157227,-0.981073439,-0.000020414,0.001615349,-0.000334244,1.038810372,0.086918011,9.710456848
1784246580.783222,0.007259633,-0.109149851,-0.981076002,0.000281708,0.001860438,-0.000008113,1.047614455,0.110487148,9.719582558
1784246580.785239,0.007261090,-0.109142475,-0.981081009,0.000452159,0.002296266,-0.000545403,1.067838430,0.076136284,9.725209236
1784246580.787231,0.007261459,-0.109139130,-0.981081665,0.000410930,0.002398671,-0.000793859,1.048040271,0.073116794,9.744447708
1784246580.789228,0.007259327,-0.109133214,-0.981084466,0.000143090,0.002258739,-0.000795912,1.059209585,0.067727894,9.726044655
1784246580.791234,0.007258255,-0.109134078,-0.981087029,-0.000163363,0.001870677,-0.000907490,1.050647259,0.065114394,9.730950356
1784246580.793234,0.007256396,-0.109129876,-0.981087089,-0.000351276,0.001550493,-0.000808408,1.063940763,0.088645093,9.737391472
1784246580.795238,0.007257629,-0.109126143,-0.981078446,-0.000251366,0.001634246,-0.000012012,1.041342020,0.111857444,9.727206230
1784246580.797235,0.007254663,-0.109124638,-0.981078148,-0.000234466,0.001551649,0.000603368,1.055750847,0.115717836,9.725450516
1784246580.799237,0.007254849,-0.109121822,-0.981082618,-0.000547101,0.001356190,0.000201961,1.050148249,0.099475808,9.751345634
1784246580.801235,0.007255374,-0.109121151,-0.981080115,-0.000522631,0.001156308,0.000035983,1.061975837,0.075978905,9.757930756
1784246580.803238,0.007263667,-0.109118104,-0.981080711,0.000219495,0.001145773,0.000097492,1.054007292,0.083418310,9.734210014
1784246580.805244,0.007265165,-0.109115556,-0.981081784,0.000798256,0.001265231,-0.000109657,1.056362867,0.094407335,9.759837151
1784246580.807241,0.007259372,-0.109108709,-0.981082022,0.000281593,0.001559589,-0.000134535,1.031524658,0.080090269,9.738649368
1784246580.809243,0.007258515,-0.109104685,-0.981088519,-0.000347271,0.001760853,-0.000496117,1.041366339,0.077701725,9.741782188
1784246580.811246,0.007256329,-0.109104417,-0.981092870,-0.000592575,0.001457078,-0.001068579,1.051437259,0.056960102,9.742106438
1784246580.813242,0.007256884,-0.109097622,-0.981094360,-0.000552183,0.001501415,-0.001158850,1.053681970,0.093720786,9.735172272
1784246580.815256,0.007258173,-0.109094620,-0.981091082,-0.000232516,0.001725587,-0.000735682,1.019777179,0.073923782,9.744875908
1784246580.817250,0.007253967,-0.109093286,-0.981094122,-0.000364759,0.001551289,-0.000502077,1.028895617,0.085080951,9.734642982
1784246580.819256,0.007254428,-0.109083019,-0.981095135,-0.000601767,0.001733480,-0.000601177,1.032024145,0.082105294,9.706383705
1784246580.821321,0.007253218,-0.109076269,-0.981090784,-0.000518349,0.002238548,-0.000201541,0.999668062,0.080508009,9.737277031
1784246580.823256,0.007249213,-0.109070547,-0.981090426,-0.000751442,0.002212897,0.000213292,1.021509767,0.105730847,9.742390633
1784246580.825257,0.007251772,-0.109070323,-0.981096447,-0.000743592,0.001746744,-0.000208790,1.028988242,0.092296019,9.727966309
1784246580.827268,0.007251619,-0.109066710,-0.981094718,-0.000411211,0.001529296,-0.000460917,1.060846090,0.092697911,9.740103722
1784246580.829264,0.007249757,-0.109066106,-0.981089294,-0.000423749,0.001404652,0.000167526,1.045509219,0.085770525,9.733767509
1784246580.831265,0.007241915,-0.109063722,-0.981090784,-0.000975847,0.001230704,0.000461548,1.011504054,0.058698021,9.758667946
1784246580.833267,0.007232486,-0.109057464,-0.981094122,-0.001863325,0.001256533,0.000134265,1.028508663,0.090843424,9.744095802
1784246580.835270,0.007224883,-0.109048918,-0.981099606,-0.002522789,0.001691130,-0.000372639,1.051555157,0.065995634,9.731405258
1784246580.837264,0.007218367,-0.109041266,-0.981100559,-0.002837325,0.002329042,-0.000595445,1.047671795,0.079428971,9.739557266
1784246580.839267,0.007211741,-0.109034725,-0.981101096,-0.003015583,0.002557114,-0.000416010,1.075365901,0.068356447,9.734580994
1784246580.841302,0.007207694,-0.109026521,-0.981104791,-0.002999897,0.002759019,-0.000501484,1.082297683,0.086474441,9.757569313
1784246580.843283,0.007206700,-0.109026425,-0.981105804,-0.002647907,0.002614888,-0.000637040,1.056936860,0.064284250,9.710327148
1784246580.845282,0.007205228,-0.109025486,-0.981104493,-0.002180579,0.002019645,-0.000413255,1.040803909,0.031113766,9.741483688
1784246580.847282,0.007208935,-0.109022193,-0.981103778,-0.001422536,0.001761064,-0.000176384,1.043276787,0.050321918,9.745194435
1784246580.849281,0.007202304,-0.109023273,-0.981101513,-0.001054050,0.001322129,0.000084745,1.036185741,0.094780520,9.743680954
1784246580.851285,0.007199917,-0.109028749,-0.981095076,-0.001154674,0.000409719,0.000704330,1.010605574,0.095479868,9.754420280
1784246580.853288,0.007207393,-0.109031744,-0.981095135,-0.000542933,-0.000494898,0.000920770,1.035841823,0.104933582,9.765714645
1784246580.855284,0.007212117,-0.109032199,-0.981091976,0.000359052,-0.000815177,0.000810279,1.047701240,0.081687845,9.736882210
1784246580.857283,0.007209620,-0.109027624,-0.981083453,0.000498312,-0.000308819,0.001364899,1.058646202,0.095503449,9.727566719
1784246580.859283,0.007211114,-0.109028883,-0.981079578,0.000309928,0.000026741,0.001840495,1.007468939,0.094745018,9.737376213
1784246580.861288,0.007212784,-0.109031700,-0.981078029,0.000403438,-0.000232284,0.001697124,1.026947498,0.110135123,9.743322372
1784246580.863285,0.007214613,-0.109025121,-0.981078506,0.000367482,-0.000076102,0.001305607,1.007881284,0.092019707,9.741843224
1784246580.865288,0.007215912,-0.109026045,-0.981078446,0.000306712,0.000164596,0.000930785,1.018093944,0.080907851,9.710846901
1784246580.867297,0.007216743,-0.109033644,-0.981074512,0.000397803,-0.000455252,0.000942344,1.012268066,0.082659952,9.726991653
1784246580.869292,0.007222887,-0.109033570,-0.981078148,0.000662170,-0.001051161,0.000661446,1.043649912,0.080421172,9.733283997
1784246580.871321,0.007230367,-0.109034784,-0.981078029,0.001276000,-0.001055954,0.000152995,1.035404921,0.067848191,9.752025604
1784246580.873296,0.007228183,-0.109038815,-0.981075466,0.001304027,-0.001255906,0.000268233,1.040730238,0.098418005,9.728016853
1784246580.875304,0.007222119,-0.109043866,-0.981076777,0.000399474,-0.001661583,0.000349264,1.022047639,0.076134838,9.744892120
1784246580.877301,0.007223662,-0.109035477,-0.981077909,-0.000031310,-0.000985845,0.000125239,1.027134895,0.089021131,9.750807762
1784246580.879299,0.007227051,-0.109028332,-0.981075704,0.000221911,0.000147173,0.000147028,1.030578732,0.075260058,9.726512909
1784246580.881301,0.007224176,-0.109028392,-0.981076360,0.000110743,0.000399447,0.000213394,1.026426315,0.103491388,9.733414650
1784246580.883303,0.007221788,-0.109029740,-0.981075466,-0.000410103,0.000030215,0.000221857,1.049852610,0.072827086,9.718894958
1784246580.885347,0.007218524,-0.109030157,-0.981067836,-0.000754915,-0.000260569,0.000787562,1.036097169,0.087190628,9.740044594
1784246580.887326,0.007216795,-0.109024689,-0.981066406,-0.000818535,0.000155438,0.001221520,1.004605532,0.080054037,9.729207993
1784246580.889318,0.007216993,-0.109024629,-0.981067121,-0.000739277,0.000244693,0.000959004,1.030777335,0.093038589,9.746353149
1784246580.891313,0.007224679,-0.109031104,-0.981071651,-0.000092520,-0.000503613,0.000276770,1.039166927,0.044540621,9.746500015
1784246580.893318,0.007229022,-0.109030381,-0.981069446,0.000868573,-0.000856922,-0.000073969,1.044333935,0.065350316,9.772192001
1784246580.895316,0.007229197,-0.109032862,-0.981068850,0.001100582,-0.000841815,0.000086488,1.032542825,0.091163330,9.754861832
1784246580.897320,0.007225651,-0.109035850,-0.981068730,0.000580959,-0.000985044,0.000147270,1.035855532,0.104231603,9.738361359
1784246580.899323,0.007227777,-0.109035604,-0.981070876,0.000167324,-0.001033790,-0.000006767,1.034301758,0.087210439,9.740491867
1784246580.901318,0.007226046,-0.109037034,-0.981069863,-0.000006368,-0.000962904,-0.000082082,1.020533681,0.062668741,9.751080513
1784246580.903318,0.007228895,-0.109033719,-0.981066883,0.000103646,-0.000699927,0.000207589,1.033698916,0.074651018,9.743548393
1784246580.905326,0.007231603,-0.109032258,-0.981066942,0.000475463,-0.000312840,0.000311854,1.039956450,0.074379750,9.770453453
1784246580.907326,0.007233827,-0.109032750,-0.981060505,0.000726319,-0.000158068,0.000621742,1.053395033,0.071192376,9.753408432
1784246580.909329,0.007237054,-0.109039851,-0.981061220,0.000883860,-0.000710795,0.000807642,1.029057384,0.062546790,9.752882957
1784246580.911329,0.007240827,-0.109043665,-0.981064141,0.001033815,-0.001343835,0.000291974,1.017899990,0.065597683,9.721955299
1784246580.913325,0.007245536,-0.109044649,-0.981070220,0.001274225,-0.001462103,-0.000460653,1.047196150,0.076384850,9.727432251
1784246580.915339,0.007245425,-0.109052256,-0.981065094,0.001246370,-0.001801602,-0.000433010,1.050069690,0.091155320,9.724391937
1784246580.917334,0.007243174,-0.109055102,-0.981057227,0.000844414,-0.002014896,0.000579560,1.055535793,0.098215558,9.729822159
1784246580.919338,0.007242675,-0.109055020,-0.981057286,0.000412658,-0.001716697,0.000976529,1.065807700,0.094054863,9.729356766
1784246580.921334,0.007246043,-0.109060965,-0.981059194,0.000404830,-0.001714444,0.000560986,1.067606211,0.095277175,9.743265152
1784246580.923340,0.007248625,-0.109065436,-0.981061816,0.000541858,-0.001929224,0.000076769,1.059720039,0.109852128,9.724073410
1784246580.925334,0.007247425,-0.109064654,-0.981067657,0.000303612,-0.001630625,-0.000508652,1.052936077,0.069495313,9.740844727
1784246580.927333,0.007244322,-0.109068140,-0.981068969,-0.000122928,-0.001375036,-0.000827005,1.039397955,0.064196855,9.754246712
1784246580.929355,0.007236477,-0.109066695,-0.981073022,-0.000813954,-0.001203848,-0.000879091,1.013987541,0.077585392,9.744444847
1784246580.931349,0.007232181,-0.109069243,-0.981082797,-0.001460063,-0.001020172,-0.001476540,1.042726755,0.078202389,9.731923103
1784246580.933349,0.007233086,-0.109074421,-0.981085718,-0.001393674,-0.001378246,-0.001895610,1.036932945,0.081018962,9.724314690
1784246580.935357,0.007226857,-0.109081164,-0.981081009,-0.001368702,-0.001914921,-0.001209623,1.057919383,0.109424002,9.724516869
1784246580.937351,0.007226507,-0.109085247,-0.981080651,-0.001403320,-0.002126650,-0.000492352,1.045526385,0.088337459,9.750821114
1784246580.939354,0.007233239,-0.109084599,-0.981081486,-0.000627436,-0.001872671,-0.000435627,1.047664762,0.078968294,9.741348267
1784246580.941382,0.007236183,-0.109086528,-0.981084049,0.000138741,-0.001544494,-0.000609809,1.041655421,0.102272816,9.751355171
1784246580.943364,0.007238745,-0.109094404,-0.981084108,0.000310381,-0.001913779,-0.000650443,1.051177621,0.109421209,9.737063408
1784246580.945372,0.007245704,-0.109096803,-0.981077015,0.000777256,-0.002208247,-0.000065881,1.047523975,0.067321308,9.741272926
1784246580.947358,0.007248964,-0.109092727,-0.981074631,0.001326032,-0.001489940,0.000509909,1.077714443,0.078071550,9.750338554
1784246580.949375,0.007248848,-0.109093547,-0.981075346,0.001168624,-0.000759785,0.000460286,1.048244238,0.089719981,9.740521431
1784246580.951363,0.007250119,-0.109092347,-0.981074512,0.000907392,-0.000423733,0.000332553,1.043029904,0.105721608,9.767966270
1784246580.953367,0.007250119,-0.109092347,-0.981076360,0.000643384,-0.000321677,0.000166381,1.065740108,0.051473729,9.731775284
1784246580.955376,0.007248923,-0.109096162,-0.981075704,0.000284596,-0.000587631,0.000061218,1.034208179,0.081202522,9.766455650
1784246580.957365,0.007244542,-0.109094717,-0.981069922,-0.000120570,-0.000585154,0.000527027,1.070893407,0.069338463,9.730549812
1784246580.959367,0.007240186,-0.109095015,-0.981066525,-0.000612936,-0.000384450,0.001065729,1.085350275,0.076820701,9.723438263
1784246580.961365,0.007243964,-0.109102204,-0.981072366,-0.000505992,-0.000832141,0.000625215,1.057773948,0.097738855,9.729821205
1784246580.963370,0.007252401,-0.109103739,-0.981074512,0.000277705,-0.001199121,-0.000146096,1.097931981,0.077612892,9.715384483
1784246580.965369,0.007257349,-0.109100215,-0.981072783,0.000981997,-0.000732921,-0.000216291,1.060952783,0.102051035,9.747784615
1784246580.967374,0.007258914,-0.109108008,-0.981073141,0.001164569,-0.000822712,-0.000107878,1.073685646,0.114572868,9.728152275
1784246580.969374,0.007255811,-0.109115571,-0.981072605,0.000584680,-0.001600405,-0.000034001,1.094228745,0.105841659,9.721837997
1784246580.971375,0.007249515,-0.109114997,-0.981078625,-0.000409477,-0.001600814,-0.000302870,1.061599255,0.079390660,9.719843864
1784246580.973377,0.007257040,-0.109119408,-0.981084406,-0.000299436,-0.001480904,-0.001020245,1.082868457,0.059162755,9.753808022
1784246580.975384,0.007264926,-0.109126754,-0.981083691,0.000786690,-0.001928476,-0.001201243,1.103328228,0.080879562,9.750380516
1784246580.977389,0.007266077,-0.109128200,-0.981084526,0.001181995,-0.002000595,-0.000953224,1.086631656,0.071834549,9.729234695
1784246580.979380,0.007271021,-0.109128200,-0.981081188,0.001222577,-0.001475819,-0.000553100,1.076397538,0.079941057,9.741829872
1784246580.981384,0.007267087,-0.109129004,-0.981084466,0.000891248,-0.001052861,-0.000388324,1.053302407,0.063570671,9.754257202
1784246580.983379,0.007258020,-0.109128661,-0.981080890,-0.000165122,-0.000844611,-0.000161826,1.059197545,0.067229070,9.733214378
1784246580.985385,0.007252018,-0.109128729,-0.981079936,-0.001043306,-0.000639617,0.000310180,1.055373192,0.084773548,9.730185509
1784246580.987391,0.007247053,-0.109126337,-0.981083274,-0.001517174,-0.000308978,0.000149855,1.075220108,0.093448006,9.734743118
1784246580.989388,0.007248152,-0.109128654,-0.981080830,-0.001483820,-0.000162520,0.000087290,1.091763496,0.088314071,9.733828545
1784246580.991389,0.007254462,-0.109135479,-0.981077969,-0.000653406,-0.000678596,0.000382508,1.106148720,0.091583416,9.752244949
1784246580.993392,0.007262159,-0.109142661,-0.981070757,0.000454968,-0.001259631,0.000868005,1.116495013,0.093278006,9.747333527
1784246580.995403,0.007270224,-0.109144181,-0.981068611,0.001374957,-0.001323696,0.001151658,1.073123693,0.107201405,9.757694244
1784246580.997404,0.007270660,-0.109143697,-0.981072485,0.001562220,-0.001036858,0.000655366,1.064381599,0.088172294,9.740077972
1784246580.999396,0.007264907,-0.109146044,-0.981072068,0.000685417,-0.000888970,0.000291873,1.049805880,0.107614815,9.741535187
1784246581.001396,0.007261965,-0.109146692,-0.981067419,-0.000118252,-0.000855107,0.000622108,1.083580852,0.079880856,9.737353325
1784246581.003406,0.007260863,-0.109146200,-0.981068969,-0.000321081,-0.000599467,0.000684057,1.090580583,0.101776503,9.733016968
1784246581.005405,0.007256865,-0.109148361,-0.981071889,-0.000595393,-0.000516879,0.000241009,1.096923828,0.108259641,9.755033493
1784246581.007411,0.007258974,-0.109150872,-0.981071711,-0.000581025,-0.000693566,0.000007533,1.071978092,0.121769600,9.727299690
1784246581.009408,0.007259827,-0.109146737,-0.981071949,-0.000475482,-0.000356322,0.000002661,1.059730411,0.109934814,9.712416649
1784246581.011408,0.007251802,-0.109145656,-0.981074333,-0.001100938,0.000131472,-0.000090914,1.074203968,0.122411020,9.759137154
1784246581.013407,0.007253016,-0.109148599,-0.981068611,-0.001435848,0.000033109,0.000235722,1.103036761,0.093879379,9.750014305
1784246581.015425,0.007255952,-0.109153837,-0.981064141,-0.000889731,-0.000463372,0.000851649,1.120453238,0.086516380,9.745948792
1784246581.017411,0.007257323,-0.109154493,-0.981064498,-0.000327160,-0.000734179,0.000867869,1.098560691,0.059269592,9.773549080
1784246581.019414,0.007256619,-0.109154269,-0.981071353,-0.000144930,-0.000402490,0.000142147,1.069288135,0.049073458,9.747902870
1784246581.021414,0.007251135,-0.109155059,-0.981074989,-0.000500080,-0.000172490,-0.000567892,1.099189997,0.071632229,9.735074043
1784246581.023420,0.007246956,-0.109159671,-0.981072903,-0.001053491,-0.000365618,-0.000455812,1.069009185,0.100571856,9.752267838
1784246581.025420,0.007249239,-0.109164372,-0.981067479,-0.000864102,-0.000768120,0.000184926,1.075867891,0.111223988,9.754135132
1784246581.027535,0.007255062,-0.109165244,-0.981074095,-0.000090429,-0.000938213,0.000003527,1.095887899,0.096236616,9.746437073
1784246581.029457,0.007259655,-0.109159432,-0.981081307,0.000356858,-0.000299701,-0.000972992,1.085213542,0.104415633,9.749616623
1784246581.031456,0.007259134,-0.109157182,-0.981078744,0.000321891,0.000381344,-0.001033881,1.094032884,0.089705534,9.723080635
1784246581.033427,0.007259160,-0.109157257,-0.981071711,0.000200168,0.000548554,-0.000105426,1.079351187,0.100207888,9.721789360
1784246581.035495,0.007261548,-0.109156385,-0.981068969,0.000309393,0.000578234,0.000570745,1.082520247,0.105657279,9.768901825
1784246581.037437,0.007261042,-0.109159380,-0.981069624,0.000368590,0.000279190,0.000556059,1.051417828,0.093587376,9.758032799
1784246581.039435,0.007260389,-0.109160908,-0.981075227,0.000066975,-0.000165613,0.000001993,1.043449640,0.101029940,9.733863831
1784246581.041451,0.007264568,-0.109159924,-0.981079042,0.000140054,-0.000221266,-0.000652402,1.065605283,0.113027595,9.707959175
1784246581.043440,0.007273998,-0.109160028,-0.981077433,0.000863328,-0.000073699,-0.000693767,1.089273334,0.105749108,9.743801117
1784246581.045440,0.007272895,-0.109160155,-0.981074750,0.001080970,-0.000037737,-0.000255443,1.090984344,0.100201145,9.764839172
1784246581.047440,0.007269058,-0.109160192,-0.981076360,0.000462066,-0.000038270,-0.000081928,1.107605219,0.099327780,9.731673241
1784246581.049429,0.007271878,-0.109163411,-0.981079936,0.000191716,-0.000163832,-0.000407229,1.101643324,0.090281129,9.754474640
1784246581.051480,0.007278885,-0.109161220,-0.981077731,0.000755420,-0.000102618,-0.000461631,1.067523479,0.088545032,9.745015144
1784246581.053472,0.007279828,-0.109155178,-0.981074810,0.001080245,0.000462111,-0.000047205,1.044210911,0.053843230,9.752392769
1784246581.055463,0.007278203,-0.109150171,-0.981078863,0.000686917,0.001062508,-0.000106284,1.080829859,0.076614290,9.760643005
1784246581.057454,0.007278066,-0.109148301,-0.981087029,0.000290762,0.001235624,-0.000891094,1.044364572,0.103181928,9.744638443
1784246581.059470,0.007281217,-0.109145254,-0.981082737,0.000269716,0.001139542,-0.000922077,1.058476210,0.082407646,9.742277145
1784246581.061454,0.007282998,-0.109142452,-0.981081605,0.000452560,0.001135644,-0.000330204,1.085597873,0.096607305,9.712804794
1784246581.063456,0.007285323,-0.109141476,-0.981083572,0.000533301,0.001207913,-0.000313887,1.084828258,0.071790777,9.738647461
1784246581.065447,0.007280696,-0.109139442,-0.981082618,0.000157545,0.001211026,-0.000266864,1.092276692,0.058117483,9.757844925
1784246581.067451,0.007275689,-0.109135486,-0.981083095,-0.000531581,0.001288884,-0.000088432,1.104018450,0.099396035,9.728530884
1784246581.069466,0.007275939,-0.109135240,-0.981087327,-0.000815932,0.001327581,-0.000337289,1.071315289,0.105089501,9.742883682
1784246581.071459,0.007267280,-0.109129548,-0.981078863,-0.001204028,0.001479842,0.000113639,1.053106546,0.120184258,9.732202530
1784246581.073456,0.007266766,-0.109122813,-0.981076479,-0.001612096,0.001805229,0.000912477,1.059985995,0.059062064,9.746164322
1784246581.075467,0.007263969,-0.109122053,-0.981077731,-0.001585951,0.001701115,0.000789016,1.050505996,0.091457635,9.744121552
1784246581.077464,0.007261176,-0.109118104,-0.981081188,-0.001566730,0.001555705,0.000301548,1.064562082,0.100944147,9.707880020
1784246581.079462,0.007257565,-0.109115414,-0.981079578,-0.001624157,0.001575323,0.000145588,1.080393672,0.112688422,9.729042053
1784246581.081460,0.007258404,-0.109113395,-0.981079638,-0.001396645,0.001459498,0.000230247,1.073125362,0.106807478,9.750069618
1784246581.083468,0.007264234,-0.109113567,-0.981080353,-0.000743649,0.001245091,0.000093399,1.051743627,0.083288066,9.756622314
1784246581.085465,0.007259048,-0.109113626,-0.981079519,-0.000667512,0.000948548,0.000100601,1.038236380,0.080664672,9.771836281
1784246581.087471,0.007253363,-0.109110698,-0.981083512,-0.001242874,0.000884312,-0.000056775,1.056193352,0.079694577,9.749879837
1784246581.089462,0.007250495,-0.109106988,-0.981085598,-0.001533189,0.000999449,-0.000386937,1.055888176,0.093396343,9.776866913
1784246581.091468,0.007252942,-0.109100513,-0.981085300,-0.001163976,0.001327613,-0.000390499,1.058367252,0.073848695,9.748947144
1784246581.093499,0.007254801,-0.109095961,-0.981085300,-0.000568672,0.001670490,-0.000283687,1.080537319,0.088391028,9.743232727
1784246581.095474,0.007256399,-0.109091587,-0.981084764,-0.000190841,0.001776770,-0.000188711,1.067875147,0.080882624,9.750794411
1784246581.097474,0.007260214,-0.109086625,-0.981089532,0.000194487,0.001927107,-0.000461926,1.055487156,0.094993994,9.741906166
1784246581.099476,0.007253411,-0.109083302,-0.981090307,-0.000176983,0.001917775,-0.000680710,1.037821651,0.081750758,9.745840073
1784246581.101480,0.007251746,-0.109078556,-0.981094003,-0.000809637,0.001896217,-0.000732438,1.076023221,0.085802093,9.737383842
1784246581.103483,0.007256049,-0.109074049,-0.981098175,-0.000562737,0.002054755,-0.001074907,1.065266132,0.086842351,9.736483574
1784246581.105479,0.007255427,-0.109069966,-0.981094658,-0.000257879,0.002129913,-0.000837020,1.085840344,0.081192821,9.737812996
1784246581.107487,0.007256668,-0.109068289,-0.981088758,-0.000076136,0.001946904,0.000020859,1.101923466,0.076785669,9.761561394
1784246581.109481,0.007256880,-0.109068953,-0.981089413,0.000091166,0.001634986,0.000356045,1.057845116,0.103975326,9.734793663
1784246581.111486,0.007253896,-0.109068915,-0.981096268,-0.000165989,0.001290940,-0.000231411,1.061693311,0.087428518,9.723483086
1784246581.113488,0.007247887,-0.109065294,-0.981093884,-0.000803965,0.001223609,-0.000406336,1.042462111,0.091008604,9.695690155
1784246581.115502,0.007240388,-0.109061450,-0.981086314,-0.001467104,0.001440487,0.000478301,1.041660905,0.100290567,9.715027809
1784246581.117486,0.007237840,-0.109062329,-0.981085181,-0.001682447,0.001254273,0.001012946,1.064995050,0.101624466,9.737474442
1784246581.119492,0.007242470,-0.109060436,-0.981090188,-0.001188158,0.000937361,0.000463760,1.038078427,0.102013938,9.731175423
1784246581.121490,0.007247459,-0.109058179,-0.981091440,-0.000337071,0.000918518,-0.000150976,1.037584305,0.097203404,9.715452194
1784246581.123492,0.007246095,-0.109055266,-0.981087744,-0.000043426,0.000958434,0.000032788,1.021125674,0.073925614,9.742186546
1784246581.125495,0.007238667,-0.109057210,-0.981086314,-0.000646892,0.000706569,0.000452624,1.025065780,0.064994134,9.730925560
1784246581.127502,0.007239442,-0.109055117,-0.981090665,-0.000940531,0.000524945,0.000199106,1.020321846,0.080755100,9.728331566
1784246581.129494,0.007241237,-0.109051391,-0.981096447,-0.000571981,0.000623885,-0.000561023,1.062596917,0.089084856,9.740979195
1784246581.131506,0.007237677,-0.109053351,-0.981093526,-0.000542712,0.000425344,-0.000593155,1.061872482,0.101810969,9.716850281
1784246581.133506,0.007237773,-0.109051645,-0.981095135,-0.000721000,0.000280980,-0.000309997,1.028302908,0.073007658,9.732324600
1784246581.135509,0.007241971,-0.109042682,-0.981100798,-0.000389385,0.000912677,-0.000730694,1.046783447,0.081943825,9.765576363
1784246581.137562,0.007241136,-0.109043039,-0.981100559,-0.000095237,0.001245526,-0.000911431,1.059492350,0.093061365,9.754451752
1784246581.139511,0.007239736,-0.109037191,-0.981103182,-0.000354157,0.001257567,-0.000792407,1.058185697,0.095010355,9.734736443
1784246581.141565,0.007239087,-0.109030426,-0.981101334,-0.000519653,0.001751514,-0.000612699,1.029292822,0.081021309,9.737756729
1784246581.143529,0.007247194,-0.109036274,-0.981102884,0.000091876,0.001257494,-0.000485379,1.039961815,0.073611014,9.752514839
1784246581.145522,0.007255490,-0.109041221,-0.981103241,0.001125886,0.000100513,-0.000594703,1.034956098,0.067447312,9.746192932
1784246581.147524,0.007260893,-0.109039240,-0.981103301,0.001740884,-0.000129536,-0.000562839,1.043988585,0.070630223,9.723358154
1784246581.149515,0.007256951,-0.109033607,-0.981110871,0.001293106,0.000380940,-0.000934411,1.043221116,0.081799410,9.729257584
1784246581.151522,0.007248524,-0.109031469,-0.981112063,0.000026692,0.000762733,-0.001170433,1.047195196,0.076781936,9.734609604
1784246581.153516,0.007244120,-0.109034181,-0.981112480,-0.000885209,0.000461788,-0.000858183,1.044404864,0.071180165,9.771332741
1784246581.155530,0.007240909,-0.109031133,-0.981109798,-0.001169594,0.000309125,-0.000413116,1.015702248,0.068419121,9.707177162
1784246581.157522,0.007237397,-0.109027810,-0.981104314,-0.001246054,0.000662158,0.000292993,1.022951722,0.077390917,9.755661964
1784246581.159529,0.007232326,-0.109024405,-0.981102288,-0.001447710,0.000795029,0.000788410,1.049945951,0.083695434,9.765590668
1784246581.161521,0.007231019,-0.109025680,-0.981112301,-0.001559447,0.000573879,0.000100595,1.058372259,0.109856673,9.725865364
1784246581.163530,0.007237434,-0.109025665,-0.981114447,-0.001044724,0.000282566,-0.000761285,1.043652177,0.118433639,9.743391037
1784246581.165524,0.007240283,-0.109022655,-0.981110811,-0.000288900,0.000366804,-0.000502360,1.042627931,0.107312895,9.733902931
1784246581.167531,0.007241684,-0.109020345,-0.981113553,0.000083103,0.000628199,-0.000330957,1.025442004,0.097142406,9.745927811
1784246581.169527,0.007244322,-0.109022543,-0.981118858,0.000223328,0.000301709,-0.000804890,1.038599253,0.071877755,9.746673584
1784246581.171569,0.007247373,-0.109022677,-0.981119812,0.000450020,-0.000100135,-0.001042549,1.045306206,0.068767071,9.730969429
1784246581.173537,0.007248059,-0.109018900,-0.981131792,0.000458950,0.000115445,-0.001646342,1.023510456,0.085143588,9.735537529
1784246581.175538,0.007241118,-0.109021463,-0.981139481,-0.000258756,0.000102633,-0.002467383,1.012418628,0.096006587,9.740078926
1784246581.177534,0.007240648,-0.109023236,-0.981135368,-0.000715198,-0.000220043,-0.001984035,1.061263323,0.090417378,9.745020866
1784246581.179543,0.007246419,-0.109022990,-0.981132686,-0.000214809,-0.000215864,-0.001015503,1.043041706,0.067820400,9.742169380
1784246581.181535,0.007249839,-0.109019414,-0.981131792,0.000389214,0.000146021,-0.000542231,0.997542858,0.054012261,9.749657631
1784246581.183538,0.007249657,-0.109010838,-0.981130660,0.000542675,0.000647173,-0.000268797,1.023113966,0.091639817,9.767857552
1784246581.185543,0.007244989,-0.109008543,-0.981126964,0.000128630,0.000926493,0.000163758,1.049442887,0.075571477,9.711737633
1784246581.187553,0.007238581,-0.109007291,-0.981124580,-0.000609544,0.000917917,0.000603356,1.038917542,0.061114576,9.747502327
1784246581.189544,0.007235355,-0.109003410,-0.981126666,-0.001073440,0.000967306,0.000526887,1.014710665,0.062822975,9.739868164
1784246581.191585,0.007236175,-0.109002948,-0.981129169,-0.000959072,0.000946735,0.000092496,1.051506639,0.062777229,9.743041992
1784246581.193583,0.007240954,-0.109006636,-0.981124997,-0.000284686,0.000491181,0.000135567,1.036893606,0.079087198,9.744028091
1784246581.195664,0.007244404,-0.109008677,-0.981122434,0.000421013,-0.000006982,0.000491290,1.019645095,0.063560270,9.753327370
1784246581.197584,0.007244687,-0.109003782,-0.981119692,0.000597773,0.000192057,0.000698871,1.033427954,0.090649828,9.762480736
1784246581.199574,0.007243975,-0.108999893,-0.981124163,0.000223507,0.000543128,0.000417196,1.017364383,0.059649568,9.740299225
1784246581.201596,0.007238496,-0.108999573,-0.981130302,-0.000503288,0.000483222,-0.000350087,1.015774250,0.077092171,9.747582436
1784246581.203580,0.007242504,-0.108999208,-0.981134772,-0.000619958,0.000147365,-0.000946121,1.012066960,0.105289154,9.758520126
1784246581.205581,0.007245231,-0.109002315,-0.981130779,-0.000076035,-0.000323948,-0.000748775,1.059798717,0.080179214,9.738229752
1784246581.207591,0.007241677,-0.109001100,-0.981127441,-0.000057491,-0.000360666,-0.000044296,1.013751030,0.058291268,9.748804092
1784246581.209600,0.007241360,-0.108996600,-0.981128454,-0.000238954,-0.000095332,0.000145294,1.036114573,0.050954066,9.732191086
1784246581.211599,0.007236961,-0.109000601,-0.981130183,-0.000464663,-0.000259022,-0.000043661,1.044757724,0.058663677,9.703555107
1784246581.213614,0.007231659,-0.109003238,-0.981128275,-0.000958785,-0.000718137,0.000050943,1.020026803,0.092916213,9.719891548
1784246581.215616,0.007234398,-0.108999386,-0.981128454,-0.000824889,-0.000518279,0.000177778,1.021382451,0.095405489,9.745463371
1784246581.217588,0.007235225,-0.108997136,-0.981126189,-0.000343154,0.000037266,0.000255018,1.069176197,0.075242199,9.722516060
1784246581.219580,0.007229439,-0.108996697,-0.981124103,-0.000574199,0.000176934,0.000525508,1.065732241,0.088596649,9.740978241
1784246581.221579,0.007226012,-0.109000228,-0.981122553,-0.001036027,-0.000114027,0.000701850,1.043801904,0.093373880,9.738747597
1784246581.223583,0.007229521,-0.109001957,-0.981121778,-0.000813802,-0.000529117,0.000685656,1.055380464,0.086047478,9.740056992
1784246581.225578,0.007229875,-0.109003849,-0.981125295,-0.000432923,-0.000723658,0.000313770,1.038273811,0.045397170,9.753676414
1784246581.227585,0.007226217,-0.109006755,-0.981131136,-0.000606441,-0.000857970,-0.000373011,1.034135222,0.072926559,9.733226776
1784246581.229585,0.007227673,-0.109004013,-0.981130421,-0.000713470,-0.000777691,-0.000601524,1.037003398,0.050469179,9.735775948
1784246581.231602,0.007233503,-0.109002329,-0.981129527,-0.000101828,-0.000404984,-0.000386058,1.053705573,0.021968739,9.744126320
1784246581.233594,0.007227784,-0.109006040,-0.981131554,0.000251011,-0.000383464,-0.000393100,1.035657048,0.051296491,9.747883797
1784246581.235595,0.007222365,-0.109008819,-0.981126368,-0.000219350,-0.000668255,-0.000021972,1.016394019,0.088975079,9.713584900
1784246581.237595,0.007221262,-0.109005764,-0.981123388,-0.000540222,-0.000463968,0.000575652,1.050542235,0.057800759,9.751526833
1784246581.239593,0.007218524,-0.108999111,-0.981124580,-0.000567973,0.000243374,0.000563159,1.059376240,0.082821846,9.745419502
1784246581.241624,0.007215413,-0.108999237,-0.981120825,-0.000717257,0.000543623,0.000624862,1.074678659,0.085832059,9.735589981
1784246581.243614,0.007223688,-0.109005392,-0.981124997,-0.000290191,0.000092264,0.000396153,1.090217948,0.109353088,9.739342690
1784246581.245600,0.007228944,-0.109010816,-0.981127083,0.000542411,-0.000599386,-0.000222948,1.097701073,0.096763305,9.732095718
1784246581.247600,0.007220327,-0.109018788,-0.981127441,0.000150949,-0.001346798,-0.000297811,1.054327607,0.073890902,9.750288963
1784246581.249596,0.007214602,-0.109029151,-0.981128097,-0.000933856,-0.002225749,-0.000174964,1.013014317,0.070918806,9.738574028
1784246581.251602,0.007213294,-0.109026060,-0.981128037,-0.001227708,-0.002115221,-0.000116602,1.006928205,0.087538876,9.743605614
1784246581.253603,0.007211551,-0.109020799,-0.981124580,-0.001145123,-0.001301481,0.000183195,1.038957596,0.101452716,9.745518684
1784246581.255605,0.007210403,-0.109025925,-0.981124401,-0.001072969,-0.001266895,0.000416555,1.052985072,0.073530138,9.740421295
1784246581.257600,0.007207337,-0.109033950,-0.981124103,-0.001062280,-0.001815893,0.000366668,1.065123439,0.076396160,9.756591797
1784246581.259608,0.007210224,-0.109041207,-0.981123030,-0.000821694,-0.002416555,0.000365681,1.087836981,0.098570354,9.747788429
1784246581.261607,0.007214672,-0.109043740,-0.981122375,-0.000136071,-0.002481540,0.000349797,1.054395914,0.115665130,9.735313416
1784246581.263609,0.007217470,-0.109044723,-0.981124341,0.000169292,-0.002129587,0.000141572,1.039127469,0.114141896,9.724978447
1784246581.265612,0.007214561,-0.109043211,-0.981124580,-0.000111507,-0.001597667,-0.000027434,1.033952713,0.059732188,9.761834145
1784246581.267612,0.007219105,-0.109050058,-0.981120348,0.000059330,-0.001522638,0.000245442,1.039521933,0.074496783,9.754760742
1784246581.269609,0.007224291,-0.109052554,-0.981121302,0.000704445,-0.001832913,0.000334713,1.018507957,0.116595306,9.732147217
1784246581.271615,0.007226220,-0.109055609,-0.981119692,0.000978653,-0.001803850,0.000238390,1.046823502,0.083475307,9.739134789
1784246581.273614,0.007227419,-0.109056227,-0.981111050,0.000961757,-0.001604555,0.000854836,1.071040154,0.082249850,9.741839409
1784246581.275626,0.007226358,-0.109058455,-0.981108785,0.000751031,-0.001403566,0.001358062,1.059372663,0.083199859,9.755285263
1784246581.277621,0.007225479,-0.109062500,-0.981110871,0.000416318,-0.001448757,0.001001229,1.038782716,0.087508701,9.753499031
1784246581.279625,0.007226869,-0.109062336,-0.981114864,0.000192147,-0.001425346,0.000326433,1.059946895,0.092290059,9.736065865
1784246581.281618,0.007232345,-0.109063245,-0.981118381,0.000447351,-0.001195928,-0.000307715,1.056113839,0.109767765,9.742449760
1784246581.283624,0.007233824,-0.109067112,-0.981113076,0.000666150,-0.001195020,-0.000138746,1.084380269,0.072206333,9.744029999
1784246581.285626,0.007235158,-0.109068334,-0.981110752,0.000589275,-0.001212467,0.000417114,1.066826344,0.067544319,9.738155365
1784246581.287628,0.007239620,-0.109068245,-0.981109917,0.000844370,-0.000956440,0.000481059,1.067558765,0.090444990,9.729784012
1784246581.289629,0.007241241,-0.109075859,-0.981114328,0.000935825,-0.001234121,0.000073611,1.061385274,0.098674640,9.717725754
1784246581.291635,0.007245044,-0.109080434,-0.981119931,0.000909585,-0.001756736,-0.000658387,1.066342354,0.102023385,9.741963387
1784246581.293632,0.007255550,-0.109079748,-0.981123269,0.001403276,-0.001531123,-0.001169395,1.073867440,0.094224453,9.754023552
1784246581.295635,0.007264744,-0.109076783,-0.981121182,0.002183274,-0.000852199,-0.001068777,1.054226518,0.101765618,9.737017632
1784246581.297628,0.007266059,-0.109082535,-0.981116772,0.002347487,-0.000806776,-0.000420964,1.079264522,0.095064104,9.752241135
1784246581.299637,0.007272638,-0.109088682,-0.981112599,0.002189253,-0.001347771,0.000227839,1.075184107,0.090731613,9.738759995
1784246581.301633,0.007272735,-0.109086193,-0.981108487,0.001989671,-0.001182884,0.000685413,1.076819777,0.078105301,9.747199059
1784246581.303641,0.007272772,-0.109081231,-0.981108785,0.001491530,-0.000301337,0.000751656,1.059352875,0.043427322,9.740682602
1784246581.305636,0.007278911,-0.109081633,-0.981110990,0.001489211,0.000141860,0.000330031,1.052782059,0.057743393,9.755563736
1784246581.307643,0.007279798,-0.109083585,-0.981111944,0.001536193,-0.000057557,-0.000016055,1.103634357,0.068400860,9.740437508
1784246581.309647,0.007275711,-0.109089367,-0.981105208,0.000933892,-0.000398053,0.000397643,1.092421532,0.070202880,9.759268761
1784246581.311647,0.007274258,-0.109091625,-0.981102049,0.000367678,-0.000664498,0.000987541,1.072050810,0.093262501,9.766569138
1784246581.313662,0.007278095,-0.109093279,-0.981100917,0.000355695,-0.000698379,0.001003613,1.064651608,0.110567167,9.740671158
1784246581.315662,0.007273219,-0.109097563,-0.981103241,0.000075042,-0.000862020,0.000671131,1.065929294,0.142332301,9.744910240
1784246581.317657,0.007272183,-0.109095186,-0.981108069,-0.000397348,-0.000760026,0.000050640,1.087943792,0.145513445,9.761988640
1784246581.319665,0.007281661,-0.109093137,-0.981110215,-0.000084990,-0.000188383,-0.000469775,1.093042612,0.120495372,9.742554665
1784246581.321730,0.007282622,-0.109092817,-0.981104434,0.000356453,0.000095436,-0.000145270,1.085250497,0.107138366,9.744702339
1784246581.323663,0.007283911,-0.109093420,-0.981107056,0.000296187,0.000108211,0.000107493,1.058545232,0.087411523,9.731549263
1784246581.325659,0.007282909,-0.109095573,-0.981110215,0.000052895,-0.000056672,-0.000305370,1.047178745,0.076248139,9.746709824
1784246581.327663,0.007284194,-0.109099112,-0.981112421,0.000017522,-0.000430416,-0.000589271,1.062636852,0.092643112,9.744588852
1784246581.329664,0.007283840,-0.109101333,-0.981109202,0.000026675,-0.000723717,-0.000362909,1.044291019,0.095712863,9.723968506
1784246581.331667,0.007283456,-0.109100893,-0.981108129,-0.000054695,-0.000667885,0.000038029,1.059127688,0.099808782,9.751355171
1784246581.333670,0.007285558,-0.109102942,-0.981117904,-0.000112038,-0.000639809,-0.000554498,1.077941179,0.096072659,9.738797188
1784246581.335677,0.007288098,-0.109099299,-0.981123388,-0.000005709,-0.000402083,-0.001454048,1.075217843,0.093835562,9.743263245
1784246581.337674,0.007291871,-0.109097704,-0.981116176,0.000433960,0.000066316,-0.000987930,1.093908787,0.116588943,9.723251343
1784246581.339681,0.007295459,-0.109100200,-0.981105328,0.000622237,0.000150002,0.000487252,1.082092047,0.103798427,9.715985298
1784246581.341691,0.007294274,-0.109099492,-0.981104195,0.000379860,0.000145386,0.001181851,1.069636822,0.113731883,9.727693558
1784246581.343683,0.007295642,-0.109094769,-0.981104910,0.000027290,0.000418669,0.000912892,1.049250126,0.097860813,9.728020668
1784246581.345679,0.007298756,-0.109091245,-0.981101215,0.000079593,0.000811527,0.000862944,1.049692154,0.099017709,9.753583908
1784246581.347681,0.007300172,-0.109095313,-0.981102347,0.000383168,0.000555213,0.000769800,1.058565259,0.089190654,9.733353615
1784246581.349679,0.007304161,-0.109095626,-0.981103659,0.000565822,0.000082912,0.000375362,1.081847429,0.085657403,9.747252464
1784246581.351687,0.007305365,-0.109089598,-0.981106639,0.000670437,0.000423896,-0.000034574,1.094615817,0.064112552,9.729641914
1784246581.353684,0.007298350,-0.109092377,-0.981101930,0.000166245,0.000603794,0.000116784,1.070546985,0.076635607,9.713109970
1784246581.355698,0.007297572,-0.109095715,-0.981097817,-0.000281411,0.000102642,0.000728847,1.063797116,0.114969261,9.753251076
1784246581.357697,0.007299237,-0.109093174,-0.981098056,-0.000115349,0.000022564,0.000798011,1.055439711,0.128968462,9.752884865
1784246581.359694,0.007307533,-0.109087832,-0.981098890,0.000283576,0.000503532,0.000472754,1.057359934,0.101261519,9.739258766
1784246581.361711,0.007309801,-0.109086446,-0.981094956,0.000645075,0.000779491,0.000506282,1.082533598,0.104142070,9.729885101
1784246581.363712,0.007315702,-0.109087452,-0.981094122,0.000886727,0.000673997,0.000655328,1.082680702,0.117460065,9.747009277
1784246581.365728,0.007319760,-0.109086983,-0.981099069,0.001117703,0.000528320,0.000149849,1.061413765,0.104167446,9.764389038
1784246581.367712,0.007323172,-0.109090492,-0.981105864,0.001230259,0.000174018,-0.000743362,1.046206951,0.069187649,9.733214378
1784246581.369726,0.007326707,-0.109091774,-0.981106341,0.001291249,-0.000283844,-0.001070269,1.049694180,0.060633563,9.732713699
1784246581.371710,0.007327597,-0.109093256,-0.981102407,0.001245062,-0.000476958,-0.000567656,1.087701917,0.086561255,9.735607147
1784246581.373706,0.007330384,-0.109093569,-0.981100917,0.001087243,-0.000365199,-0.000055884,1.088250637,0.095451139,9.744631767
1784246581.375711,0.007331643,-0.109086439,-0.981106699,0.000925881,0.000296787,-0.000347819,1.048397779,0.102685407,9.744190216
1784246581.377704,0.007333092,-0.109082013,-0.981109500,0.000793329,0.000997071,-0.000866181,1.069125772,0.108381160,9.724968910
1784246581.379710,0.007343959,-0.109086350,-0.981107652,0.001193672,0.000743019,-0.000777923,1.064818025,0.087664537,9.747696877
1784246581.381712,0.007347979,-0.109083861,-0.981107473,0.001682348,0.000428608,-0.000515466,1.087262630,0.125446811,9.749753952
1784246581.383717,0.007355280,-0.109078549,-0.981110871,0.001740160,0.000978737,-0.000645334,1.082458973,0.098690227,9.740610123
1784246581.385710,0.007354538,-0.109078437,-0.981106520,0.001490515,0.001218771,-0.000434420,1.060539842,0.103959911,9.732105255
1784246581.387719,0.007351938,-0.109075844,-0.981107056,0.000888710,0.001072626,-0.000030502,1.068160295,0.103398316,9.734352112
1784246581.389713,0.007347230,-0.109076470,-0.981105030,0.000034739,0.000971307,0.000154806,1.073400736,0.093277045,9.762087822
1784246581.391721,0.007350224,-0.109079786,-0.981105745,-0.000211863,0.000497797,0.000234015,1.072770357,0.076447874,9.735527039
1784246581.393718,0.007352869,-0.109079115,-0.981104076,0.000241093,0.000110585,0.000202229,1.074140668,0.077838115,9.726572037
1784246581.395721,0.007354471,-0.109077297,-0.981110990,0.000431135,0.000174544,-0.000234413,1.062670827,0.095747054,9.749092102
1784246581.397725,0.007360425,-0.109075516,-0.981116176,0.000735025,0.000366337,-0.001038830,1.045194149,0.134552553,9.742150307
1784246581.399727,0.007368196,-0.109069236,-0.981111944,0.001156424,0.000769350,-0.000882930,1.049180269,0.092040487,9.727535248
1784246581.401723,0.007366433,-0.109062955,-0.981112301,0.000977668,0.001371840,-0.000389321,1.072698832,0.068994693,9.712615967
1784246581.403729,0.007369481,-0.109060906,-0.981111288,0.000773507,0.001614882,-0.000247563,1.052341223,0.092969313,9.717232704
1784246581.405734,0.007373675,-0.109056808,-0.981112421,0.001021180,0.001644221,-0.000234745,1.052442074,0.103491433,9.749579430
1784246581.407756,0.007375985,-0.109054759,-0.981115997,0.001147523,0.001614062,-0.000532662,1.079512358,0.112827122,9.711109161
1784246581.409733,0.007377401,-0.109051920,-0.981119514,0.000877501,0.001524774,-0.000877004,1.072115421,0.097014703,9.742832184
1784246581.411781,0.007376295,-0.109055139,-0.981121957,0.000459682,0.001101464,-0.001021890,1.041330338,0.076202042,9.763740540
1784246581.413756,0.007374104,-0.109052256,-0.981124163,0.000081406,0.000667337,-0.001037997,1.060022593,0.099371597,9.748215675
1784246581.415752,0.007370923,-0.109042928,-0.981130898,-0.000365145,0.001200547,-0.001316047,1.041612744,0.099098928,9.756714821
1784246581.417744,0.007368099,-0.109038748,-0.981131434,-0.000724727,0.001786681,-0.001409246,1.068385005,0.085413709,9.742753983
1784246581.419750,0.007368919,-0.109033227,-0.981130660,-0.000737859,0.001920016,-0.000990982,1.071790099,0.069727227,9.737277985
1784246581.421786,0.007362738,-0.109027743,-0.981127441,-0.000946018,0.002107515,-0.000397264,1.072247148,0.069381632,9.722032547
1784246581.423759,0.007356696,-0.109025478,-0.981127977,-0.001515499,0.002050953,-0.000020642,1.066932559,0.076081008,9.734622955
1784246581.425754,0.007357519,-0.109024249,-0.981127977,-0.001480844,0.001718574,-0.000017963,1.013517737,0.077019177,9.761925697
1784246581.427817,0.007361751,-0.109019056,-0.981131792,-0.000765550,0.001686761,-0.000302571,1.004750013,0.092136279,9.731080055
1784246581.429799,0.007361427,-0.109014563,-0.981137097,-0.000442123,0.001703819,-0.000852980,1.026561141,0.115497313,9.746046066
1784246581.431850,0.007355429,-0.109008476,-0.981140435,-0.000893201,0.001776984,-0.001146389,1.072466850,0.125322089,9.730910301
1784246581.433829,0.007352262,-0.109010719,-0.981138527,-0.001442161,0.001631459,-0.000838089,1.089956284,0.051055159,9.747037888
1784246581.435786,0.007345982,-0.109010860,-0.981130183,-0.001776105,0.001105993,0.000160499,1.024616003,0.066207051,9.750210762
1784246581.437775,0.007342871,-0.109000385,-0.981125295,-0.001830443,0.001512018,0.001073174,1.070388198,0.103245571,9.751836777
1784246581.439773,0.007343300,-0.108996212,-0.981129646,-0.001576053,0.002044157,0.000837241,1.068335176,0.080562457,9.731963158
1784246581.441777,0.007342540,-0.108988896,-0.981129289,-0.001265735,0.002216469,0.000339432,1.036536217,0.085488409,9.726585388
1784246581.443774,0.007341734,-0.108980976,-0.981126428,-0.001057018,0.002519076,0.000483194,1.046659708,0.106803648,9.735248566
1784246581.445771,0.007334821,-0.108989179,-0.981130064,-0.001349854,0.001683696,0.000364712,1.019718766,0.103758879,9.707856178
1784246581.447785,0.007334713,-0.108990572,-0.981131554,-0.001495584,0.000572307,-0.000031176,1.044388175,0.104989678,9.742407799
1784246581.449772,0.007340915,-0.108987197,-0.981132925,-0.000817102,0.000437738,-0.000242361,1.046616197,0.102813326,9.729394913
1784246581.451776,0.007339690,-0.108988412,-0.981129289,-0.000359667,0.000355889,-0.000035140,1.041167617,0.098323211,9.740570068
1784246581.453779,0.007340531,-0.108983986,-0.981128812,-0.000369744,0.000352967,0.000278056,1.025973320,0.065872200,9.731828690
1784246581.455779,0.007339254,-0.108978704,-0.981133521,-0.000443334,0.000787075,-0.000069117,1.013926268,0.071831837,9.734546661
1784246581.457776,0.007336106,-0.108978115,-0.981141210,-0.000714152,0.000964989,-0.000864699,1.024212480,0.069405757,9.742160797
1784246581.459782,0.007331680,-0.108977109,-0.981141329,-0.001043305,0.000679934,-0.001103808,1.036930919,0.083029829,9.756607056
1784246581.461785,0.007332074,-0.108975381,-0.981139779,-0.000976200,0.000555309,-0.000681336,1.053761005,0.100017689,9.731625557
1784246581.463785,0.007340479,-0.108970195,-0.981134832,-0.000200654,0.000833120,-0.000117636,1.022508621,0.114221066,9.743791580
1784246581.465793,0.007337224,-0.108968236,-0.981129467,0.000146871,0.001054076,0.000581600,1.038834214,0.091562606,9.750386238
1784246581.467791,0.007327940,-0.108969368,-0.981125653,-0.000671060,0.000830275,0.001141297,1.046003461,0.088960916,9.725270271
1784246581.469790,0.007323842,-0.108974136,-0.981128454,-0.001380131,0.000113805,0.001004212,1.045515418,0.086224839,9.732873917
1784246581.471842,0.007329791,-0.108979732,-0.981139064,-0.000975345,-0.000717416,-0.000179021,1.025166988,0.073492683,9.732772827
1784246581.473804,0.007337686,-0.108972631,-0.981140912,0.000104638,-0.000629226,-0.001071984,1.043345094,0.055319440,9.735364914
1784246581.475801,0.007334918,-0.108964846,-0.981134534,0.000428407,0.000350667,-0.000526714,1.070421576,0.065919518,9.708109856
1784246581.477797,0.007327251,-0.108959593,-0.981132567,-0.000330226,0.001144904,0.000248466,1.039135575,0.041862391,9.745137215
1784246581.479805,0.007322256,-0.108960442,-0.981130779,-0.000961913,0.001042151,0.000520426,1.026893258,0.068875596,9.748886108
1784246581.481795,0.007321019,-0.108956806,-0.981131315,-0.001006915,0.000856153,0.000501965,1.013980627,0.075097941,9.716185570
1784246581.483805,0.007321119,-0.108950846,-0.981135190,-0.000872087,0.001081379,0.000075600,1.045514584,0.086218476,9.733771324
1784246581.485802,0.007314580,-0.108951174,-0.981134236,-0.001120645,0.000978320,-0.000092627,1.067036986,0.122194961,9.739401817
1784246581.487802,0.007311951,-0.108951516,-0.981134713,-0.001431414,0.000669102,0.000036036,1.066812038,0.102182969,9.718649864
1784246581.489803,0.007313806,-0.108947136,-0.981133223,-0.001256703,0.000745613,0.000114033,1.045641541,0.095730595,9.719037056
1784246581.491836,0.007318936,-0.108945630,-0.981138170,-0.000639053,0.000924271,-0.000188720,1.039584994,0.077426195,9.720706940
1784246581.493821,0.007321086,-0.108944342,-0.981142938,-0.000064623,0.000767749,-0.000843915,1.003743052,0.081962317,9.714425087
1784246581.495816,0.007318724,-0.108943887,-0.981143415,-0.000117868,0.000584600,-0.000961316,1.020954251,0.096383475,9.734707832
1784246581.497816,0.007317066,-0.108946294,-0.981147885,-0.000393529,0.000291519,-0.001012003,1.041495323,0.089256503,9.754858017
1784246581.499815,0.007315542,-0.108946688,-0.981152773,-0.000668502,-0.000153405,-0.001339165,1.064432025,0.092623293,9.744141579
1784246581.501822,0.007311735,-0.108952798,-0.981155157,-0.000998492,-0.000729115,-0.001416640,1.051437259,0.093333378,9.730683327
1784246581.503823,0.007308803,-0.108954914,-0.981154978,-0.001294144,-0.001168019,-0.001130292,1.028289437,0.071686029,9.729177475
1784246581.505836,0.007303912,-0.108954445,-0.981154323,-0.001559409,-0.001038566,-0.000702645,1.038208604,0.076394923,9.742219925
1784246581.507818,0.007304098,-0.108956285,-0.981163502,-0.001515083,-0.000852841,-0.001040088,1.036151767,0.054490067,9.738939285
1784246581.509822,0.007301456,-0.108953677,-0.981167972,-0.001282618,-0.000681379,-0.001664479,1.011652112,0.070402242,9.750673294
1784246581.511837,0.007301538,-0.108955942,-0.981163979,-0.001025153,-0.000580732,-0.001252850,1.035937190,0.073770858,9.737269402
1784246581.513846,0.007305152,-0.108958006,-0.981164813,-0.000480469,-0.000872685,-0.000719777,1.034584403,0.111730635,9.757236481
1784246581.515837,0.007303237,-0.108963177,-0.981162548,-0.000230235,-0.001281226,-0.000423021,1.030721784,0.088142820,9.741839409
1784246581.517830,0.007302086,-0.108962111,-0.981166422,-0.000387073,-0.001213986,-0.000403914,1.040303946,0.064658754,9.750664711
1784246581.519832,0.007300656,-0.108958356,-0.981170595,-0.000441327,-0.000730900,-0.000838776,1.051268935,0.081063539,9.755263329
1784246581.521840,0.007299937,-0.108958736,-0.981168985,-0.000410420,-0.000472058,-0.000776887,1.033869386,0.089370124,9.752610207
1784246581.523838,0.007300294,-0.108954683,-0.981168926,-0.000370520,-0.000285451,-0.000442956,1.034331679,0.089472495,9.737367630
1784246581.525836,0.007303077,-0.108955100,-0.981165111,-0.000088646,-0.000153009,-0.000072946,1.041529775,0.089933403,9.722582817
1784246581.527841,0.007304448,-0.108955041,-0.981160581,0.000277935,-0.000132033,0.000485267,1.055215120,0.109363101,9.737964630
1784246581.529842,0.007300615,-0.108952023,-0.981161892,-0.000139817,0.000036287,0.000620907,1.046941400,0.094537601,9.758483887
1784246581.531863,0.007293980,-0.108949319,-0.981167018,-0.001055655,0.000331145,0.000123997,1.027135849,0.051844161,9.749224663
1784246581.533849,0.007291506,-0.108950235,-0.981163859,-0.001384028,0.000162761,0.000013133,1.067135572,0.055897936,9.737184525
1784246581.535846,0.007286433,-0.108953819,-0.981159568,-0.001448455,-0.000379644,0.000562121,1.055044055,0.058670983,9.747053146
1784246581.537845,0.007286754,-0.108956076,-0.981155455,-0.001313557,-0.000669078,0.001017087,1.042786598,0.082726523,9.725675583
1784246581.539844,0.007289435,-0.108954787,-0.981155634,-0.000705662,-0.000649219,0.000989584,1.027674198,0.094997868,9.728430748
1784246581.541870,0.007290474,-0.108953550,-0.981157541,-0.000259284,-0.000398255,0.000555680,1.072926641,0.089838997,9.742339134
1784246581.543856,0.007293343,-0.108961113,-0.981160343,-0.000082829,-0.000626812,0.000074591,1.066595793,0.086291298,9.748585701
1784246581.545858,0.007291230,-0.108958997,-0.981165111,-0.000188295,-0.000735685,-0.000456447,1.058321118,0.069026053,9.734120369
1784246581.547855,0.007292650,-0.108957730,-0.981168270,-0.000241545,-0.000311164,-0.000858509,1.037580132,0.062821917,9.761857986
1784246581.549854,0.007291551,-0.108959839,-0.981168270,-0.000177907,-0.000490979,-0.000829037,1.045484304,0.084763311,9.749452591
1784246581.551852,0.007289472,-0.108963408,-0.981164455,-0.000317021,-0.000946946,-0.000322273,1.052820683,0.098068818,9.755373001
1784246581.553865,0.007294178,-0.108967558,-0.981163681,-0.000092785,-0.001264735,0.000065548,1.030102253,0.073829703,9.739504814
1784246581.555865,0.007294360,-0.108969003,-0.981163025,0.000199247,-0.001352196,0.000114406,1.025000453,0.060425494,9.743449211
1784246581.557864,0.007293682,-0.108970158,-0.981161833,0.000125320,-0.001161162,0.000205117,1.030505896,0.070227563,9.741275787
1784246581.559859,0.007296726,-0.108971924,-0.981162012,0.000286444,-0.001221861,0.000198220,1.039826751,0.061601911,9.740332603
1784246581.561865,0.007298369,-0.108977646,-0.981160462,0.000563179,-0.001573896,0.000209786,1.045975685,0.086714745,9.726153374
1784246581.563874,0.007307082,-0.108980007,-0.981154561,0.000981402,-0.001781011,0.000597918,1.040163517,0.090198286,9.750828743
1784246581.565868,0.007311549,-0.108985431,-0.981154323,0.001467323,-0.001915182,0.000772739,1.059757471,0.078231558,9.760185242
1784246581.567864,0.007310402,-0.108992882,-0.981159091,0.001259534,-0.002272759,0.000229837,1.066804528,0.065749288,9.738592148
1784246581.569866,0.007309109,-0.108998507,-0.981163502,0.000764374,-0.002617769,-0.000455508,1.066033483,0.075673155,9.730585098
1784246581.571874,0.007308192,-0.109001175,-0.981167555,0.000425113,-0.002545683,-0.000898783,1.058448553,0.079758041,9.736880302
1784246581.573898,0.007309425,-0.109007485,-0.981174946,0.000304998,-0.002493321,-0.001420073,1.057378888,0.064631060,9.723781586
1784246581.575893,0.007313743,-0.109007634,-0.981175125,0.000598589,-0.002280621,-0.001581627,1.054094553,0.090592034,9.733359337
1784246581.577878,0.007322501,-0.109009996,-0.981169760,0.001356251,-0.001830418,-0.000902529,1.053257346,0.097967684,9.768823624
1784246581.579875,0.007333602,-0.109010011,-0.981163979,0.002322571,-0.001563129,-0.000046457,1.050771952,0.114630796,9.761304855
1784246581.581880,0.007335983,-0.109008878,-0.981158793,0.002595068,-0.001129991,0.000613929,1.061327457,0.094976477,9.733841896
1784246581.583884,0.007337034,-0.109011747,-0.981157005,0.002141642,-0.000950201,0.000894651,1.058417559,0.077082984,9.735069275
1784246581.585887,0.007340129,-0.109013759,-0.981156111,0.001827761,-0.001033623,0.000809157,1.055381656,0.085650384,9.732879639
1784246581.587886,0.007343393,-0.109018691,-0.981154561,0.001778617,-0.001222102,0.000710345,1.056826353,0.094112597,9.737418175
1784246581.589888,0.007346228,-0.109017648,-0.981160879,0.001546243,-0.001246414,0.000169332,1.064272761,0.080423407,9.758858681
1784246581.591890,0.007343188,-0.109018147,-0.981169641,0.000875422,-0.000966746,-0.000873795,1.059569001,0.062965915,9.765018463
1784246581.593886,0.007340006,-0.109013446,-0.981164813,0.000279750,-0.000460519,-0.000874011,1.058465838,0.045141637,9.753246307
1784246581.595888,0.007347338,-0.109013587,-0.981148839,0.000728459,-0.000056998,0.000715987,1.056703329,0.045419008,9.717380524
1784246581.597888,0.007344104,-0.109015241,-0.981148899,0.000925233,-0.000155735,0.001565008,1.041027308,0.087082855,9.746325493
1784246581.599888,0.007341720,-0.109013394,-0.981155038,0.000204550,-0.000173715,0.000774398,1.056300282,0.085807420,9.709121704
1784246581.601894,0.007343795,-0.109016560,-0.981147587,0.000093261,-0.000284148,0.000667909,1.083200932,0.122477286,9.733592033
1784246581.603892,0.007345751,-0.109019965,-0.981146991,0.000226345,-0.000531555,0.001022986,1.091026306,0.100128360,9.711935043
1784246581.605901,0.007342823,-0.109018587,-0.981156528,-0.000140956,-0.000411934,0.000163376,1.071833849,0.073314108,9.736851692
1784246581.607897,0.007342033,-0.109014124,-0.981158495,-0.000439772,0.000090635,-0.000641093,1.038204074,0.073926538,9.711268425
1784246581.609900,0.007346869,-0.109010838,-0.981150746,-0.000008512,0.000514888,-0.000106574,1.067462683,0.082391240,9.728386879
1784246581.611898,0.007349852,-0.109014727,-0.981146574,0.000606006,0.000260303,0.000677295,1.059994459,0.097528867,9.755376816
1784246581.613904,0.007352087,-0.109016791,-0.981154740,0.000637251,-0.000202236,0.000199125,1.055582047,0.100607984,9.708317757
1784246581.615909,0.007352386,-0.109015808,-0.981157303,0.000429533,-0.000210064,-0.000580993,1.075041175,0.115035377,9.723672867
1784246581.617911,0.007353402,-0.109016031,-0.981149614,0.000439730,-0.000098043,-0.000083332,1.090585351,0.103031360,9.745577812
1784246581.619903,0.007354937,-0.109020330,-0.981144428,0.000497019,-0.000308173,0.000801165,1.091987610,0.106292933,9.725426674
1784246581.621911,0.007354158,-0.109020717,-0.981142282,0.000376712,-0.000475288,0.001084141,1.086724639,0.079459429,9.727938652
1784246581.623907,0.007356837,-0.109020069,-0.981142104,0.000438473,-0.000236443,0.000931495,1.093809724,0.070112891,9.706365585
1784246581.625912,0.007359878,-0.109018125,-0.981140256,0.000738460,0.000097128,0.000767433,1.074388981,0.060851168,9.720634460
1784246581.627918,0.007364202,-0.109014601,-0.981135368,0.001083984,0.000444875,0.000955582,1.064806104,0.087165706,9.754866600
1784246581.629918,0.007369105,-0.109012499,-0.981135964,0.001389934,0.000662619,0.000930068,1.065469146,0.103845783,9.739283562
1784246581.631926,0.007365077,-0.109013401,-0.981131196,0.001048912,0.000521004,0.000963069,1.057111144,0.079845242,9.727016449
1784246581.633921,0.007361033,-0.109014437,-0.981124163,0.000308848,0.000221719,0.001544841,1.101459861,0.111426905,9.742505074
1784246581.635926,0.007367979,-0.109016255,-0.981119335,0.000510561,-0.000057851,0.001897283,1.061679363,0.087317228,9.739172935
1784246581.637918,0.007370528,-0.109022409,-0.981123507,0.001017495,-0.000584511,0.001358526,1.070594549,0.082684487,9.744532585
1784246581.639961,0.007371102,-0.109024525,-0.981124938,0.000898976,-0.001014591,0.000585926,1.095626473,0.109068252,9.706617355
1784246581.641970,0.007371501,-0.109021299,-0.981116295,0.000763288,-0.000684819,0.000911138,1.048673034,0.086721584,9.720326424
1784246581.643943,0.007370535,-0.109012000,-0.981115043,0.000526347,0.000203659,0.001350013,1.022581100,0.082877122,9.740900040
1784246581.645942,0.007369477,-0.109011248,-0.981117487,0.000172775,0.000677404,0.000928351,1.076357841,0.077196054,9.749882698
1784246581.647938,0.007371765,-0.109010920,-0.981111526,0.000235062,0.000567322,0.000907976,1.084770441,0.105682582,9.761281967
1784246581.649931,0.007378664,-0.109009981,-0.981106043,0.000696845,0.000641644,0.001382054,1.094527006,0.094516069,9.738802910
1784246581.651933,0.007374729,-0.109008931,-0.981109023,0.000546844,0.000740460,0.001167285,1.086116314,0.103635401,9.731678963
1784246581.653938,0.007376932,-0.109007686,-0.981114447,0.000149604,0.000783870,0.000306190,1.068775058,0.115239881,9.706181526
1784246581.655940,0.007376581,-0.109009348,-0.981116176,0.000111250,0.000632462,-0.000267574,1.066488504,0.112901628,9.724098206
1784246581.657941,0.007377654,-0.109012604,-0.981118977,0.000096667,0.000124930,-0.000507228,1.084522128,0.083862856,9.742759705
1784246581.659946,0.007378191,-0.109009370,-0.981124103,0.000073207,0.000188756,-0.000914093,1.084196687,0.092542045,9.719950676
1784246581.661941,0.007380340,-0.109002329,-0.981123507,0.000153596,0.000934842,-0.000989815,1.059215426,0.106985696,9.750058174
1784246581.663945,0.007384517,-0.108999908,-0.981121957,0.000407996,0.001293488,-0.000594401,1.061911702,0.107793078,9.757686615
1784246581.665945,0.007390958,-0.108998701,-0.981124282,0.000860790,0.001157330,-0.000542810,1.063802123,0.077013992,9.735074997
1784246581.667947,0.007394250,-0.108997978,-0.981127322,0.001244691,0.000969555,-0.000830566,1.073481560,0.098373137,9.738359451
1784246581.669948,0.007395395,-0.108998358,-0.981128573,0.001088981,0.000728687,-0.000915102,1.084340453,0.105024517,9.728549004
1784246581.671954,0.007394664,-0.108997427,-0.981126547,0.000739844,0.000571544,-0.000615922,1.084768414,0.104043365,9.739750862
1784246581.673956,0.007399753,-0.108993262,-0.981127322,0.000688425,0.000832752,-0.000377505,1.094204903,0.106057517,9.754568100
1784246581.675990,0.007407431,-0.108992562,-0.981133401,0.001158470,0.001003332,-0.000816886,1.077452302,0.094140299,9.759407043
1784246581.677964,0.007408310,-0.108996928,-0.981132209,0.001385052,0.000479989,-0.000996349,1.056612968,0.114213012,9.746514320
1784246581.679954,0.007411550,-0.108998485,-0.981125832,0.001221152,-0.000029241,-0.000225730,1.082616091,0.110060945,9.716473579
1784246581.681958,0.007417143,-0.108997680,-0.981118143,0.001466282,-0.000046592,0.000735346,1.064527869,0.139480546,9.770445824
1784246581.683955,0.007423826,-0.108993202,-0.981120825,0.001722399,0.000285792,0.000805713,1.075019479,0.113243543,9.723661423
1784246581.685958,0.007421128,-0.108992584,-0.981132627,0.001206490,0.000507144,-0.000389833,1.043747783,0.087677568,9.720777512
1784246581.687958,0.007419792,-0.108993374,-0.981137574,0.000483901,0.000348813,-0.001371418,1.089765429,0.107706904,9.719605446
1784246581.689962,0.007425893,-0.108993649,-0.981137574,0.000571048,0.000276426,-0.001363206,1.082141638,0.107026361,9.703003883
1784246581.691984,0.007427592,-0.108990595,-0.981135726,0.000889526,0.000488274,-0.000922101,1.070162892,0.082826965,9.725254059
1784246581.693967,0.007422622,-0.108988211,-0.981135964,0.000381083,0.000740141,-0.000529186,1.047759056,0.086196080,9.732876778
1784246581.695973,0.007419013,-0.108980186,-0.981143594,-0.000418230,0.001255997,-0.000855543,1.051647663,0.075640917,9.761056900
1784246581.697966,0.007421214,-0.108977176,-0.981141329,-0.000439934,0.001661083,-0.000983926,1.045822978,0.074162290,9.727417946
1784246581.699972,0.007429838,-0.108977832,-0.981133580,0.000457567,0.001346496,-0.000122652,1.061463952,0.106995113,9.744680405
1784246581.701968,0.007435262,-0.108979031,-0.981134236,0.001307662,0.000828548,0.000286859,1.066143274,0.086671881,9.758900642
1784246581.703974,0.007433251,-0.108981006,-0.981139243,0.001114660,0.000410748,-0.000192561,1.060488582,0.101529315,9.758990288
1784246581.705971,0.007423632,-0.108985968,-0.981144726,-0.000076944,-0.000150942,-0.000761538,1.074512005,0.071548186,9.728323936
1784246581.707974,0.007417139,-0.108981773,-0.981143653,-0.001176800,-0.000164302,-0.000740952,1.075514317,0.080873899,9.738248825
1784246581.709983,0.007415660,-0.108978003,-0.981138468,-0.001339455,0.000498953,-0.000053274,1.080972672,0.085846968,9.722146034
1784246581.711982,0.007420481,-0.108974174,-0.981137991,-0.000698507,0.000956715,0.000322395,1.050943613,0.092579551,9.774614334
1784246581.713989,0.007421460,-0.108964160,-0.981141329,-0.000209147,0.001563588,0.000001914,1.033656836,0.107856765,9.736588478
1784246581.715991,0.007417448,-0.108961537,-0.981143475,-0.000468065,0.001922994,-0.000341301,1.050040364,0.091329835,9.762949944
1784246581.717987,0.007415820,-0.108964533,-0.981143653,-0.000738337,0.001374295,-0.000361303,1.045052767,0.087335989,9.766505241
1784246581.719990,0.007420536,-0.108964182,-0.981140733,-0.000341840,0.000732415,-0.000087451,1.065475821,0.067119963,9.737254143
1784246581.721983,0.007420723,-0.108966172,-0.981137693,0.000091942,0.000334029,0.000311233,1.051772714,0.084733687,9.742285728
1784246581.723988,0.007412698,-0.108966321,-0.981141508,-0.000513036,0.000073952,0.000239339,1.051809907,0.125049576,9.743441582
1784246581.725995,0.007407763,-0.108961768,-0.981147170,-0.001363555,0.000324320,-0.000370842,1.059592485,0.100740284,9.745533943
1784246581.727991,0.007404760,-0.108957864,-0.981146276,-0.001564662,0.000806525,-0.000542240,1.041481256,0.086714998,9.734218597
1784246581.729994,0.007406607,-0.108952910,-0.981146991,-0.001332628,0.001115845,-0.000359853,1.046702027,0.072384395,9.723819733
1784246581.731995,0.007403497,-0.108951032,-0.981152534,-0.001218349,0.001200434,-0.000661101,1.043431997,0.101296663,9.759419441
1784246581.733994,0.007400002,-0.108945861,-0.981156111,-0.001478409,0.001248756,-0.001043643,1.057090878,0.078062929,9.725659370
1784246581.736013,0.007398881,-0.108936168,-0.981152296,-0.001464616,0.001817980,-0.000705261,1.050037742,0.087660678,9.711815834
1784246581.737996,0.007389899,-0.108930074,-0.981152892,-0.001724567,0.002396119,-0.000223598,1.032666206,0.099026687,9.719942093
1784246581.740003,0.007383760,-0.108924277,-0.981154561,-0.002386924,0.002482396,-0.000200261,1.065410733,0.098521136,9.732076645
1784246581.742026,0.007370960,-0.108923405,-0.981157601,-0.003144229,0.002189001,-0.000312045,1.069025517,0.100295611,9.728055000
1784246581.744014,0.007371921,-0.108922131,-0.981157422,-0.003174129,0.001753207,-0.000321679,1.072522759,0.092631102,9.728457451
1784246581.746013,0.007380068,-0.108921245,-0.981158257,-0.001767406,0.001438442,-0.000344464,1.051237822,0.078385308,9.753900528
1784246581.748009,0.007379938,-0.108921543,-0.981161833,-0.000779538,0.001085093,-0.000614538,1.049686313,0.098566562,9.754029274
1784246581.750007,0.007381406,-0.108918600,-0.981154561,-0.000583713,0.001009559,-0.000197342,1.022119045,0.082371317,9.749862671
1784246581.752011,0.007383142,-0.108909339,-0.981145144,-0.000218976,0.001612796,0.000977088,1.028249621,0.069344483,9.743509293
1784246581.754009,0.007385157,-0.108903706,-0.981142938,0.000209533,0.001980711,0.001471473,1.050752282,0.111638144,9.741112709
1784246581.756015,0.007387910,-0.108903572,-0.981143653,0.000516524,0.001623023,0.001142163,1.037611246,0.101873405,9.751796722
1784246581.758019,0.007388051,-0.108900174,-0.981146812,0.000542744,0.001420791,0.000541240,1.047630668,0.075051114,9.725183487
1784246581.760020,0.007385474,-0.108895935,-0.981153607,0.000112875,0.001478514,-0.000257134,1.074213028,0.084894188,9.742308617
1784246581.762025,0.007380974,-0.108898044,-0.981156707,-0.000511853,0.001145609,-0.000787169,1.049533844,0.084393971,9.731073380
1784246581.764024,0.007378493,-0.108893752,-0.981160700,-0.000967200,0.000919986,-0.000992682,1.065558076,0.075469062,9.760171890
1784246581.766020,0.007376507,-0.108891390,-0.981164277,-0.001132757,0.001060150,-0.001194591,1.027860045,0.111054510,9.738397598
1784246581.768027,0.007382695,-0.108892880,-0.981164634,-0.000570292,0.000829800,-0.001161929,1.032038093,0.085863508,9.744963646
1784246581.770023,0.007383269,-0.108894862,-0.981161475,-0.000003940,0.000189670,-0.000707274,1.025003433,0.098444343,9.752659798
1784246581.772059,0.007381529,-0.108899489,-0.981158435,-0.000100613,-0.000488928,-0.000089225,1.050314426,0.075356469,9.740430832
1784246581.774031,0.007381342,-0.108899742,-0.981155217,-0.000168353,-0.000731431,0.000380476,1.054128885,0.094105765,9.743245125
1784246581.776033,0.007378921,-0.108899817,-0.981155097,-0.000286226,-0.000600148,0.000525685,1.047423840,0.097229160,9.757156372
1784246581.778070,0.007376653,-0.108901747,-0.981154263,-0.000517163,-0.000574057,0.000486436,1.036536217,0.085488409,9.726584435
1784246581.780042,0.007375865,-0.108901277,-0.981158257,-0.000649519,-0.000643661,0.000168578,1.025383115,0.091004498,9.727056503
1784246581.782051,0.007371169,-0.108902074,-0.981161952,-0.000943338,-0.000618470,-0.000351698,1.032521605,0.088564605,9.742291451
1784246581.784076,0.007376261,-0.108901910,-0.981153965,-0.000707655,-0.000645726,0.000045975,1.043923497,0.105274871,9.766171455
1784246581.786045,0.007377557,-0.108901307,-0.981148720,-0.000066077,-0.000566082,0.000896582,1.037455440,0.089702167,9.762479782
1784246581.788043,0.007375359,-0.108896837,-0.981150150,-0.000080725,-0.000067231,0.000922221,1.015779734,0.078350209,9.759696960
1784246581.790043,0.007372320,-0.108888991,-0.981156230,-0.000503491,0.000485152,0.000201173,1.031406283,0.071455002,9.756079674
1784246581.792048,0.007374379,-0.108885661,-0.981157482,-0.000522939,0.000812559,-0.000342114,1.022282243,0.095413066,9.742774963
1784246581.794049,0.007377062,-0.108882397,-0.981154799,-0.000142657,0.000863397,-0.000178706,1.046527743,0.094009914,9.707369804
1784246581.796051,0.007371616,-0.108884625,-0.981151819,-0.000340607,0.000525468,0.000280476,1.048241258,0.088481016,9.725718498
1784246581.798047,0.007363494,-0.108884543,-0.981158376,-0.001189187,0.000236208,0.000072071,1.050888181,0.086063631,9.745879173
1784246581.800050,0.007363833,-0.108882353,-0.981158018,-0.001460807,0.000257067,-0.000294530,1.049887657,0.077560700,9.746273041
1784246581.802049,0.007362261,-0.108888254,-0.981158793,-0.001175607,-0.000130921,-0.000238141,1.037338018,0.078643024,9.742681503
1784246581.804056,0.007360705,-0.108887628,-0.981164634,-0.001167319,-0.000552973,-0.000595296,1.032670498,0.063901909,9.744824409
1784246581.806065,0.007365196,-0.108885333,-0.981168628,-0.000774965,-0.000305074,-0.001104497,1.006857276,0.082115650,9.750296593
1784246581.808060,0.007365066,-0.108886525,-0.981167495,-0.000291546,-0.000147379,-0.001023963,1.047705412,0.082936347,9.750340462
1784246581.810057,0.007364809,-0.108887732,-0.981169760,-0.000213648,-0.000282417,-0.000822709,1.033030510,0.095112927,9.765647888
1784246581.812065,0.007368725,-0.108884163,-0.981170774,0.000100154,-0.000058470,-0.000854411,1.043252945,0.086914204,9.766053200
1784246581.814075,0.007365047,-0.108880833,-0.981171250,0.000006251,0.000413141,-0.000713833,1.069110394,0.070670374,9.735486984
1784246581.816070,0.007357147,-0.108879499,-0.981174707,-0.000877307,0.000603944,-0.000685777,1.040125489,0.087466002,9.757086754
1784246581.818063,0.007355026,-0.108881950,-0.981175065,-0.001344226,0.000363165,-0.000685225,1.036587954,0.091165662,9.747244835
1784246581.820072,0.007355753,-0.108879946,-0.981167793,-0.001090141,0.000105261,-0.000016422,1.066457748,0.074259937,9.739542961
1784246581.822119,0.007355447,-0.108877972,-0.981164813,-0.000757615,0.000220449,0.000689338,1.039640903,0.081515096,9.712663651
1784246581.824077,0.007359617,-0.108880632,-0.981173396,-0.000353324,0.000003381,0.000100898,1.017213821,0.047113016,9.739321709
1784246581.826076,0.007363840,-0.108884446,-0.981175661,0.000209010,-0.000551296,-0.000708647,1.023077369,0.087300114,9.748103142
1784246581.828084,0.007358510,-0.108883701,-0.981175900,0.000060389,-0.000611242,-0.000665548,1.033688188,0.072945029,9.731432915
1784246581.830075,0.007352884,-0.108880460,-0.981177211,-0.000694946,-0.000270726,-0.000506676,1.032235146,0.064012602,9.730028152
1784246581.832089,0.007354800,-0.108880013,-0.981180012,-0.000774811,-0.000044406,-0.000606934,1.036355734,0.070689797,9.728731155
1784246581.834087,0.007359129,-0.108875386,-0.981178164,-0.000217668,0.000202941,-0.000534120,1.068384051,0.086217411,9.755761147
1784246581.836124,0.007361937,-0.108879767,-0.981177330,0.000274529,0.000056777,-0.000248083,1.029342532,0.085465938,9.742717743
1784246581.838131,0.007362738,-0.108880751,-0.981172621,0.000485009,-0.000319422,0.000175175,1.052474141,0.069396131,9.755637169
1784246581.840113,0.007359426,-0.108880565,-0.981166422,0.000241980,-0.000375649,0.000881238,1.067263961,0.067042910,9.744876862
1784246581.842108,0.007356979,-0.108883299,-0.981166422,-0.000188844,-0.000538096,0.001105689,1.049833059,0.071861207,9.728751183
1784246581.844092,0.007357679,-0.108884178,-0.981172621,-0.000285609,-0.000833457,0.000402070,1.020226836,0.072710872,9.725589752
1784246581.846092,0.007356714,-0.108880237,-0.981175601,-0.000278390,-0.000598153,-0.000324497,1.048988938,0.076345950,9.729675293
1784246581.848095,0.007353220,-0.108878762,-0.981172979,-0.000505783,-0.000068118,-0.000220351,1.028396130,0.082659297,9.761079788
1784246581.850095,0.007352750,-0.108875915,-0.981170893,-0.000638248,0.000117556,0.000197438,1.016249180,0.078509800,9.736383438
1784246581.852099,0.007358231,-0.108874716,-0.981171727,-0.000155665,0.000230456,0.000195708,1.027083755,0.083753720,9.735529900
1784246581.854102,0.007361602,-0.108873650,-0.981170893,0.000411501,0.000166938,0.000103719,1.041897655,0.084831551,9.746312141
1784246581.856101,0.007366340,-0.108872749,-0.981169820,0.000788018,0.000102288,0.000162908,1.073715687,0.080461673,9.736451149
1784246581.858096,0.007364042,-0.108872250,-0.981173277,0.000720620,0.000168532,-0.000064662,1.034812570,0.091341265,9.725722313
1784246581.860107,0.007364854,-0.108874887,-0.981175601,0.000252233,-0.000137566,-0.000413603,1.043967009,0.069245003,9.729177475
1784246581.862098,0.007367089,-0.108880021,-0.981176853,0.000232091,-0.000742664,-0.000561111,1.060560942,0.069778763,9.750267982
1784246581.864104,0.007374018,-0.108888753,-0.981180787,0.000793228,-0.001476671,-0.000831754,1.036751151,0.032267742,9.775561333
1784246581.866104,0.007381402,-0.108893991,-0.981180191,0.001563380,-0.002015838,-0.000938106,1.040611267,0.052999660,9.751487732
1784246581.868106,0.007385343,-0.108892322,-0.981176913,0.001931941,-0.001707670,-0.000506532,1.048131943,0.079918891,9.732836723
1784246581.870107,0.007378448,-0.108892553,-0.981174231,0.001280510,-0.001222814,0.000060579,1.042359233,0.086550884,9.755738258
1784246581.872113,0.007376846,-0.108892635,-0.981174231,0.000407273,-0.000990191,0.000291890,1.078681946,0.082666859,9.732435226
