time_sec,roll_rad,pitch_rad,yaw_rad,gyro_x,gyro_y,gyro_z,acc_x,acc_y,acc_z
1784246761.038606,-0.010357398,-0.119227618,0.104436733,-0.004555573,0.000076631,-0.000295704,1.088113546,-0.140086904,9.725634575
1784246761.040573,-0.010364283,-0.119226746,0.104430944,-0.003921873,-0.000260375,-0.000757053,1.101090312,-0.141750142,9.747157097
1784246761.042556,-0.010371124,-0.119232640,0.104434542,-0.003663198,-0.000776667,-0.000607573,1.082264423,-0.178132758,9.730765343
1784246761.044526,-0.010384738,-0.119232535,0.104446322,-0.003551740,-0.001321358,0.000709731,1.079186201,-0.172329441,9.739317894
1784246761.046564,-0.010391650,-0.119234726,0.104446404,-0.003503412,-0.001464377,0.001436062,1.062078953,-0.176206231,9.748242378
1784246761.048553,-0.010397024,-0.119236670,0.104440533,-0.003426801,-0.001345603,0.000757024,1.083510160,-0.188668966,9.697971344
1784246761.050559,-0.010404035,-0.119231217,0.104437158,-0.002988879,-0.001099433,-0.000024981,1.092993855,-0.182635888,9.714606285
1784246761.052559,-0.010410922,-0.119232349,0.104441553,-0.002689045,-0.000870213,0.000109605,1.080697894,-0.159692481,9.723709106
1784246761.054573,-0.010416028,-0.119228184,0.104448825,-0.002419875,-0.000870195,0.000928873,1.103596807,-0.159461424,9.712972641
1784246761.056624,-0.010411328,-0.119231828,0.104448199,-0.001483250,-0.001037500,0.001092702,1.112714410,-0.110317193,9.716434479
1784246761.058625,-0.010414873,-0.119230881,0.104447380,-0.001014283,-0.000937879,0.000689442,1.107157230,-0.160142973,9.739422798
1784246761.060582,-0.010422166,-0.119229667,0.104445696,-0.001286760,-0.000804685,0.000395034,1.111583591,-0.164327517,9.752849579
1784246761.062592,-0.010423030,-0.119236939,0.104452953,-0.001239448,-0.001271491,0.000701313,1.085982323,-0.168250486,9.720520973
1784246761.064581,-0.010428037,-0.119238198,0.104457729,-0.000973096,-0.001814589,0.001338862,1.078968048,-0.155104041,9.711631775
1784246761.066573,-0.010429381,-0.119243354,0.104462512,-0.000831351,-0.002064676,0.001641572,1.119052529,-0.140248686,9.755702019
1784246761.068552,-0.010431736,-0.119248249,0.104460217,-0.000834854,-0.002188836,0.001392900,1.116238117,-0.153335050,9.710783958
1784246761.070552,-0.010433442,-0.119256109,0.104459628,-0.000731529,-0.002602086,0.000831027,1.099289298,-0.180178046,9.735700607
1784246761.072543,-0.010435100,-0.119263887,0.104468927,-0.000515634,-0.003107402,0.001197022,1.126019835,-0.160654336,9.714331627
1784246761.074549,-0.010435420,-0.119270645,0.104473844,-0.000232087,-0.003425096,0.001825163,1.141908646,-0.144408181,9.732383728
1784246761.076586,-0.010434327,-0.119282722,0.104477815,0.000116901,-0.003943731,0.001902295,1.117150307,-0.151205316,9.724696159
1784246761.078571,-0.010427749,-0.119291686,0.104481116,0.000660944,-0.004305792,0.001814619,1.113383174,-0.165122434,9.735362053
1784246761.080544,-0.010424576,-0.119294778,0.104479760,0.001443200,-0.004085185,0.001338869,1.120387077,-0.179161623,9.743797302
1784246761.082536,-0.010418533,-0.119304240,0.104483008,0.001976517,-0.003960081,0.000992033,1.124257684,-0.156726882,9.732288361
1784246761.084583,-0.010414783,-0.119311556,0.104481697,0.002253198,-0.004173834,0.000755543,1.155816674,-0.144599140,9.734189034
1784246761.086547,-0.010409648,-0.119318925,0.104483761,0.002384172,-0.004184353,0.000511751,1.151696444,-0.151273176,9.735038757
1784246761.088546,-0.010403981,-0.119327061,0.104490198,0.002533537,-0.004105811,0.000858221,1.128415585,-0.146513671,9.737737656
1784246761.090539,-0.010398931,-0.119335525,0.104487196,0.002748962,-0.004299518,0.000748355,1.124886036,-0.140320256,9.755258560
1784246761.092543,-0.010387491,-0.119347163,0.104490004,0.003265644,-0.004676729,0.000378747,1.150403976,-0.147996202,9.717575073
1784246761.094541,-0.010383555,-0.119358897,0.104494594,0.003622313,-0.004990519,0.000632745,1.153141260,-0.144837737,9.709527969
1784246761.096538,-0.010383717,-0.119369112,0.104491450,0.003052205,-0.005118286,0.000510142,1.143001080,-0.128289908,9.732040405
1784246761.098553,-0.010381218,-0.119377770,0.104488611,0.002332811,-0.005007214,-0.000047865,1.138818502,-0.138697073,9.753937721
1784246761.100579,-0.010380243,-0.119385675,0.104484349,0.002044030,-0.004928172,-0.000562315,1.166491866,-0.151555106,9.748053551
1784246761.102545,-0.010375813,-0.119396485,0.104483105,0.001976514,-0.005016678,-0.000847414,1.178720593,-0.144733369,9.711793900
1784246761.104543,-0.010367361,-0.119407766,0.104487188,0.002486182,-0.005126278,-0.000549019,1.170524597,-0.153271481,9.730113029
1784246761.106547,-0.010353099,-0.119420506,0.104488753,0.003542859,-0.005340170,-0.000222988,1.157560945,-0.149073139,9.730128288
1784246761.108553,-0.010338207,-0.119432487,0.104487441,0.004547841,-0.005568086,-0.000382645,1.169358492,-0.139675528,9.710473061
1784246761.110580,-0.010327430,-0.119440287,0.104486950,0.005301895,-0.005409486,-0.000641525,1.170346141,-0.093684353,9.730943680
1784246761.112560,-0.010319904,-0.119447969,0.104482621,0.005330381,-0.004999460,-0.000973717,1.160361052,-0.104991831,9.700821877
1784246761.114552,-0.010313564,-0.119458005,0.104480021,0.004771014,-0.004856054,-0.001289710,1.162224412,-0.100420751,9.684713364
1784246761.116554,-0.010305115,-0.119468026,0.104483277,0.004487105,-0.004918010,-0.001015187,1.176382065,-0.115565501,9.709737778
1784246761.118555,-0.010295708,-0.119477287,0.104483165,0.004497664,-0.004894377,-0.000670057,1.184928179,-0.151479214,9.704134941
1784246761.120558,-0.010288003,-0.119491003,0.104477301,0.004577438,-0.005036057,-0.001051218,1.176252604,-0.124286614,9.739272118
1784246761.122556,-0.010271915,-0.119505383,0.104474768,0.005066274,-0.005484571,-0.001546751,1.189558268,-0.101874053,9.713871956
1784246761.124558,-0.010258964,-0.119514547,0.104474604,0.005641588,-0.005527899,-0.001544777,1.186463714,-0.134601131,9.722178459
1784246761.126562,-0.010251174,-0.119521640,0.104481280,0.005576170,-0.005072467,-0.000855428,1.198997140,-0.137837410,9.713652611
1784246761.128605,-0.010244013,-0.119528204,0.104484424,0.005149365,-0.004630266,-0.000082454,1.189890862,-0.109685913,9.740722656
1784246761.130571,-0.010240430,-0.119535290,0.104479738,0.004532484,-0.004336288,-0.000260117,1.204837084,-0.099458069,9.724662781
1784246761.132566,-0.010228642,-0.119535051,0.104469806,0.004289248,-0.003650728,-0.001307232,1.179801583,-0.091927402,9.718858719
1784246761.134573,-0.010221766,-0.119536288,0.104461372,0.004207975,-0.002700698,-0.002338158,1.188647747,-0.100347333,9.752885818
1784246761.136571,-0.010217320,-0.119543649,0.104453713,0.003672532,-0.002526782,-0.002876199,1.186553240,-0.090631597,9.713494301
1784246761.138567,-0.010205057,-0.119550824,0.104452379,0.003728924,-0.002821537,-0.002836552,1.206976652,-0.108007617,9.725955963
1784246761.140575,-0.010192654,-0.119557157,0.104454048,0.004403386,-0.002866533,-0.002246110,1.242008090,-0.106171727,9.719723701
1784246761.142581,-0.010186177,-0.119564004,0.104449600,0.004479485,-0.002875840,-0.001978976,1.247639656,-0.085647233,9.721653938
1784246761.144574,-0.010174674,-0.119574673,0.104444861,0.004372038,-0.002986314,-0.002200399,1.211609721,-0.095970154,9.726037025
1784246761.146572,-0.010157422,-0.119584553,0.104439832,0.005015098,-0.003271790,-0.002488062,1.202658534,-0.094863854,9.712585449
1784246761.148574,-0.010144938,-0.119586997,0.104428358,0.005523772,-0.003207324,-0.003165388,1.223182201,-0.104154319,9.721960068
1784246761.150577,-0.010142142,-0.119594336,0.104420908,0.004975734,-0.002844139,-0.003712665,1.230559707,-0.086874403,9.735976219
1784246761.152579,-0.010135705,-0.119597510,0.104412720,0.004195592,-0.002631114,-0.003841466,1.212918997,-0.098710150,9.730950356
1784246761.154576,-0.010120330,-0.119604968,0.104402311,0.004351330,-0.002463965,-0.004222908,1.219447494,-0.079010390,9.721221924
1784246761.156580,-0.010105804,-0.119611904,0.104393505,0.005004695,-0.002599346,-0.004609670,1.226711392,-0.072760969,9.711404800
1784246761.158583,-0.010095069,-0.119614005,0.104394153,0.005282070,-0.002502597,-0.004114422,1.230623484,-0.082725093,9.719414711
1784246761.160586,-0.010082313,-0.119614772,0.104394339,0.005345585,-0.001732530,-0.003118148,1.210700870,-0.059674419,9.727165222
1784246761.162585,-0.010075194,-0.119617902,0.104393743,0.005138095,-0.001240473,-0.002447315,1.216757417,-0.078149930,9.731087685
1784246761.164591,-0.010060314,-0.119624287,0.104392447,0.005073505,-0.001260268,-0.002068902,1.225794435,-0.073308721,9.727092743
1784246761.166586,-0.010047101,-0.119627774,0.104385905,0.005388930,-0.001293830,-0.002244058,1.246875405,-0.074859224,9.718135834
1784246761.168586,-0.010029206,-0.119635537,0.104380168,0.005922796,-0.001697440,-0.002716271,1.223308921,-0.055432096,9.737964630
1784246761.170589,-0.010007964,-0.119642124,0.104375802,0.006674014,-0.001906042,-0.002950911,1.222935796,-0.086748041,9.731935501
1784246761.172596,-0.009995180,-0.119640023,0.104373246,0.006902446,-0.001390147,-0.002865904,1.232340097,-0.089445248,9.716235161
1784246761.174598,-0.009985304,-0.119647041,0.104370162,0.006453964,-0.000990692,-0.002642356,1.229735017,-0.043836977,9.734009743
1784246761.176598,-0.009981110,-0.119651742,0.104369201,0.005561288,-0.001162679,-0.002302465,1.228682399,-0.056803629,9.732131958
1784246761.178604,-0.009980795,-0.119652420,0.104371786,0.004368301,-0.001212890,-0.001604007,1.232245803,-0.058273003,9.743335724
1784246761.180636,-0.009973564,-0.119654894,0.104376368,0.003504160,-0.000711871,-0.000713097,1.223891973,-0.045461874,9.720993042
1784246761.182602,-0.009964816,-0.119652763,0.104371697,0.003384354,-0.000150958,-0.000621782,1.249835491,-0.052514747,9.720972061
1784246761.184598,-0.009947697,-0.119660184,0.104372509,0.003876205,0.000235407,-0.000879398,1.248310685,-0.066473320,9.733434677
1784246761.186601,-0.009940763,-0.119657204,0.104378358,0.004197206,0.000566839,-0.000344777,1.223500133,-0.077734150,9.723474503
1784246761.188610,-0.009940035,-0.119655773,0.104379952,0.003634046,0.000707996,0.000187278,1.211155534,-0.059632465,9.720440865
1784246761.190611,-0.009932725,-0.119656675,0.104385652,0.003024291,0.000758869,0.000592320,1.226717234,-0.033909790,9.729587555
1784246761.192606,-0.009927242,-0.119657941,0.104383260,0.002868148,0.000614714,0.000579956,1.175585866,-0.031468898,9.730450630
1784246761.194609,-0.009916350,-0.119659171,0.104384772,0.002770838,0.000295302,0.000280951,1.226107001,-0.047336515,9.728604317
1784246761.196606,-0.009912048,-0.119655348,0.104392454,0.002702004,0.000400372,0.000750983,1.218552470,-0.042199925,9.712938309
1784246761.198605,-0.009906818,-0.119649984,0.104394875,0.002692568,0.000908123,0.001150018,1.196611762,-0.037101921,9.728642464
1784246761.200609,-0.009892268,-0.119643636,0.104394376,0.002997597,0.001566292,0.000847103,1.206096530,-0.030652681,9.749763489
1784246761.202611,-0.009886207,-0.119639322,0.104403071,0.003326505,0.001970068,0.001041372,1.223345518,-0.015526009,9.733736992
1784246761.204634,-0.009872340,-0.119637862,0.104411960,0.003526637,0.002098662,0.001831775,1.203983307,-0.059486430,9.712812424
1784246761.206624,-0.009863430,-0.119631201,0.104412965,0.003802046,0.002356256,0.001867140,1.217678070,-0.077977009,9.705086708
1784246761.208618,-0.009858954,-0.119628727,0.104416892,0.003711810,0.002332939,0.001584384,1.192123652,-0.036647350,9.735813141
1784246761.210620,-0.009853422,-0.119622372,0.104421988,0.003265627,0.002318062,0.001702739,1.213452339,-0.017597996,9.727886200
1784246761.212622,-0.009856196,-0.119612403,0.104428820,0.002475376,0.002814669,0.002043773,1.199680567,-0.005795040,9.731087685
1784246761.214625,-0.009847932,-0.119601347,0.104436532,0.001885854,0.003607465,0.002475110,1.170578837,-0.036832057,9.737585068
1784246761.216627,-0.009842425,-0.119594112,0.104436859,0.001961883,0.004002666,0.002283670,1.179410934,-0.012230302,9.727439880
1784246761.218636,-0.009840346,-0.119589247,0.104436502,0.001940214,0.003736741,0.001599446,1.204552412,-0.012440968,9.711770058
1784246761.220637,-0.009831749,-0.119582206,0.104449645,0.001851351,0.003664377,0.001986094,1.193288565,-0.053899784,9.702528000
1784246761.222643,-0.009838936,-0.119570047,0.104466394,0.001300784,0.004095351,0.003497210,1.194630623,-0.053138752,9.719122887
1784246761.224663,-0.009847938,-0.119563565,0.104471847,-0.000148723,0.004351053,0.004198911,1.208658934,-0.042654943,9.731756210
1784246761.226651,-0.009848841,-0.119550966,0.104476780,-0.000876813,0.004574995,0.003862388,1.194587588,-0.055909190,9.730761528
1784246761.228703,-0.009844745,-0.119539984,0.104491174,-0.000267204,0.004920956,0.004089412,1.184086919,-0.033795677,9.727304459
1784246761.230650,-0.009841111,-0.119531170,0.104495265,0.000156798,0.004975542,0.004199509,1.183013678,-0.047331117,9.742461205
1784246761.232666,-0.009845516,-0.119523540,0.104506448,-0.000133126,0.004788660,0.004133084,1.195242047,-0.003732666,9.701057434
1784246761.234651,-0.009848119,-0.119518504,0.104520150,-0.000710339,0.004400161,0.004786727,1.188647747,0.007558958,9.700226784
1784246761.236649,-0.009848716,-0.119511470,0.104524285,-0.000931133,0.004082091,0.004757571,1.159623384,-0.013950422,9.752964973
1784246761.238657,-0.009848394,-0.119504996,0.104527459,-0.000637738,0.003886241,0.003961024,1.155345082,-0.070404768,9.760667801
1784246761.240655,-0.009851521,-0.119492278,0.104536951,-0.000693028,0.004032020,0.003779068,1.168053269,-0.061723795,9.714108467
1784246761.242656,-0.009851874,-0.119481526,0.104543813,-0.000748874,0.004424823,0.003900812,1.183683991,-0.030997237,9.712529182
1784246761.244655,-0.009848334,-0.119472384,0.104549341,-0.000482249,0.004637548,0.003682699,1.163962483,-0.065735504,9.718563080
1784246761.246647,-0.009845659,-0.119460605,0.104560062,-0.000052768,0.004860537,0.003759233,1.162187099,-0.062316418,9.745034218
1784246761.248650,-0.009849563,-0.119450875,0.104565158,0.000006606,0.004989719,0.003814398,1.150296211,-0.044992395,9.724510193
1784246761.250652,-0.009848885,-0.119438395,0.104571193,-0.000365703,0.005053970,0.003582982,1.150849581,-0.037281059,9.710214615
1784246761.252662,-0.009851995,-0.119431101,0.104573958,-0.000602131,0.004939404,0.003251087,1.122708201,-0.026193226,9.713845253
1784246761.254655,-0.009862377,-0.119423620,0.104577325,-0.001520080,0.004432559,0.002915503,1.128355980,-0.040698111,9.727208138
1784246761.256655,-0.009879875,-0.119416401,0.104585826,-0.003112251,0.004052188,0.003174954,1.162419796,-0.043864153,9.733048439
1784246761.258664,-0.009889526,-0.119412467,0.104589112,-0.004001633,0.003700400,0.003327872,1.146792054,-0.035355173,9.761781693
1784246761.260668,-0.009888170,-0.119405910,0.104590222,-0.003618861,0.003310894,0.002808352,1.129809260,-0.030548982,9.746553421
1784246761.262664,-0.009892411,-0.119393781,0.104596086,-0.002954611,0.003580187,0.002559944,1.131824374,-0.051428400,9.717727661
1784246761.264661,-0.009897863,-0.119377948,0.104602344,-0.002862588,0.004408128,0.002779019,1.160650730,-0.042420968,9.722296715
1784246761.266668,-0.009901169,-0.119371958,0.104610980,-0.002710071,0.004595264,0.003116948,1.147430301,-0.024139261,9.695501328
1784246761.268671,-0.009905327,-0.119364612,0.104615755,-0.002368891,0.004243908,0.003234412,1.133380651,-0.032764830,9.736678123
1784246761.270668,-0.009905349,-0.119352907,0.104613744,-0.002187416,0.004317086,0.002599637,1.114174366,-0.026960837,9.711142540
1784246761.272667,-0.009910319,-0.119348235,0.104609549,-0.002182285,0.004195425,0.001540324,1.127197385,-0.061391398,9.740972519
1784246761.274666,-0.009910910,-0.119344682,0.104608990,-0.002076916,0.003493176,0.000855628,1.120287180,-0.076500848,9.735937119
1784246761.276677,-0.009910933,-0.119342439,0.104610227,-0.001623026,0.002813544,0.000681429,1.122829437,-0.088662095,9.740345001
1784246761.278670,-0.009914826,-0.119330347,0.104611047,-0.001429664,0.003021226,0.000666535,1.112344384,-0.066021137,9.725684166
1784246761.280711,-0.009918783,-0.119317591,0.104609892,-0.001626937,0.003644921,0.000531417,1.114145756,-0.029213361,9.712921143
1784246761.282684,-0.009926220,-0.119315550,0.104608074,-0.002030819,0.003418998,0.000284367,1.115362048,-0.036738209,9.760846138
1784246761.284680,-0.009932996,-0.119316079,0.104609206,-0.002641836,0.002428652,0.000297860,1.126908660,-0.047559261,9.749578476
1784246761.286676,-0.009939233,-0.119311906,0.104615323,-0.002942020,0.001846417,0.000832197,1.098888397,-0.067024022,9.701905251
1784246761.288687,-0.009945943,-0.119303748,0.104614712,-0.002971372,0.002177077,0.001081548,1.093144655,-0.057732876,9.728857994
1784246761.290689,-0.009955175,-0.119294576,0.104614913,-0.003369602,0.002604230,0.000902601,1.091899753,-0.084780291,9.754239082
1784246761.292691,-0.009963392,-0.119291209,0.104613014,-0.003771520,0.002593068,0.000698058,1.080929756,-0.101629846,9.749188423
1784246761.294682,-0.009963382,-0.119283266,0.104616210,-0.003271033,0.002395729,0.000657569,1.069111705,-0.079273336,9.713902473
1784246761.296684,-0.009969271,-0.119274877,0.104613289,-0.002757879,0.002592908,0.000539949,1.081677675,-0.077795088,9.735443115
1784246761.298690,-0.009979261,-0.119271442,0.104614921,-0.003089686,0.002690273,0.000434833,1.105401516,-0.083011471,9.733191490
1784246761.300694,-0.009987289,-0.119263753,0.104617529,-0.003497608,0.002526571,0.000753826,1.105875492,-0.082006834,9.717058182
1784246761.302686,-0.009997640,-0.119262725,0.104617506,-0.003832427,0.002246394,0.000876942,1.111713409,-0.080016643,9.741735458
1784246761.304689,-0.010007475,-0.119257763,0.104614854,-0.004204215,0.001847779,0.000622359,1.071372986,-0.077135406,9.724229813
1784246761.306692,-0.010018348,-0.119252503,0.104612924,-0.004525873,0.001846703,0.000312067,1.092691898,-0.095348895,9.726823807
1784246761.308693,-0.010024898,-0.119247004,0.104608551,-0.004522284,0.002078231,-0.000056720,1.105666757,-0.098244712,9.732645035
1784246761.310692,-0.010035607,-0.119241953,0.104604147,-0.004575857,0.002032509,-0.000489128,1.102269650,-0.120894678,9.710529327
1784246761.312700,-0.010044532,-0.119242556,0.104598932,-0.004781995,0.001587242,-0.000842796,1.084441066,-0.109589696,9.728068352
1784246761.314698,-0.010053756,-0.119236998,0.104591340,-0.004805241,0.001244943,-0.001335012,1.084719539,-0.122691244,9.742779732
1784246761.316746,-0.010057167,-0.119238168,0.104587041,-0.004442943,0.000955385,-0.001675155,1.083613276,-0.140134335,9.740426064
1784246761.318703,-0.010066698,-0.119236909,0.104582556,-0.004179924,0.000707130,-0.001706533,1.076520443,-0.134091675,9.722524643
1784246761.320703,-0.010080908,-0.119229153,0.104582295,-0.004583228,0.000764582,-0.001386025,1.092370749,-0.123011194,9.710953712
1784246761.322702,-0.010086796,-0.119233482,0.104578242,-0.004628014,0.000425767,-0.001154264,1.088343024,-0.120850004,9.729346275
1784246761.324710,-0.010095295,-0.119232140,0.104567863,-0.004391808,-0.000197509,-0.001709170,1.075210333,-0.092957996,9.737134933
1784246761.326716,-0.010104569,-0.119231440,0.104552418,-0.004539680,-0.000301585,-0.002852096,1.077957153,-0.089319773,9.724605560
1784246761.328741,-0.010114649,-0.119228050,0.104546018,-0.004787859,0.000072323,-0.003393595,1.070288658,-0.091973394,9.733548164
1784246761.330717,-0.010121413,-0.119224131,0.104543127,-0.004774704,0.000067544,-0.002958923,1.079907775,-0.112734720,9.737459183
1784246761.332755,-0.010134575,-0.119230762,0.104545660,-0.004900604,-0.000622321,-0.002014496,1.096250534,-0.134446383,9.736886978
1784246761.334728,-0.010147926,-0.119229466,0.104544893,-0.005119658,-0.001160500,-0.001164425,1.100228190,-0.139838681,9.731925011
1784246761.336722,-0.010157209,-0.119235344,0.104548723,-0.005007594,-0.001501820,-0.000490287,1.078021049,-0.118703730,9.761180878
1784246761.338726,-0.010164318,-0.119242333,0.104543418,-0.004764802,-0.001966201,-0.000325063,1.100249529,-0.099243350,9.756842613
1784246761.340729,-0.010174802,-0.119240716,0.104540721,-0.004712080,-0.002174507,-0.000637415,1.115784049,-0.115377225,9.729406357
1784246761.342755,-0.010184991,-0.119243950,0.104541220,-0.004834656,-0.002075076,-0.000448625,1.099091053,-0.121556781,9.746387482
1784246761.344742,-0.010194966,-0.119245157,0.104535803,-0.004834832,-0.002164376,-0.000510423,1.079589963,-0.141178474,9.705445290
1784246761.346741,-0.010206483,-0.119251296,0.104533695,-0.004945192,-0.002425235,-0.000719174,1.096801639,-0.128374279,9.701061249
1784246761.348781,-0.010217026,-0.119252414,0.104530692,-0.005130600,-0.002255258,-0.000688890,1.116008759,-0.133361831,9.737810135
1784246761.350749,-0.010225823,-0.119252861,0.104527183,-0.004919866,-0.001954282,-0.000809707,1.122701406,-0.136583790,9.737796783
1784246761.352737,-0.010226524,-0.119260162,0.104522109,-0.004119455,-0.002154652,-0.001115652,1.080567598,-0.132453322,9.736884117
1784246761.354737,-0.010229403,-0.119262137,0.104516476,-0.003230336,-0.002464805,-0.001519476,1.139037013,-0.159162775,9.733182907
1784246761.356738,-0.010233128,-0.119266778,0.104507849,-0.002815185,-0.002506918,-0.002029625,1.107932806,-0.170031890,9.742498398
1784246761.358737,-0.010237755,-0.119275361,0.104508460,-0.002678502,-0.002718569,-0.001951239,1.106732130,-0.157519400,9.749302864
1784246761.360737,-0.010242688,-0.119285591,0.104510061,-0.002315587,-0.003455662,-0.001229048,1.103680134,-0.151509419,9.728714943
1784246761.362754,-0.010248139,-0.119292587,0.104506567,-0.002139783,-0.003882017,-0.000973241,1.105631113,-0.138141260,9.735527992
1784246761.364751,-0.010257021,-0.119293407,0.104505934,-0.002402764,-0.003593757,-0.000892484,1.115297675,-0.156500608,9.716589928
1784246761.366744,-0.010259043,-0.119302541,0.104507118,-0.002325409,-0.003532425,-0.000545225,1.110708952,-0.126951426,9.727982521
1784246761.368749,-0.010264489,-0.119311146,0.104499064,-0.002252882,-0.003772807,-0.000799263,1.110246181,-0.127867043,9.731562614
1784246761.370757,-0.010271245,-0.119315177,0.104496926,-0.002469590,-0.003835803,-0.001182701,1.131862521,-0.159842700,9.715686798
1784246761.372776,-0.010271609,-0.119324088,0.104499944,-0.002195444,-0.003908669,-0.000757475,1.146038651,-0.137251213,9.726606369
1784246761.374779,-0.010274321,-0.119327046,0.104500547,-0.001631959,-0.003732569,-0.000301432,1.109121442,-0.147076547,9.725609779
1784246761.376766,-0.010275373,-0.119335689,0.104491666,-0.001363996,-0.003579875,-0.000763580,1.124734402,-0.155296519,9.719296455
1784246761.378778,-0.010276197,-0.119348049,0.104484953,-0.001245978,-0.004022793,-0.001590859,1.123726487,-0.163856715,9.727758408
1784246761.380766,-0.010276983,-0.119350731,0.104491599,-0.000781016,-0.004193746,-0.001181174,1.150355697,-0.152428105,9.710820198
1784246761.382762,-0.010277944,-0.119361997,0.104490496,-0.000406270,-0.004248999,-0.000503191,1.132560968,-0.138425797,9.727033615
1784246761.384764,-0.010287398,-0.119371943,0.104484871,-0.000913192,-0.004672284,-0.000752785,1.155951381,-0.133403286,9.734710693
1784246761.386778,-0.010284980,-0.119379796,0.104487151,-0.001027313,-0.004750622,-0.000734355,1.154813528,-0.152311087,9.749382019
1784246761.388774,-0.010284337,-0.119392946,0.104485951,-0.000533256,-0.004887349,-0.000485782,1.140893579,-0.153835669,9.736805916
1784246761.390766,-0.010292716,-0.119403124,0.104478285,-0.000717561,-0.005283309,-0.000920976,1.153062224,-0.150324538,9.725183487
1784246761.392771,-0.010293576,-0.119415455,0.104480661,-0.000924165,-0.005518533,-0.000985103,1.177634597,-0.159990698,9.717075348
1784246761.394764,-0.010297173,-0.119424902,0.104483299,-0.000621721,-0.005464771,-0.000379980,1.180769324,-0.161295339,9.705861092
1784246761.396780,-0.010298898,-0.119430877,0.104484558,-0.000468861,-0.004992456,-0.000009055,1.160396457,-0.173408195,9.744769096
1784246761.398777,-0.010299136,-0.119438984,0.104482211,-0.000482695,-0.004591040,-0.000063652,1.164815426,-0.179676726,9.736214638
1784246761.400778,-0.010301295,-0.119447052,0.104480870,-0.000168971,-0.004498768,-0.000320647,1.172976971,-0.136252299,9.726637840
1784246761.402773,-0.010296707,-0.119458660,0.104480460,0.000400330,-0.004669765,-0.000418392,1.192512870,-0.115543902,9.740688324
1784246761.404778,-0.010301257,-0.119466744,0.104481295,0.000418201,-0.004665280,-0.000290940,1.171405435,-0.117446736,9.731240273
1784246761.406774,-0.010301108,-0.119472720,0.104480363,0.000127964,-0.004280760,-0.000196450,1.173199058,-0.118289329,9.720477104
1784246761.408778,-0.010300992,-0.119477913,0.104475416,0.000063528,-0.003873687,-0.000541866,1.173081160,-0.128945008,9.706958771
1784246761.410811,-0.010301263,-0.119486019,0.104472414,0.000052312,-0.003648636,-0.000938254,1.166241884,-0.139444485,9.683570862
1784246761.412795,-0.010296508,-0.119495481,0.104477376,0.000437248,-0.003780788,-0.000596230,1.175106049,-0.146504655,9.715365410
1784246761.414828,-0.010298532,-0.119500257,0.104486376,0.000772098,-0.003684637,0.000466421,1.208377242,-0.178722009,9.712500572
1784246761.416799,-0.010294771,-0.119501777,0.104484841,0.000896366,-0.003070669,0.000810148,1.187718034,-0.142637163,9.715850830
1784246761.418799,-0.010290555,-0.119509682,0.104479030,0.001131275,-0.002870638,0.000030448,1.187785864,-0.138049439,9.700636864
1784246761.420795,-0.010288130,-0.119522877,0.104476690,0.001331283,-0.003408867,-0.000595475,1.189690471,-0.127883822,9.716844559
1784246761.422793,-0.010285650,-0.119531006,0.104478441,0.001421296,-0.003821569,-0.000528154,1.213128448,-0.120055854,9.707949638
1784246761.424793,-0.010279840,-0.119537964,0.104478978,0.001618058,-0.003656762,-0.000295792,1.213704944,-0.146106347,9.715852737
1784246761.426811,-0.010270303,-0.119545653,0.104473546,0.002178915,-0.003501886,-0.000667215,1.205747604,-0.135334447,9.727571487
1784246761.428827,-0.010263263,-0.119549319,0.104469180,0.002625256,-0.003315369,-0.001280307,1.231740713,-0.139159396,9.714570999
1784246761.430808,-0.010260501,-0.119559482,0.104469143,0.002733088,-0.003125589,-0.001329843,1.222903490,-0.125805900,9.742892265
1784246761.432801,-0.010253559,-0.119567387,0.104469568,0.002843901,-0.003277664,-0.001042563,1.235861540,-0.129645333,9.755434036
1784246761.434816,-0.010245181,-0.119576842,0.104470275,0.003196163,-0.003355491,-0.000814616,1.233939767,-0.141971305,9.728005409
1784246761.436806,-0.010241201,-0.119579941,0.104469024,0.003239556,-0.003085349,-0.000737336,1.224390864,-0.152573019,9.723892212
1784246761.438804,-0.010237976,-0.119584933,0.104464985,0.002802730,-0.002791848,-0.000952021,1.208353519,-0.142939791,9.721248627
1784246761.440852,-0.010231460,-0.119593084,0.104465537,0.002915506,-0.002835116,-0.001036956,1.219335318,-0.123971246,9.743350029
1784246761.442842,-0.010223090,-0.119600438,0.104467474,0.003392785,-0.003035103,-0.000738106,1.214256883,-0.097980909,9.752029419
1784246761.444830,-0.010220430,-0.119606331,0.104463369,0.003200460,-0.003011426,-0.000773036,1.202281356,-0.125398338,9.722700119
1784246761.446823,-0.010219179,-0.119609170,0.104453750,0.002486866,-0.002677582,-0.001519702,1.236865997,-0.122327305,9.732616425
1784246761.448822,-0.010212075,-0.119613886,0.104453132,0.002291776,-0.002457099,-0.001864681,1.244298458,-0.102588177,9.715713501
1784246761.450822,-0.010203199,-0.119621903,0.104459494,0.002851343,-0.002400242,-0.001104556,1.208693862,-0.077131443,9.728396416
1784246761.452823,-0.010194735,-0.119626120,0.104458779,0.003349811,-0.002323692,-0.000568525,1.242509961,-0.099677458,9.750700951
1784246761.454823,-0.010188089,-0.119638376,0.104454659,0.003476050,-0.002585153,-0.000866145,1.230150580,-0.120500095,9.739794731
1784246761.456823,-0.010179196,-0.119641557,0.104450524,0.003569358,-0.002702205,-0.001317220,1.222543836,-0.117803618,9.752359390
1784246761.458830,-0.010167535,-0.119640231,0.104450516,0.003951719,-0.002090337,-0.001406766,1.234822392,-0.106130615,9.726890564
1784246761.460838,-0.010157887,-0.119639687,0.104451373,0.004361107,-0.001180024,-0.001144271,1.247460008,-0.099222779,9.740844727
1784246761.462830,-0.010149450,-0.119635440,0.104445077,0.004391252,-0.000313553,-0.001349479,1.255141616,-0.096060783,9.723388672
1784246761.464833,-0.010140264,-0.119634137,0.104442969,0.004233634,0.000392701,-0.001679357,1.237405419,-0.114727244,9.734010696
1784246761.466933,-0.010135209,-0.119632475,0.104444295,0.003952846,0.000725676,-0.001379390,1.247252107,-0.116671011,9.737594604
1784246761.468852,-0.010130628,-0.119628429,0.104443148,0.003530541,0.000916040,-0.001071245,1.227314353,-0.096574828,9.719771385
1784246761.470842,-0.010121258,-0.119623072,0.104438506,0.003428076,0.001541139,-0.001276972,1.197989345,-0.110024318,9.710690498
1784246761.472840,-0.010116461,-0.119620331,0.104437657,0.003370492,0.001906227,-0.001409266,1.198730588,-0.086647056,9.698287964
1784246761.474837,-0.010108481,-0.119623624,0.104438655,0.003264967,0.001396474,-0.001112924,1.228149414,-0.101536147,9.722878456
1784246761.476866,-0.010102625,-0.119625695,0.104430944,0.003203794,0.000703848,-0.001368154,1.252959490,-0.091495194,9.715345383
1784246761.478898,-0.010099206,-0.119623199,0.104434736,0.002927381,0.000542431,-0.001335921,1.252505064,-0.090723895,9.733731270
1784246761.480858,-0.010101689,-0.119625174,0.104438059,0.002256926,0.000694905,-0.000499349,1.206914425,-0.074960843,9.741411209
1784246761.482847,-0.010103172,-0.119620770,0.104442626,0.001444226,0.000934918,0.000200547,1.211015105,-0.069252692,9.750418663
1784246761.484844,-0.010095026,-0.119616002,0.104442731,0.001398572,0.001411630,0.000424135,1.232573032,-0.069369666,9.728020668
1784246761.486848,-0.010086454,-0.119612001,0.104439676,0.001981250,0.001737922,-0.000007832,1.193673134,-0.094027832,9.737240791
1784246761.488846,-0.010073421,-0.119612001,0.104439266,0.002871326,0.001539174,-0.000414466,1.203203678,-0.086812668,9.713534355
1784246761.490848,-0.010058083,-0.119609781,0.104437388,0.003898927,0.001354079,-0.000674214,1.241394877,-0.083247446,9.710454941
1784246761.492846,-0.010048992,-0.119603142,0.104432538,0.004345700,0.001674135,-0.001132159,1.230729222,-0.073784955,9.722163200
1784246761.494846,-0.010046839,-0.119602866,0.104433477,0.003747607,0.001843371,-0.001160711,1.209515452,-0.082604326,9.740467072
1784246761.496842,-0.010045660,-0.119596131,0.104436234,0.002840451,0.001968199,-0.000604593,1.189419746,-0.073484950,9.754405022
1784246761.498847,-0.010039086,-0.119591832,0.104438558,0.002632859,0.002180019,-0.000161969,1.221391916,-0.102879643,9.734968185
1784246761.500854,-0.010031054,-0.119590059,0.104440324,0.003005065,0.002221462,0.000034317,1.174189091,-0.073089160,9.726148605
1784246761.502847,-0.010023295,-0.119580969,0.104448728,0.003405323,0.002571811,0.000576439,1.188243985,-0.059965283,9.745523453
1784246761.504852,-0.010010703,-0.119581833,0.104453012,0.003765519,0.002519314,0.001132229,1.200681806,-0.034065630,9.735389709
1784246761.506853,-0.010007598,-0.119587049,0.104454331,0.003656849,0.001515771,0.001097905,1.192605495,-0.036795810,9.692773819
1784246761.508853,-0.010000021,-0.119585410,0.104459174,0.003433700,0.000857918,0.001127235,1.185147047,-0.058361754,9.714595795
1784246761.510854,-0.009996507,-0.119576909,0.104458697,0.003119212,0.001352939,0.001045478,1.150007844,-0.069557130,9.714042664
1784246761.512858,-0.009998550,-0.119565628,0.104461879,0.002228281,0.002368884,0.000952414,1.173866510,-0.063577659,9.712310791
1784246761.514868,-0.009990348,-0.119558819,0.104464136,0.001939513,0.003014224,0.001029077,1.211749554,-0.082706206,9.750780106
1784246761.516864,-0.009985244,-0.119553708,0.104469761,0.002230626,0.003064294,0.001191692,1.205068231,-0.081828602,9.702359200
1784246761.518862,-0.009980048,-0.119545422,0.104472727,0.002388721,0.003137018,0.001364427,1.208496451,-0.056500401,9.725839615
1784246761.520869,-0.009971643,-0.119534902,0.104476154,0.002581864,0.003676130,0.001330629,1.187439084,-0.055575557,9.696682930
1784246761.522869,-0.009970716,-0.119524427,0.104481317,0.002452502,0.004214665,0.001486908,1.170079947,-0.043707520,9.697190285
1784246761.524868,-0.009966931,-0.119512260,0.104485981,0.002014454,0.004609916,0.001726589,1.167306542,-0.047555607,9.739306450
1784246761.526873,-0.009959304,-0.119502120,0.104488999,0.002129528,0.004876389,0.001703194,1.176781893,-0.044829588,9.716916084
1784246761.528891,-0.009954905,-0.119497806,0.104493737,0.002424505,0.004528370,0.001665414,1.154760003,-0.047664523,9.714186668
1784246761.530874,-0.009950549,-0.119492032,0.104496449,0.002328687,0.003972095,0.001653763,1.160071969,-0.015172870,9.735023499
1784246761.532916,-0.009951260,-0.119487651,0.104505651,0.001950712,0.003568074,0.001987777,1.156801343,-0.026693758,9.722842216
1784246761.534884,-0.009952731,-0.119476572,0.104511783,0.001208308,0.003619000,0.002521113,1.187718034,-0.066647150,9.740996361
1784246761.536880,-0.009951437,-0.119466104,0.104518302,0.000780913,0.004070075,0.002713560,1.163375258,-0.037337475,9.758646965
1784246761.538889,-0.009950657,-0.119459376,0.104519926,0.000774811,0.004127503,0.002509744,1.160267353,-0.035416361,9.746103287
1784246761.540887,-0.009947375,-0.119449981,0.104518645,0.000680254,0.004083524,0.001837143,1.156775475,0.009476013,9.740109444
1784246761.542885,-0.009944508,-0.119440861,0.104525357,0.000793137,0.004209527,0.001673262,1.127859712,-0.044714473,9.725836754
1784246761.544880,-0.009942399,-0.119428493,0.104536541,0.000892189,0.004367933,0.002402710,1.121684313,-0.070037164,9.769605637
1784246761.546890,-0.009939311,-0.119420677,0.104543544,0.000981410,0.004393041,0.002951680,1.123185277,-0.059106201,9.741879463
1784246761.548903,-0.009932442,-0.119413719,0.104548067,0.001479188,0.004193774,0.002845624,1.164165735,-0.048325423,9.727192879
1784246761.550896,-0.009927327,-0.119403474,0.104553737,0.001825316,0.004175337,0.002678784,1.125064611,-0.054004490,9.714118004
1784246761.552897,-0.009935838,-0.119395293,0.104559071,0.001047291,0.004243903,0.002736581,1.096762061,-0.057966098,9.692096710
1784246761.554892,-0.009940238,-0.119384788,0.104564734,-0.000117843,0.004155870,0.002849173,1.125088215,-0.050980050,9.729827881
1784246761.556896,-0.009942832,-0.119380660,0.104573980,-0.000536172,0.003815782,0.003146964,1.156727791,-0.033352766,9.714280128
1784246761.558904,-0.009939468,-0.119371541,0.104581021,-0.000207016,0.003669082,0.003383523,1.144237280,-0.027346037,9.711169243
1784246761.560904,-0.009934335,-0.119359173,0.104577675,0.000202877,0.004051782,0.002674312,1.115967035,-0.063779630,9.718977928
1784246761.562904,-0.009936177,-0.119350575,0.104578987,0.000104169,0.004300963,0.001813880,1.124003410,-0.030664649,9.710231781
1784246761.564904,-0.009938722,-0.119337834,0.104584247,-0.000331039,0.004464534,0.001818199,1.124527812,-0.059962142,9.733805656
1784246761.566899,-0.009945573,-0.119333945,0.104584411,-0.000995012,0.004263671,0.001782908,1.118165255,-0.066597886,9.733309746
1784246761.568904,-0.009948971,-0.119332187,0.104586847,-0.001394657,0.003487685,0.001555254,1.102155328,-0.053504974,9.748171806
1784246761.570906,-0.009952858,-0.119324565,0.104590677,-0.001559219,0.002973583,0.001624571,1.112688661,-0.036150824,9.746052742
1784246761.572906,-0.009958839,-0.119316950,0.104592800,-0.001855606,0.002996950,0.001677004,1.112065554,-0.051299442,9.735194206
1784246761.574911,-0.009962814,-0.119308874,0.104595289,-0.002106681,0.003086904,0.001625292,1.121535778,-0.048614759,9.718631744
1784246761.576920,-0.009968335,-0.119301014,0.104595877,-0.002271052,0.003170899,0.001479441,1.085342526,-0.069952659,9.760156631
1784246761.578920,-0.009973102,-0.119294487,0.104598984,-0.002317979,0.003285081,0.001409706,1.095870972,-0.054256812,9.739194870
1784246761.580913,-0.009978152,-0.119288072,0.104601659,-0.002374491,0.003007634,0.001501274,1.100157380,-0.034518771,9.728117943
1784246761.582918,-0.009987392,-0.119281769,0.104601800,-0.002740891,0.002792021,0.001404922,1.109489560,-0.041838687,9.732563019
1784246761.584918,-0.009993350,-0.119275346,0.104604132,-0.003205902,0.002709083,0.001334829,1.106257200,-0.048193898,9.750004768
1784246761.586912,-0.010000750,-0.119274370,0.104606323,-0.003404225,0.002286392,0.001408334,1.116573215,-0.013604810,9.718852043
1784246761.588917,-0.010004642,-0.119270474,0.104612999,-0.003169447,0.001990829,0.001715278,1.103991508,-0.051986951,9.720388412
1784246761.590928,-0.010004948,-0.119261689,0.104614086,-0.002777887,0.002079788,0.001832619,1.108575821,-0.079950958,9.738144875
1784246761.592929,-0.010008162,-0.119255483,0.104606643,-0.002560900,0.002313189,0.000962185,1.091787934,-0.056584787,9.758902550
1784246761.594934,-0.010005851,-0.119248383,0.104603656,-0.002151319,0.002266401,0.000020394,1.068850279,-0.062794767,9.728354454
1784246761.596924,-0.010010480,-0.119246095,0.104600847,-0.001910886,0.001960963,-0.000342363,1.108465910,-0.054169782,9.704236984
1784246761.598924,-0.010015930,-0.119240880,0.104600623,-0.002095739,0.001938890,-0.000371408,1.122380137,-0.051476188,9.741480827
1784246761.600929,-0.010011151,-0.119231924,0.104598135,-0.001793292,0.002206307,-0.000426398,1.101913810,-0.074460573,9.734139442
1784246761.602937,-0.010017887,-0.119230963,0.104590505,-0.001719545,0.002117699,-0.000955668,1.068120360,-0.085272931,9.740314484
1784246761.604936,-0.010029396,-0.119225688,0.104581259,-0.002646933,0.001543857,-0.001688616,1.085358620,-0.069825478,9.742222786
1784246761.606933,-0.010035945,-0.119227104,0.104578450,-0.003270824,0.000961278,-0.001898463,1.088014483,-0.073389612,9.734582901
1784246761.608936,-0.010037726,-0.119223796,0.104574382,-0.002999486,0.000833379,-0.001777752,1.084366322,-0.077858195,9.739480972
1784246761.610948,-0.010046978,-0.119213507,0.104571633,-0.003123046,0.001139432,-0.001651998,1.081711650,-0.075501233,9.727837563
1784246761.612944,-0.010052613,-0.119216792,0.104572155,-0.003435708,0.000912707,-0.001220262,1.089750290,-0.077120289,9.752044678
1784246761.614945,-0.010059443,-0.119209327,0.104568131,-0.003483790,0.000620274,-0.001014482,1.084525704,-0.066468403,9.712654114
1784246761.616979,-0.010068781,-0.119208336,0.104564212,-0.003804316,0.000699968,-0.001134173,1.095885992,-0.054139171,9.722607613
1784246761.618951,-0.010074390,-0.119212404,0.104564451,-0.003808309,0.000303911,-0.000952755,1.098742127,-0.075878680,9.750267982
1784246761.620954,-0.010075696,-0.119206622,0.104568012,-0.003341851,0.000043560,-0.000368395,1.103809476,-0.065988213,9.736437798
1784246761.622955,-0.010082703,-0.119209878,0.104562201,-0.003145136,-0.000088127,-0.000339740,1.084072232,-0.102874063,9.729456902
1784246761.624943,-0.010092634,-0.119206905,0.104559407,-0.003455243,-0.000392836,-0.000699837,1.077696204,-0.071621336,9.756550789
1784246761.626951,-0.010102815,-0.119206406,0.104551353,-0.003913151,-0.000359546,-0.001087472,1.110257506,-0.088971347,9.743469238
1784246761.628950,-0.010108033,-0.119206250,0.104546584,-0.003991867,-0.000211050,-0.001531229,1.093581438,-0.093800656,9.759562492
1784246761.630952,-0.010115689,-0.119201824,0.104540110,-0.003923848,-0.000194771,-0.001764556,1.102301359,-0.080216698,9.723791122
1784246761.632952,-0.010118612,-0.119209409,0.104533441,-0.003734968,-0.000705505,-0.002081636,1.093943477,-0.102597103,9.735745430
1784246761.634955,-0.010122942,-0.119212501,0.104528084,-0.003259020,-0.001549417,-0.002278614,1.079983115,-0.105249740,9.755889893
1784246761.636953,-0.010128935,-0.119217634,0.104524806,-0.003091944,-0.002001816,-0.002168765,1.101299644,-0.087919094,9.737639427
1784246761.638958,-0.010135842,-0.119221181,0.104520366,-0.003184282,-0.002041641,-0.001997208,1.108890176,-0.089122616,9.767229080
1784246761.640964,-0.010140955,-0.119226351,0.104509160,-0.003252781,-0.002301307,-0.002415072,1.091670036,-0.103210293,9.763086319
1784246761.642963,-0.010147170,-0.119231731,0.104509875,-0.003214475,-0.002619520,-0.002377076,1.105390549,-0.119877219,9.750887871
1784246761.644962,-0.010156805,-0.119232200,0.104512155,-0.003348032,-0.002531362,-0.001409176,1.111827254,-0.107792795,9.741107941
1784246761.646959,-0.010166335,-0.119238898,0.104502551,-0.003752045,-0.002549733,-0.001372935,1.118401408,-0.121676810,9.728472710
1784246761.648973,-0.010172048,-0.119245633,0.104499035,-0.003866718,-0.002760497,-0.001762540,1.107710719,-0.114841670,9.731643677
1784246761.650982,-0.010174562,-0.119248822,0.104495317,-0.003317482,-0.002850855,-0.001720072,1.123946786,-0.107099809,9.747849464
1784246761.652974,-0.010182831,-0.119259268,0.104488231,-0.003118450,-0.003165172,-0.001907461,1.106548429,-0.100810446,9.713800430
1784246761.654971,-0.010192021,-0.119269848,0.104485147,-0.003503282,-0.003875077,-0.001939183,1.122231364,-0.103210129,9.707970619
1784246761.656970,-0.010196474,-0.119278438,0.104477733,-0.003529024,-0.004268654,-0.002015353,1.154641867,-0.130666479,9.730242729
1784246761.658973,-0.010200164,-0.119284675,0.104475260,-0.003199396,-0.004109146,-0.002067803,1.114694476,-0.130256563,9.744554520
1784246761.660970,-0.010204289,-0.119286314,0.104470253,-0.002829940,-0.003707238,-0.001959801,1.155736685,-0.115745813,9.709267616
1784246761.662980,-0.010210575,-0.119290657,0.104465067,-0.002757912,-0.003285336,-0.002043182,1.150001049,-0.105581000,9.739365578
1784246761.664981,-0.010211809,-0.119299181,0.104465842,-0.002546952,-0.003288005,-0.001726312,1.128558517,-0.099284410,9.711588860
1784246761.666977,-0.010209321,-0.119308643,0.104463033,-0.001782494,-0.003639072,-0.001406191,1.149215102,-0.133768186,9.735149384
1784246761.668974,-0.010213450,-0.119314604,0.104455411,-0.001493339,-0.003690623,-0.001713828,1.153761387,-0.128494665,9.741463661
1784246761.670985,-0.010219608,-0.119319759,0.104450189,-0.001768235,-0.003506286,-0.002045785,1.163110018,-0.098904312,9.721936226
1784246761.672982,-0.010226640,-0.119326465,0.104448669,-0.002114755,-0.003427076,-0.001854907,1.175446033,-0.118289463,9.716444016
1784246761.674978,-0.010233153,-0.119334146,0.104446508,-0.002404651,-0.003442294,-0.001499699,1.132618546,-0.133917570,9.723028183
1784246761.676980,-0.010226247,-0.119341791,0.104445070,-0.001676037,-0.003516847,-0.001348105,1.136262536,-0.128267258,9.741001129
1784246761.678986,-0.010219505,-0.119346522,0.104445219,-0.000311782,-0.003400485,-0.001181239,1.163771272,-0.154986650,9.731440544
1784246761.680992,-0.010220560,-0.119352140,0.104445457,0.000302590,-0.003258624,-0.000897498,1.168244720,-0.155555710,9.740407944
1784246761.682987,-0.010218988,-0.119361833,0.104445748,0.000402813,-0.003493851,-0.000639078,1.163978219,-0.136737898,9.748146057
1784246761.684993,-0.010227947,-0.119370870,0.104446381,-0.000031980,-0.003786284,-0.000362044,1.176358461,-0.154556587,9.711279869
1784246761.686989,-0.010237419,-0.119375981,0.104438655,-0.001157893,-0.003681840,-0.000611040,1.173457265,-0.133576646,9.727553368
1784246761.688991,-0.010238892,-0.119385950,0.104426518,-0.001741881,-0.003692763,-0.001695131,1.169850230,-0.135694131,9.716774940
1784246761.690999,-0.010242974,-0.119398229,0.104423873,-0.001667439,-0.004229858,-0.002198204,1.192609787,-0.146290436,9.716729164
1784246761.692998,-0.010246408,-0.119409487,0.104425438,-0.001634520,-0.004716648,-0.001626560,1.150987506,-0.134372696,9.753977776
1784246761.694998,-0.010253638,-0.119412422,0.104417130,-0.001837880,-0.004436632,-0.001567984,1.163269162,-0.157834008,9.754734993
1784246761.696996,-0.010253894,-0.119414426,0.104422070,-0.001744649,-0.003606492,-0.001322870,1.167973518,-0.141586825,9.729737282
1784246761.698998,-0.010250455,-0.119422287,0.104422599,-0.001012176,-0.003300106,-0.000621412,1.165989041,-0.157245666,9.730082512
1784246761.701000,-0.010247474,-0.119433969,0.104414843,-0.000158582,-0.003776792,-0.001016387,1.167336702,-0.158060268,9.716180801
1784246761.703000,-0.010243196,-0.119444251,0.104417071,0.000533554,-0.004287468,-0.001196611,1.181066513,-0.096637286,9.748867989
1784246761.704999,-0.010242238,-0.119454511,0.104408085,0.000642254,-0.004457014,-0.001363506,1.206844687,-0.117154427,9.752346992
1784246761.707001,-0.010250192,-0.119467579,0.104404800,-0.000147859,-0.004767483,-0.001758287,1.211153865,-0.132394925,9.745528221
1784246761.709002,-0.010251951,-0.119476192,0.104403891,-0.000796527,-0.004942304,-0.001486105,1.189056754,-0.143118262,9.718091011
1784246761.711007,-0.010255079,-0.119478323,0.104409479,-0.000754995,-0.004232560,-0.000740788,1.197689533,-0.172674686,9.700424194
1784246761.713002,-0.010258371,-0.119482145,0.104410544,-0.000811974,-0.003391479,-0.000051751,1.207462192,-0.141260445,9.738742828
1784246761.715006,-0.010266379,-0.119494237,0.104406737,-0.001220850,-0.003437118,-0.000149757,1.196138620,-0.150463492,9.730154991
1784246761.717009,-0.010267043,-0.119502597,0.104405664,-0.001358921,-0.003777080,-0.000385074,1.228926778,-0.146165475,9.759803772
1784246761.719012,-0.010271372,-0.119505376,0.104397774,-0.001398919,-0.003501645,-0.000842318,1.218857408,-0.128247961,9.715524673
1784246761.721011,-0.010278634,-0.119514376,0.104393184,-0.001787997,-0.003187900,-0.001373927,1.220573902,-0.134158060,9.724454880
1784246761.723016,-0.010277003,-0.119522467,0.104397520,-0.001570981,-0.003329481,-0.000986238,1.188246369,-0.099156313,9.712095261
1784246761.725027,-0.010278212,-0.119525604,0.104393989,-0.001120585,-0.003148007,-0.000665657,1.167785406,-0.121692747,9.704757690
1784246761.727022,-0.010281457,-0.119528405,0.104383819,-0.001238303,-0.002645258,-0.001369455,1.191552639,-0.123728894,9.696249962
1784246761.729023,-0.010272266,-0.119534761,0.104379155,-0.000621304,-0.002537582,-0.002044955,1.216640115,-0.126392394,9.710602760
1784246761.731026,-0.010261789,-0.119544253,0.104378656,0.000835999,-0.002779316,-0.001995678,1.197959661,-0.150279805,9.701017380
1784246761.733031,-0.010255224,-0.119554795,0.104384117,0.001802421,-0.003246694,-0.001257533,1.215096116,-0.141310483,9.732027054
1784246761.735033,-0.010251372,-0.119567968,0.104386449,0.002195806,-0.003837253,-0.000487016,1.213695645,-0.146179467,9.726163864
1784246761.737028,-0.010250503,-0.119570270,0.104380012,0.002002107,-0.003699667,-0.000681478,1.206106663,-0.141316324,9.749053955
1784246761.739036,-0.010246043,-0.119568340,0.104379654,0.001762510,-0.002715310,-0.000998890,1.223448277,-0.118164495,9.738458633
1784246761.741039,-0.010235523,-0.119566992,0.104385264,0.002422752,-0.001561665,-0.000504291,1.206987858,-0.107918590,9.713402748
1784246761.743037,-0.010227127,-0.119562440,0.104388058,0.003194516,-0.000545498,0.000037979,1.234433770,-0.136350691,9.755836487
1784246761.745038,-0.010228774,-0.119569898,0.104383051,0.002865114,-0.000457824,-0.000185797,1.234837651,-0.103983022,9.739905357
1784246761.747038,-0.010227475,-0.119578563,0.104376890,0.002074323,-0.001284656,-0.000896208,1.239366770,-0.100872979,9.735446930
1784246761.749040,-0.010218382,-0.119576700,0.104378156,0.002171809,-0.001392384,-0.001066924,1.224391580,-0.117003456,9.699462891
1784246761.751042,-0.010213975,-0.119576551,0.104385838,0.002592546,-0.000706203,-0.000283882,1.203045487,-0.098192938,9.739016533
1784246761.753038,-0.010210499,-0.119572476,0.104391523,0.002556275,-0.000060741,0.000629806,1.228317380,-0.123212546,9.746500969
1784246761.755040,-0.010203270,-0.119573094,0.104399644,0.002764883,0.000406936,0.001295778,1.221519351,-0.128520936,9.749150276
1784246761.757045,-0.010194081,-0.119574659,0.104399852,0.003257265,0.000368524,0.001364168,1.221536160,-0.127983943,9.736601830
1784246761.759048,-0.010190678,-0.119575903,0.104399070,0.003216636,0.000078289,0.000852288,1.230164170,-0.121202059,9.712442398
1784246761.761048,-0.010184260,-0.119575314,0.104395732,0.002992196,0.000194270,0.000264282,1.231787086,-0.135146827,9.717286110
1784246761.763050,-0.010182105,-0.119568847,0.104392700,0.002726219,0.000802728,-0.000305733,1.204478860,-0.128222972,9.737928391
1784246761.765053,-0.010180033,-0.119569294,0.104399160,0.002384613,0.001099376,-0.000036065,1.214304090,-0.132362023,9.735220909
1784246761.767054,-0.010172311,-0.119572163,0.104400240,0.002544194,0.000679667,0.000392165,1.228968143,-0.107437909,9.732255936
1784246761.769048,-0.010165801,-0.119569480,0.104396373,0.002789908,0.000484938,-0.000017122,1.216063857,-0.098718584,9.726470947
1784246761.771055,-0.010158896,-0.119565129,0.104394719,0.002903849,0.000974860,-0.000492385,1.239394546,-0.099033453,9.728734016
1784246761.773053,-0.010154447,-0.119564250,0.104394346,0.002876405,0.001205410,-0.000586763,1.223214865,-0.101870000,9.715698242
1784246761.775061,-0.010150996,-0.119569428,0.104398921,0.002686180,0.000778456,-0.000207807,1.227310538,-0.097010069,9.717975616
1784246761.777094,-0.010142962,-0.119565412,0.104404636,0.002838300,0.000677956,0.000448982,1.236918330,-0.118267037,9.728607178
1784246761.779100,-0.010137186,-0.119561106,0.104404725,0.003045170,0.001055678,0.000605178,1.224866271,-0.112345546,9.736704826
1784246761.781090,-0.010140979,-0.119559437,0.104404204,0.002383864,0.001413587,0.000393204,1.228111506,-0.103458352,9.741247177
1784246761.783125,-0.010139762,-0.119549774,0.104409114,0.001633951,0.002034982,0.000601402,1.217513680,-0.091431737,9.707241058
1784246761.785077,-0.010136089,-0.119555071,0.104409292,0.001497624,0.001943264,0.000750691,1.220092297,-0.098036580,9.749344826
1784246761.787077,-0.010131036,-0.119549707,0.104406595,0.001595367,0.001589657,0.000316607,1.227681875,-0.100869775,9.756058693
1784246761.789083,-0.010128541,-0.119533941,0.104410373,0.001679655,0.002590420,0.000242086,1.233531713,-0.102027662,9.719294548
1784246761.791126,-0.010121781,-0.119530432,0.104419440,0.001975586,0.003438170,0.000965061,1.199202657,-0.120408274,9.719592094
1784246761.793089,-0.010117808,-0.119525582,0.104423329,0.002291652,0.003316696,0.001487782,1.212546587,-0.129613101,9.729856491
1784246761.795081,-0.010117239,-0.119520120,0.104422674,0.002090451,0.003326614,0.001254680,1.197414160,-0.084367752,9.695163727
1784246761.797083,-0.010118308,-0.119510189,0.104424357,0.001586255,0.003680342,0.000977920,1.199637890,-0.083742231,9.729242325
1784246761.799079,-0.010106221,-0.119499572,0.104426056,0.001925433,0.004073962,0.000850390,1.193634272,-0.097983167,9.726455688
1784246761.801085,-0.010096335,-0.119492389,0.104428023,0.002931442,0.004298971,0.000686140,1.175348520,-0.086739205,9.753409386
1784246761.803083,-0.010094908,-0.119485632,0.104435340,0.002991321,0.004197279,0.001033283,1.157719016,-0.098079301,9.741662979
1784246761.805083,-0.010089221,-0.119476467,0.104438394,0.002744827,0.004071664,0.001393737,1.180639744,-0.098079987,9.700437546
1784246761.807089,-0.010087375,-0.119467862,0.104435869,0.002513992,0.004110797,0.000989053,1.212265611,-0.079344109,9.718074799
1784246761.809086,-0.010090774,-0.119462430,0.104436450,0.001711127,0.003948711,0.000601915,1.184823513,-0.083609737,9.737298012
1784246761.811089,-0.010085662,-0.119459137,0.104441218,0.001393386,0.003554887,0.000788125,1.176189661,-0.056493081,9.719979286
1784246761.813092,-0.010076380,-0.119453520,0.104450047,0.002083070,0.003273289,0.001376565,1.188848734,-0.049416732,9.710172653
1784246761.815096,-0.010067418,-0.119445786,0.104455628,0.002715086,0.003354517,0.001843142,1.179983616,-0.075495921,9.739139557
1784246761.817098,-0.010061525,-0.119436696,0.104457356,0.002889855,0.003653527,0.001732626,1.158332229,-0.084627137,9.739060402
1784246761.819111,-0.010060709,-0.119435526,0.104456022,0.002560534,0.003356845,0.001233332,1.161544204,-0.080864303,9.708152771
1784246761.821137,-0.010058234,-0.119431645,0.104456455,0.002063748,0.002783834,0.000813050,1.162263989,-0.093625389,9.737213135
1784246761.823115,-0.010049976,-0.119418330,0.104461178,0.002252367,0.003186325,0.000855306,1.157072306,-0.077445686,9.739553452
1784246761.825102,-0.010043088,-0.119407050,0.104464769,0.002629635,0.003961822,0.001069675,1.150925279,-0.067789502,9.715847969
1784246761.827106,-0.010038453,-0.119402468,0.104469791,0.002662877,0.003935062,0.001276316,1.153961778,-0.075543649,9.729699135
1784246761.829105,-0.010031386,-0.119395263,0.104472727,0.002792971,0.003662770,0.001371456,1.151279926,-0.075833112,9.712209702
1784246761.831104,-0.010023594,-0.119384095,0.104477577,0.003055027,0.003876808,0.001407224,1.150543332,-0.061988872,9.719918251
1784246761.833109,-0.010024538,-0.119375743,0.104482479,0.002721934,0.004109161,0.001631444,1.155368567,-0.071840487,9.710445404
1784246761.835107,-0.010021516,-0.119362392,0.104488820,0.002136789,0.004407230,0.001939374,1.174798489,-0.059668794,9.728028297
1784246761.837112,-0.010018704,-0.119349808,0.104498506,0.002002212,0.004907442,0.002454567,1.134433627,-0.058601651,9.713648796
1784246761.839106,-0.010014446,-0.119340435,0.104504853,0.002064592,0.005054233,0.002810870,1.149187207,-0.061241049,9.743236542
1784246761.841117,-0.010007911,-0.119327709,0.104509152,0.002200174,0.005054526,0.002690895,1.136412382,-0.042177279,9.731689453
1784246761.843112,-0.010008275,-0.119315110,0.104518443,0.002011450,0.005272392,0.002838923,1.140892506,-0.043505520,9.721373558
1784246761.845116,-0.010007376,-0.119301513,0.104522906,0.001368158,0.005490114,0.003018492,1.138533115,-0.052496407,9.729831696
1784246761.847114,-0.010007543,-0.119294733,0.104527898,0.000877854,0.005254746,0.002858248,1.134558320,-0.046268601,9.743318558
1784246761.849118,-0.010006070,-0.119292498,0.104532257,0.000803011,0.004432490,0.002702231,1.148150086,-0.072463550,9.748094559
1784246761.851121,-0.009996901,-0.119287372,0.104535542,0.001271275,0.003648963,0.002407858,1.155749798,-0.076430768,9.725211143
1784246761.853124,-0.009991948,-0.119280137,0.104538202,0.001833403,0.003418660,0.002051245,1.126860619,-0.051991176,9.742826462
1784246761.855125,-0.009993057,-0.119271539,0.104544610,0.001466124,0.003383375,0.002097840,1.105374813,-0.046848059,9.751356125
1784246761.857126,-0.009996130,-0.119265325,0.104540415,0.000602123,0.003294542,0.001733345,1.086106777,-0.046394166,9.722199440
1784246761.859130,-0.009993757,-0.119257532,0.104540110,0.000354954,0.003354802,0.000963667,1.121788621,-0.063946575,9.731985092
1784246761.861146,-0.009985990,-0.119246550,0.104545102,0.000879660,0.003477778,0.000946079,1.128643990,-0.052509833,9.749549866
1784246761.863132,-0.009982666,-0.119242184,0.104554258,0.001402484,0.003327986,0.001563970,1.135089278,-0.077541992,9.729667664
1784246761.865130,-0.009986930,-0.119238980,0.104561202,0.000964738,0.002812271,0.002245204,1.130484223,-0.087333277,9.728704453
1784246761.867133,-0.009985974,-0.119236760,0.104558811,0.000392998,0.002299960,0.001982137,1.121053576,-0.050089620,9.737901688
1784246761.869136,-0.009973641,-0.119231977,0.104562372,0.001191254,0.002149965,0.001414581,1.115328074,-0.041465461,9.732570648
1784246761.871138,-0.009966936,-0.119218126,0.104568869,0.001976498,0.002610932,0.001582281,1.088666081,-0.055988465,9.743659973
1784246761.873137,-0.009970615,-0.119211331,0.104569666,0.001447195,0.003084944,0.001649314,1.102442741,-0.031379998,9.723655701
1784246761.875137,-0.009959915,-0.119206622,0.104574814,0.001217367,0.002763273,0.001586366,1.121511221,-0.049618788,9.733868599
1784246761.877172,-0.009962168,-0.119203284,0.104579002,0.001173441,0.002292292,0.001756009,1.100167751,-0.032409336,9.746512413
1784246761.879156,-0.009962098,-0.119200006,0.104575172,0.000710639,0.002119258,0.001320249,1.115617037,-0.055294413,9.723516464
1784246761.881155,-0.009954463,-0.119191661,0.104577981,0.000772561,0.002079786,0.000859504,1.085801125,-0.072312325,9.713066101
1784246761.883147,-0.009961859,-0.119187474,0.104582608,0.000382832,0.002105842,0.001155284,1.090819955,-0.027240204,9.729499817
1784246761.885155,-0.009960785,-0.119180337,0.104579143,-0.000481285,0.001899308,0.001007542,1.065345049,-0.054787222,9.742749214
1784246761.887154,-0.009959721,-0.119177036,0.104575969,-0.000603714,0.001693040,0.000304699,1.079062462,-0.070669532,9.746246338
1784246761.889155,-0.009959744,-0.119171627,0.104577482,-0.000383174,0.001825544,0.000101633,1.097479463,-0.071149714,9.717568398
1784246761.891156,-0.009962168,-0.119162746,0.104581989,-0.000531011,0.001939969,0.000512917,1.099356174,-0.063636854,9.728826523
1784246761.893157,-0.009965234,-0.119159125,0.104588479,-0.000803657,0.001896897,0.001172603,1.118883491,-0.045022015,9.722239494
1784246761.895160,-0.009960889,-0.119157992,0.104589291,-0.000681221,0.001395851,0.001362241,1.082479119,-0.049080450,9.728455544
1784246761.897165,-0.009962835,-0.119158387,0.104586273,-0.000593388,0.000764858,0.000849042,1.096849442,-0.048358962,9.727128029
1784246761.899171,-0.009964593,-0.119155318,0.104590781,-0.000670010,0.000737026,0.000748141,1.067314744,-0.041272823,9.728938103
1784246761.901174,-0.009962917,-0.119145341,0.104592726,-0.000651758,0.000947953,0.001000974,1.083871007,-0.043871611,9.749561310
1784246761.903170,-0.009965097,-0.119143903,0.104582980,-0.000781964,0.001001029,0.000227626,1.097835660,-0.040780563,9.730765343
1784246761.905171,-0.009963531,-0.119139336,0.104575306,-0.001058820,0.000793545,-0.000969224,1.110692501,-0.053521998,9.735178947
1784246761.907168,-0.009969065,-0.119141787,0.104572900,-0.001427402,0.000370999,-0.001319391,1.127218008,-0.060012534,9.736050606
1784246761.909171,-0.009970689,-0.119145401,0.104566947,-0.001589840,-0.000136618,-0.001467119,1.095593691,-0.077518992,9.734561920
1784246761.911175,-0.009970295,-0.119141348,0.104559846,-0.001398983,-0.000417534,-0.001934786,1.092288852,-0.090120234,9.748375893
1784246761.913179,-0.009971160,-0.119139366,0.104556948,-0.001184013,-0.000246231,-0.002074692,1.074791312,-0.091096811,9.728178024
1784246761.915171,-0.009972817,-0.119133934,0.104553595,-0.001173475,-0.000193518,-0.001906468,1.084795713,-0.079636715,9.736780167
1784246761.917206,-0.009977482,-0.119144917,0.104549907,-0.001428418,-0.001034132,-0.001807285,1.092080832,-0.071598642,9.727423668
1784246761.919181,-0.009981956,-0.119148985,0.104554042,-0.001652924,-0.001775293,-0.001212308,1.112720966,-0.072269723,9.721610069
1784246761.921185,-0.009979834,-0.119144954,0.104556642,-0.001467641,-0.001745330,-0.000396057,1.123575449,-0.066056758,9.710452080
1784246761.923182,-0.009980115,-0.119150929,0.104554847,-0.001097955,-0.001849371,-0.000234997,1.091425896,-0.088621765,9.728210449
1784246761.925181,-0.009983796,-0.119152084,0.104546748,-0.001173814,-0.002223220,-0.000805845,1.108727098,-0.067814678,9.732395172
1784246761.927181,-0.009990681,-0.119151115,0.104544714,-0.001676080,-0.002022985,-0.001183676,1.128121495,-0.059569716,9.735157013
1784246761.929188,-0.009998067,-0.119157016,0.104541801,-0.002222900,-0.001805492,-0.001079721,1.102700591,-0.083450370,9.736772537
1784246761.931189,-0.010004390,-0.119160183,0.104529910,-0.002678758,-0.002092314,-0.001674481,1.116385579,-0.065644003,9.728381157
1784246761.933191,-0.010006052,-0.119162999,0.104519941,-0.002681820,-0.002085608,-0.002629535,1.109800458,-0.054685865,9.711408615
1784246761.935188,-0.010002503,-0.119163446,0.104519024,-0.002160814,-0.002036571,-0.002638236,1.148107171,-0.079287529,9.699631691
1784246761.937190,-0.010008688,-0.119170204,0.104512766,-0.002056075,-0.002269641,-0.002357680,1.140667558,-0.101514101,9.688273430
1784246761.939195,-0.010015349,-0.119175583,0.104508348,-0.002449791,-0.002469254,-0.002334729,1.145683646,-0.092837512,9.719268799
1784246761.941199,-0.010019296,-0.119182453,0.104507945,-0.002557898,-0.002726916,-0.001939263,1.147318363,-0.068286851,9.729290962
1784246761.943202,-0.010019312,-0.119187914,0.104504041,-0.002184626,-0.002919382,-0.001668530,1.129295945,-0.075125702,9.715332031
1784246761.945220,-0.010017664,-0.119193554,0.104506604,-0.001586494,-0.002956110,-0.001307743,1.138875246,-0.061448660,9.727980614
1784246761.947204,-0.010018180,-0.119201101,0.104508802,-0.001135240,-0.003129572,-0.000630514,1.153481007,-0.081059329,9.687071800
1784246761.949209,-0.010025592,-0.119212076,0.104503430,-0.001387035,-0.003534787,-0.000608984,1.140948653,-0.114189960,9.706125259
1784246761.951210,-0.010034382,-0.119219236,0.104498781,-0.002148828,-0.003893306,-0.000991710,1.148808479,-0.133025140,9.694355965
1784246761.953214,-0.010040062,-0.119229920,0.104496837,-0.002559478,-0.004139369,-0.001053587,1.134289265,-0.107867233,9.711091042
1784246761.955213,-0.010042316,-0.119238779,0.104497954,-0.002445388,-0.004487174,-0.000755962,1.153304815,-0.093392760,9.720617294
1784246761.957218,-0.010043289,-0.119246878,0.104492851,-0.002070447,-0.004562150,-0.000790413,1.143036127,-0.089613244,9.711665154
1784246761.959215,-0.010050619,-0.119252264,0.104485132,-0.002171533,-0.004231319,-0.001373563,1.135532498,-0.077592246,9.735944748
1784246761.961230,-0.010055640,-0.119257748,0.104479961,-0.002588767,-0.003986828,-0.001762805,1.146019101,-0.101437196,9.730870247
1784246761.963226,-0.010058093,-0.119272463,0.104477614,-0.002520656,-0.004444694,-0.001724383,1.164780974,-0.073257409,9.703721046
1784246761.965221,-0.010058023,-0.119283050,0.104472652,-0.002183089,-0.004907233,-0.001714706,1.179475188,-0.081634440,9.721165657
1784246761.967298,-0.010061922,-0.119287662,0.104472041,-0.002020467,-0.004560095,-0.001577615,1.164904237,-0.098527037,9.728665352
1784246761.969234,-0.010069873,-0.119293824,0.104469322,-0.002297493,-0.004052174,-0.001278383,1.182703018,-0.109663866,9.750578880
1784246761.971229,-0.010078919,-0.119303524,0.104461230,-0.002826917,-0.003981735,-0.001531933,1.157816291,-0.090826072,9.729604721
1784246761.973231,-0.010080712,-0.119314268,0.104456022,-0.002817644,-0.004239338,-0.001934356,1.153189301,-0.104435965,9.698577881
1784246761.975232,-0.010083923,-0.119316496,0.104453661,-0.002426784,-0.003947265,-0.001881250,1.142187238,-0.121943370,9.723114014
1784246761.977229,-0.010086445,-0.119325638,0.104452394,-0.002159609,-0.003627968,-0.001571220,1.192782998,-0.131549060,9.722651482
1784246761.979228,-0.010091615,-0.119334228,0.104448654,-0.002132388,-0.003843098,-0.001420334,1.204703212,-0.110240921,9.729076385
1784246761.981229,-0.010097308,-0.119342372,0.104444116,-0.002308808,-0.003798493,-0.001508175,1.183454752,-0.085797317,9.732351303
1784246761.983233,-0.010107699,-0.119349308,0.104445912,-0.002744506,-0.003657237,-0.001156857,1.185043097,-0.065665863,9.733827591
1784246761.985235,-0.010118249,-0.119357154,0.104439691,-0.003568778,-0.003620534,-0.000956255,1.174184680,-0.110714115,9.724560738
1784246761.987230,-0.010113559,-0.119364776,0.104436629,-0.003192270,-0.003637561,-0.001260105,1.175872207,-0.119689971,9.723609924
1784246761.989234,-0.010109296,-0.119374782,0.104432426,-0.001780942,-0.003842218,-0.001480722,1.175174117,-0.141103685,9.711812973
1784246761.991240,-0.010116027,-0.119385980,0.104432866,-0.001298067,-0.004185303,-0.001336505,1.175192118,-0.138936996,9.722139359
1784246761.993238,-0.010119170,-0.119400151,0.104429610,-0.001437863,-0.004718698,-0.001107442,1.199890733,-0.138284177,9.711855888
1784246761.995236,-0.010131334,-0.119413130,0.104419425,-0.002008549,-0.005134120,-0.001609383,1.189026117,-0.107796721,9.728629112
1784246761.997246,-0.010136448,-0.119415633,0.104413576,-0.002578034,-0.004642133,-0.002133325,1.209019065,-0.122187071,9.763078690
1784246761.999240,-0.010132177,-0.119422436,0.104411803,-0.001996501,-0.004009250,-0.002060604,1.206223965,-0.095100626,9.739486694
1784246762.001243,-0.010127042,-0.119436361,0.104408421,-0.000892301,-0.004132069,-0.001919541,1.186963081,-0.092969358,9.726480484
1784246762.003259,-0.010128159,-0.119442873,0.104404643,-0.000467156,-0.004198899,-0.001907513,1.200394154,-0.134210557,9.705157280
1784246762.005335,-0.010135185,-0.119445764,0.104402803,-0.000801521,-0.003575776,-0.001715512,1.169694901,-0.109462172,9.745637894
1784246762.007269,-0.010143022,-0.119450875,0.104401454,-0.001478552,-0.003028498,-0.001359189,1.211332202,-0.119638972,9.715573311
1784246762.009255,-0.010147813,-0.119461045,0.104396656,-0.001977914,-0.003240500,-0.001301593,1.190114141,-0.129303381,9.726698875
1784246762.011256,-0.010148431,-0.119467966,0.104398824,-0.001692204,-0.003492938,-0.001096683,1.211700320,-0.127577633,9.697140694
1784246762.013256,-0.010143616,-0.119474821,0.104390427,-0.000866054,-0.003447518,-0.001270081,1.205809593,-0.133224651,9.682753563
1784246762.015253,-0.010146736,-0.119486697,0.104380094,-0.000571752,-0.003604125,-0.002210277,1.205751181,-0.098932579,9.712114334
1784246762.017257,-0.010152980,-0.119496867,0.104376219,-0.001065940,-0.003946997,-0.002500460,1.198903799,-0.109089024,9.703523636
1784246762.019261,-0.010157053,-0.119502276,0.104374766,-0.001514899,-0.003929593,-0.002096747,1.213497639,-0.123121411,9.760385513
1784246762.021271,-0.010160828,-0.119506858,0.104369417,-0.001637327,-0.003414369,-0.001925884,1.224845529,-0.112914331,9.753737450
1784246762.023264,-0.010164563,-0.119511224,0.104367502,-0.001707568,-0.002967020,-0.001837084,1.206725717,-0.127819642,9.740174294
1784246762.025266,-0.010169057,-0.119518049,0.104375251,-0.001672808,-0.002863472,-0.000888958,1.176688194,-0.126827508,9.717735291
1784246762.027266,-0.010171224,-0.119520545,0.104371637,-0.001555421,-0.002662262,-0.000323773,1.233122587,-0.172026634,9.734537125
1784246762.029361,-0.010177349,-0.119521730,0.104365416,-0.001771532,-0.002182801,-0.000831309,1.233128428,-0.133175448,9.752718925
1784246762.031323,-0.010179789,-0.119526900,0.104364090,-0.001821228,-0.001871566,-0.001056670,1.209093332,-0.154328376,9.746283531
1784246762.033314,-0.010178735,-0.119528927,0.104364894,-0.001316634,-0.001707209,-0.000805140,1.192820549,-0.161952958,9.776704788
1784246762.035285,-0.010180521,-0.119529799,0.104369439,-0.000785098,-0.001393578,-0.000241474,1.197305083,-0.128493086,9.725813866
1784246762.037305,-0.010182240,-0.119528092,0.104369119,-0.000593893,-0.000910667,0.000116102,1.217929959,-0.132121846,9.694875717
1784246762.039287,-0.010184496,-0.119529285,0.104364179,-0.000743175,-0.000623994,-0.000237991,1.213703632,-0.106905766,9.747937202
1784246762.041292,-0.010187359,-0.119528927,0.104367234,-0.000888843,-0.000434196,-0.000261435,1.226440787,-0.094755583,9.717539787
1784246762.043291,-0.010188113,-0.119524285,0.104370251,-0.000829218,0.000095055,0.000247431,1.218854427,-0.128676862,9.712833405
1784246762.045286,-0.010184855,-0.119527355,0.104365550,-0.000370322,0.000317677,0.000040228,1.211244583,-0.124789111,9.746923447
1784246762.047281,-0.010181096,-0.119525947,0.104364291,0.000233611,0.000262948,-0.000436429,1.207819819,-0.150088698,9.719408989
1784246762.049286,-0.010177596,-0.119520001,0.104372129,0.000712756,0.000685433,0.000067404,1.239104390,-0.122800834,9.732168198
1784246762.051286,-0.010175698,-0.119517200,0.104374252,0.001027424,0.001208130,0.000670258,1.236404061,-0.124856710,9.711080551
1784246762.053288,-0.010183194,-0.119522303,0.104376681,0.000471709,0.000843067,0.000833251,1.234044790,-0.133037508,9.731648445
1784246762.055286,-0.010180400,-0.119522683,0.104376487,0.000119556,0.000397557,0.000788606,1.188188434,-0.140040994,9.727972984
1784246762.057288,-0.010169226,-0.119519770,0.104374014,0.001081546,0.000620832,0.000273673,1.226271152,-0.107441582,9.737634659
1784246762.059291,-0.010161866,-0.119518399,0.104371853,0.001999299,0.000746142,-0.000263780,1.227874160,-0.123568915,9.734394073
1784246762.061297,-0.010157474,-0.119518645,0.104376681,0.002340752,0.000801637,-0.000114474,1.205010772,-0.159083366,9.729212761
1784246762.063299,-0.010155808,-0.119511902,0.104375452,0.002213469,0.001205439,0.000104031,1.198849678,-0.148321778,9.739138603
1784246762.065297,-0.010162647,-0.119508155,0.104378283,0.001436004,0.001705309,0.000209113,1.200084209,-0.120546944,9.737524033
1784246762.067297,-0.010168571,-0.119503982,0.104377463,0.000361241,0.001894395,0.000374140,1.221637845,-0.119885661,9.731720924
1784246762.069299,-0.010167751,-0.119500414,0.104380690,-0.000061447,0.001902373,0.000476159,1.216549635,-0.131968245,9.738812447
1784246762.071302,-0.010160581,-0.119494393,0.104387708,0.000627112,0.002182880,0.000968783,1.196639419,-0.146005511,9.732425690
1784246762.073301,-0.010160781,-0.119484954,0.104395412,0.001096112,0.002781680,0.001636681,1.164593935,-0.124483347,9.724912643
1784246762.075300,-0.010163321,-0.119479738,0.104395084,0.000713260,0.003012266,0.001705750,1.197115779,-0.106175147,9.738062859
1784246762.077320,-0.010164235,-0.119474299,0.104397297,0.000341904,0.002913468,0.001393396,1.207238317,-0.122862846,9.735275269
1784246762.079320,-0.010163623,-0.119468845,0.104402371,0.000287696,0.002855058,0.001509254,1.187174201,-0.111872159,9.738016129
1784246762.081318,-0.010157192,-0.119464517,0.104407124,0.000790326,0.002805997,0.001702790,1.195050001,-0.093396798,9.709000587
1784246762.083312,-0.010154640,-0.119456187,0.104409792,0.001267541,0.002968157,0.001664541,1.195104599,-0.086887240,9.738631248
1784246762.085316,-0.010153925,-0.119451113,0.104411297,0.001128606,0.003200527,0.001474074,1.201713324,-0.096444257,9.747544289
1784246762.087312,-0.010145544,-0.119447358,0.104411952,0.001404180,0.003060862,0.001153679,1.207659960,-0.126325101,9.717321396
1784246762.089321,-0.010136722,-0.119440153,0.104415908,0.002219608,0.002969935,0.001011571,1.197011113,-0.116729073,9.710197449
1784246762.091319,-0.010136092,-0.119438186,0.104418539,0.002452397,0.002978479,0.001088408,1.180569768,-0.102280155,9.724172592
1784246762.093322,-0.010134330,-0.119426690,0.104423523,0.002154734,0.003276953,0.001271632,1.217398167,-0.100044750,9.721532822
1784246762.095323,-0.010135779,-0.119421773,0.104432367,0.001705477,0.003836110,0.001857938,1.184640050,-0.100053936,9.718811989
1784246762.097326,-0.010139494,-0.119415499,0.104435593,0.000994808,0.003888041,0.002210259,1.181269765,-0.118843950,9.720930099
1784246762.099331,-0.010139190,-0.119410068,0.104436614,0.000529319,0.003622644,0.001923760,1.159524441,-0.098423064,9.723730087
1784246762.101334,-0.010136570,-0.119402938,0.104438968,0.000589002,0.003497665,0.001607753,1.166923046,-0.081787884,9.702322960
1784246762.103331,-0.010134063,-0.119396217,0.104444019,0.000813639,0.003493113,0.001631040,1.161193252,-0.071981989,9.719864845
1784246762.105330,-0.010126712,-0.119389661,0.104446165,0.001157387,0.003416079,0.001611776,1.153824210,-0.052818701,9.684562683
1784246762.107329,-0.010122849,-0.119386114,0.104450852,0.001495949,0.003143242,0.001560571,1.162661195,-0.100115255,9.703994751
1784246762.109334,-0.010121972,-0.119386025,0.104451112,0.001449052,0.002534221,0.001430258,1.167955637,-0.069790281,9.714506149
1784246762.111338,-0.010114521,-0.119377568,0.104445636,0.001492018,0.002382027,0.000633052,1.174273252,-0.103530824,9.722366333
1784246762.113339,-0.010110173,-0.119367391,0.104457892,0.001854287,0.002946798,0.000832813,1.150481224,-0.138875172,9.757982254
1784246762.115342,-0.010111621,-0.119364977,0.104477338,0.001892397,0.002918056,0.002708500,1.142333984,-0.108628534,9.740684509
1784246762.117339,-0.010109630,-0.119360365,0.104482055,0.001700285,0.002524493,0.003585095,1.169704318,-0.110199109,9.723215103
1784246762.119339,-0.010104466,-0.119353421,0.104478590,0.001730963,0.002623671,0.002637546,1.159734130,-0.080962129,9.725186348
1784246762.121342,-0.010100544,-0.119345620,0.104480796,0.001828793,0.002948202,0.001768274,1.163252234,-0.085221007,9.750718117
1784246762.123350,-0.010099524,-0.119336739,0.104489408,0.001718591,0.003307369,0.001983849,1.149792910,-0.085439265,9.742632866
1784246762.125348,-0.010091865,-0.119321249,0.104486987,0.001824217,0.003965099,0.001800411,1.142539501,-0.056042813,9.717259407
1784246762.127345,-0.010081667,-0.119308211,0.104488976,0.002466002,0.004729357,0.001145762,1.133474708,-0.062316932,9.733799934
1784246762.129348,-0.010075992,-0.119297005,0.104499266,0.002965467,0.005082462,0.001534260,1.119102836,-0.062644511,9.742749214
1784246762.131354,-0.010068043,-0.119287558,0.104502313,0.003035699,0.004964216,0.001923028,1.151748776,-0.070816264,9.762007713
1784246762.133358,-0.010063191,-0.119283259,0.104503363,0.002956714,0.004415262,0.001589696,1.128134727,-0.057034563,9.756691933
1784246762.135353,-0.010057528,-0.119276494,0.104505382,0.002770801,0.003837081,0.001291513,1.139615774,-0.073640957,9.740008354
1784246762.137356,-0.010057910,-0.119268946,0.104501240,0.002240698,0.003638010,0.000768020,1.095884919,-0.090115346,9.741206169
1784246762.139361,-0.010055335,-0.119264089,0.104501210,0.001746351,0.003494932,0.000260138,1.103661180,-0.079315767,9.720661163
1784246762.141365,-0.010050268,-0.119255923,0.104510248,0.001816528,0.003236866,0.000738412,1.109950542,-0.077715695,9.736369133
1784246762.143363,-0.010044053,-0.119248703,0.104515754,0.002157850,0.003205629,0.001431149,1.111746430,-0.076919071,9.747134209
1784246762.145359,-0.010036612,-0.119239211,0.104515642,0.002445543,0.003312321,0.001304770,1.108102441,-0.082976013,9.723331451
1784246762.147371,-0.010028335,-0.119234435,0.104510672,0.002709344,0.003231896,0.000489837,1.109577537,-0.073058628,9.712186813
1784246762.149363,-0.010023180,-0.119230382,0.104513608,0.002862503,0.002956411,0.000111518,1.095155001,-0.076623686,9.735465050
1784246762.151365,-0.010016567,-0.119222231,0.104519263,0.002846131,0.002788564,0.000576021,1.112688184,-0.112144016,9.721354485
1784246762.153367,-0.010010041,-0.119216852,0.104524270,0.002943351,0.002754334,0.001041433,1.123910427,-0.074256174,9.728782654
1784246762.155369,-0.009997793,-0.119208664,0.104530245,0.003358506,0.002797793,0.001363357,1.113473415,-0.046373218,9.732986450
1784246762.157370,-0.009989171,-0.119199611,0.104527220,0.003737335,0.003084050,0.001039808,1.110465288,-0.072336368,9.735057831
1784246762.159380,-0.009983931,-0.119193442,0.104529642,0.003652005,0.003279700,0.000604891,1.117296815,-0.101110578,9.736672401
1784246762.161376,-0.009974654,-0.119187556,0.104535200,0.003675145,0.003075783,0.000863922,1.099940896,-0.089217119,9.733593941
1784246762.163379,-0.009975633,-0.119181573,0.104535803,0.003258077,0.002914355,0.000979655,1.103159070,-0.080946431,9.761895180
1784246762.165375,-0.009976586,-0.119171754,0.104527727,0.002107882,0.002936969,0.000233018,1.090240479,-0.075178400,9.730089188
1784246762.167378,-0.009967712,-0.119169883,0.104522005,0.001882965,0.002679947,-0.000816900,1.102421403,-0.068328418,9.753008842
1784246762.169382,-0.009962687,-0.119163975,0.104530580,0.002331251,0.002479580,-0.000515797,1.083277583,-0.056761347,9.736027718
1784246762.171384,-0.009955730,-0.119149670,0.104544178,0.002497940,0.002885125,0.001042205,1.090177059,-0.080541208,9.728260994
1784246762.173388,-0.009954052,-0.119139202,0.104545407,0.002334544,0.003492496,0.001709132,1.125232220,-0.040117700,9.714206696
1784246762.175386,-0.009954878,-0.119134925,0.104545131,0.001560698,0.003389359,0.001324414,1.099463224,-0.053877100,9.742339134
1784246762.177387,-0.009959248,-0.119131304,0.104546942,0.000593930,0.002850039,0.001131183,1.100746512,-0.060874127,9.715843201
1784246762.179389,-0.009956045,-0.119134389,0.104552008,0.000409508,0.002107679,0.001296176,1.108957767,-0.086968288,9.716131210
1784246762.181396,-0.009952076,-0.119132437,0.104553819,0.000742818,0.001328179,0.001361629,1.107685208,-0.080695488,9.718412399
1784246762.183388,-0.009954418,-0.119127788,0.104556665,0.000593799,0.001287187,0.001303313,1.089775205,-0.075303011,9.748469353
1784246762.185389,-0.009954006,-0.119125240,0.104556747,0.000249061,0.001134432,0.001169512,1.097539783,-0.065405704,9.728814125
1784246762.187395,-0.009956678,-0.119129077,0.104554966,-0.000061815,0.000449705,0.000761868,1.123593330,-0.063080005,9.732887268
1784246762.189395,-0.009954029,-0.119128436,0.104560517,-0.000016164,0.000107845,0.000809195,1.141645193,-0.055602431,9.719950676
1784246762.191395,-0.009944746,-0.119122878,0.104572058,0.000797812,0.000331385,0.001659877,1.117099047,-0.043702830,9.728971481
1784246762.193395,-0.009945699,-0.119122468,0.104578540,0.001155342,0.000478217,0.002369386,1.085464120,-0.060481884,9.751251221
1784246762.195398,-0.009948566,-0.119115278,0.104583032,0.000566398,0.000542670,0.002505581,1.128997564,-0.062586576,9.716756821
1784246762.197403,-0.009952162,-0.119108193,0.104587607,-0.000056380,0.001042359,0.002498702,1.093273044,-0.048614677,9.706500053
1784246762.199400,-0.009955259,-0.119105399,0.104587652,-0.000454897,0.001425664,0.002187005,1.092107415,-0.069362007,9.727887154
1784246762.201405,-0.009960344,-0.119104810,0.104583308,-0.001004146,0.001045263,0.001378192,1.091183186,-0.071183689,9.733701706
1784246762.203409,-0.009961482,-0.119108669,0.104575537,-0.001335521,0.000320744,0.000245042,1.112390041,-0.064445131,9.692966461
1784246762.205438,-0.009952651,-0.119106963,0.104575999,-0.000653450,-0.000038353,-0.000361416,1.131538391,-0.075974047,9.704566956
1784246762.207411,-0.009943102,-0.119110897,0.104583986,0.000690815,-0.000315064,0.000172845,1.126225352,-0.067641810,9.739585876
1784246762.209413,-0.009940474,-0.119116656,0.104582563,0.001376954,-0.000890913,0.000469239,1.117207170,-0.035150234,9.723196983
1784246762.211418,-0.009937979,-0.119115256,0.104567654,0.000996574,-0.001093964,-0.000777231,1.115259409,-0.046466164,9.742850304
1784246762.213421,-0.009943959,-0.119115889,0.104564659,0.000126644,-0.000893286,-0.001720375,1.086426020,-0.055121031,9.751733780
1784246762.215420,-0.009945515,-0.119112402,0.104571164,-0.000492528,-0.000756215,-0.000945276,1.095962644,-0.048264798,9.715471268
1784246762.217448,-0.009947658,-0.119116224,0.104569428,-0.000674868,-0.000875577,-0.000327264,1.117588162,-0.078547187,9.713504791
1784246762.219429,-0.009952539,-0.119122952,0.104567885,-0.000991524,-0.001353322,-0.000403020,1.115859151,-0.071115524,9.742691994
1784246762.221426,-0.009950842,-0.119128183,0.104566537,-0.001007787,-0.001937654,-0.000459184,1.103447080,-0.059221711,9.730651855
1784246762.223423,-0.009948071,-0.119131558,0.104559794,-0.000546039,-0.002131905,-0.000913248,1.123496771,-0.070326887,9.744049072
1784246762.225434,-0.009949477,-0.119135149,0.104560725,-0.000407602,-0.002146392,-0.001063118,1.130584478,-0.076814331,9.761500359
1784246762.227426,-0.009955167,-0.119146645,0.104558796,-0.000838051,-0.002711627,-0.000779091,1.144164801,-0.069155246,9.731075287
1784246762.229428,-0.009962647,-0.119152330,0.104545675,-0.001619715,-0.003130811,-0.001475556,1.123942971,-0.070351712,9.746740341
1784246762.231430,-0.009967796,-0.119152933,0.104539797,-0.002218419,-0.002858231,-0.002250527,1.146198750,-0.049054980,9.736138344
1784246762.233435,-0.009970959,-0.119157046,0.104539812,-0.002257694,-0.002561145,-0.001965471,1.115652442,-0.051367693,9.738335609
1784246762.235431,-0.009967956,-0.119156793,0.104532368,-0.001833347,-0.002294611,-0.001919278,1.124333739,-0.076892450,9.720695496
1784246762.237439,-0.009968318,-0.119163074,0.104526825,-0.001380183,-0.002243554,-0.002283335,1.136034012,-0.073937997,9.725209236
1784246762.239432,-0.009972061,-0.119172722,0.104528882,-0.001310277,-0.002711737,-0.001865808,1.152101874,-0.080492735,9.735941887
1784246762.241444,-0.009970416,-0.119183190,0.104527727,-0.001136414,-0.003325888,-0.001274140,1.132579803,-0.062689811,9.724829674
1784246762.243443,-0.009968686,-0.119191855,0.104522429,-0.000700326,-0.003701309,-0.001383779,1.153772116,-0.054852206,9.718624115
1784246762.245442,-0.009968338,-0.119196743,0.104513362,-0.000558665,-0.003645706,-0.001985597,1.144280076,-0.060952049,9.711401939
1784246762.247442,-0.009969059,-0.119202994,0.104508586,-0.000616556,-0.003441802,-0.002369206,1.134905338,-0.090342455,9.765901566
1784246762.249446,-0.009977056,-0.119209185,0.104501814,-0.001129897,-0.003343505,-0.002433068,1.159305453,-0.079987325,9.714880943
1784246762.251447,-0.009988998,-0.119216576,0.104490981,-0.002390179,-0.003368453,-0.002788418,1.161328554,-0.097966313,9.719250679
1784246762.253450,-0.009996651,-0.119221158,0.104483746,-0.003288945,-0.003278619,-0.003082758,1.162050486,-0.073931612,9.740476608
1784246762.255452,-0.009996672,-0.119223937,0.104482934,-0.003056655,-0.002992293,-0.002716884,1.107633352,-0.082725801,9.752025604
1784246762.257453,-0.009998067,-0.119236790,0.104485244,-0.002388688,-0.003350711,-0.001857005,1.156435728,-0.093512498,9.731828690
1784246762.259451,-0.009997096,-0.119243301,0.104484156,-0.001758919,-0.003757131,-0.001267278,1.177025199,-0.061451234,9.722638130
1784246762.261457,-0.010001995,-0.119248226,0.104479671,-0.001726610,-0.003452086,-0.001250188,1.162100554,-0.069483787,9.744989395
1784246762.263454,-0.010005821,-0.119248323,0.104476675,-0.002041684,-0.002793679,-0.001326106,1.156895399,-0.091405623,9.749775887
1784246762.265457,-0.010009759,-0.119250722,0.104473487,-0.001999959,-0.002299293,-0.001326742,1.147563934,-0.083269291,9.756543159
1784246762.267456,-0.010013115,-0.119259849,0.104470246,-0.001939989,-0.002551319,-0.001348621,1.174063921,-0.082991995,9.732809067
1784246762.269458,-0.010018995,-0.119269498,0.104465611,-0.002099288,-0.003128268,-0.001439281,1.162341833,-0.086931400,9.740842819
1784246762.271472,-0.010026287,-0.119277731,0.104456976,-0.002575361,-0.003470698,-0.001830397,1.156963706,-0.088434868,9.709893227
1784246762.273474,-0.010033194,-0.119284451,0.104452230,-0.002992349,-0.003521407,-0.002114325,1.182814240,-0.101489283,9.734939575
1784246762.275468,-0.010038267,-0.119290598,0.104449324,-0.003041928,-0.003383311,-0.001958748,1.184140205,-0.103692286,9.727304459
1784246762.277469,-0.010040323,-0.119296856,0.104440078,-0.002787561,-0.003247741,-0.002187740,1.192187309,-0.068061247,9.742785454
1784246762.279470,-0.010043322,-0.119306251,0.104436070,-0.002478410,-0.003419749,-0.002446129,1.161484599,-0.085388429,9.714399338
1784246762.281471,-0.010048810,-0.119312882,0.104433082,-0.002453739,-0.003599657,-0.002183690,1.178314686,-0.103153683,9.725062370
1784246762.283473,-0.010052276,-0.119314857,0.104435749,-0.002413315,-0.003229750,-0.001538384,1.192171454,-0.106181838,9.747920036
1784246762.285469,-0.010051625,-0.119321488,0.104437001,-0.001913393,-0.002876793,-0.000832400,1.192436576,-0.123035237,9.723155022
1784246762.287477,-0.010054482,-0.119324781,0.104436792,-0.001531623,-0.002708635,-0.000517135,1.204903841,-0.131253168,9.722216606
1784246762.289481,-0.010062726,-0.119325101,0.104439169,-0.001846574,-0.002220642,-0.000141959,1.217117190,-0.124145620,9.708825111
1784246762.291477,-0.010062895,-0.119329557,0.104432181,-0.001857304,-0.001810517,-0.000355395,1.231076121,-0.120289028,9.708415031
1784246762.293478,-0.010060095,-0.119335040,0.104431577,-0.001144956,-0.001859725,-0.000800504,1.180176854,-0.097375453,9.728240013
1784246762.295477,-0.010060482,-0.119341470,0.104435720,-0.000612297,-0.002134359,-0.000367893,1.186426520,-0.099330455,9.739888191
1784246762.297486,-0.010061637,-0.119345844,0.104434639,-0.000494671,-0.002259514,-0.000052754,1.200818062,-0.098036997,9.721081734
1784246762.299490,-0.010065857,-0.119352058,0.104432113,-0.000751685,-0.002362447,-0.000238979,1.195232153,-0.114148661,9.728595734
1784246762.301490,-0.010074295,-0.119355343,0.104430258,-0.001370872,-0.002252784,-0.000374300,1.212195039,-0.121544056,9.729907990
1784246762.303486,-0.010077244,-0.119357839,0.104430832,-0.001711216,-0.001923319,-0.000272744,1.200603604,-0.115536101,9.725004196
1784246762.305496,-0.010080039,-0.119366467,0.104432948,-0.001637213,-0.001958206,0.000034892,1.209698558,-0.104159899,9.747053146
1784246762.307506,-0.010083217,-0.119368702,0.104433231,-0.001601143,-0.001965320,0.000241024,1.188637376,-0.104480363,9.703992844
1784246762.309522,-0.010087259,-0.119374104,0.104431532,-0.001664460,-0.001949988,0.000138435,1.190485716,-0.135996759,9.722172737
1784246762.311529,-0.010093033,-0.119380735,0.104426667,-0.001784224,-0.002133914,-0.000280488,1.197945833,-0.147551075,9.758421898
1784246762.313504,-0.010091050,-0.119384877,0.104424089,-0.001472490,-0.002181544,-0.000692865,1.222013593,-0.127357304,9.710602760
1784246762.315502,-0.010095174,-0.119389944,0.104420289,-0.001224760,-0.001964920,-0.000919637,1.225151896,-0.090639912,9.708150864
1784246762.317503,-0.010101382,-0.119394019,0.104418851,-0.001587019,-0.001802147,-0.000941258,1.216028929,-0.104262277,9.686982155
1784246762.319505,-0.010100740,-0.119397342,0.104418539,-0.001545414,-0.001814076,-0.000758680,1.211775184,-0.119285777,9.728129387
1784246762.321507,-0.010103589,-0.119403534,0.104420304,-0.001190112,-0.001827377,-0.000444666,1.220987082,-0.099287033,9.734541893
1784246762.323505,-0.010107487,-0.119408675,0.104421832,-0.001222302,-0.001960920,-0.000054596,1.188627839,-0.140119866,9.738285065
1784246762.325516,-0.010109613,-0.119410761,0.104420945,-0.001116382,-0.001842392,0.000032405,1.222619176,-0.111535341,9.752846718
1784246762.327511,-0.010109974,-0.119410917,0.104415953,-0.000853594,-0.001413186,-0.000371359,1.206300855,-0.089226261,9.732351303
1784246762.329521,-0.010114728,-0.119406469,0.104418769,-0.000984381,-0.000738827,-0.000375164,1.194286227,-0.118978895,9.716458321
1784246762.331514,-0.010130008,-0.119397767,0.104421847,-0.001923541,0.000441520,0.000274428,1.213812709,-0.099560328,9.722878456
1784246762.333514,-0.010139186,-0.119391456,0.104419298,-0.002949071,0.001433057,0.000422907,1.199244142,-0.117243931,9.715577126
1784246762.335511,-0.010140964,-0.119396597,0.104410164,-0.002944750,0.001216966,-0.000393604,1.211427331,-0.110378034,9.736256599
1784246762.337516,-0.010144062,-0.119402558,0.104405098,-0.002552302,0.000228713,-0.001209056,1.228886127,-0.114570327,9.727279663
1784246762.339516,-0.010146989,-0.119402155,0.104403548,-0.002318787,-0.000205879,-0.001278095,1.214799881,-0.129158914,9.724930763
1784246762.341522,-0.010153010,-0.119400062,0.104411103,-0.002178924,0.000210505,-0.000457866,1.203543663,-0.131347209,9.737907410
1784246762.343526,-0.010158240,-0.119397759,0.104417615,-0.002167413,0.000637375,0.000699812,1.237535000,-0.143189490,9.703790665
1784246762.345520,-0.010154922,-0.119401224,0.104416475,-0.001546428,0.000603848,0.000874306,1.203146219,-0.128504246,9.716853142
1784246762.347520,-0.010152990,-0.119396381,0.104410723,-0.000710304,0.000760700,0.000118504,1.212049484,-0.133229181,9.735212326
1784246762.349527,-0.010150816,-0.119394422,0.104407139,-0.000316243,0.001022161,-0.000576026,1.237266660,-0.165165007,9.707235336
1784246762.351533,-0.010152535,-0.119392924,0.104408659,0.000078519,0.001244479,-0.000594236,1.213829279,-0.134993166,9.728030205
1784246762.353528,-0.010156699,-0.119384795,0.104409158,-0.000027944,0.001822674,-0.000280876,1.219702482,-0.130699590,9.743755341
1784246762.355532,-0.010162476,-0.119382173,0.104411453,-0.000575435,0.002284282,0.000055192,1.213003278,-0.090748593,9.745349884
1784246762.357529,-0.010167465,-0.119378529,0.104416110,-0.000996364,0.002313038,0.000587095,1.221775413,-0.109477624,9.716993332
1784246762.359532,-0.010166418,-0.119372562,0.104419909,-0.000923473,0.002329561,0.001029315,1.209727645,-0.140304238,9.726200104
1784246762.361537,-0.010170627,-0.119370028,0.104421325,-0.000597015,0.002484191,0.001099971,1.190293670,-0.114917740,9.719617844
1784246762.363533,-0.010165215,-0.119366258,0.104424305,-0.000071268,0.002450293,0.001060825,1.217978954,-0.126870319,9.712394714
1784246762.365540,-0.010157983,-0.119361743,0.104424462,0.000928381,0.002563938,0.000871592,1.184635282,-0.138085499,9.711394310
1784246762.367534,-0.010158996,-0.119353950,0.104418926,0.001154577,0.002925337,0.000210989,1.181165576,-0.128988087,9.698448181
1784246762.369538,-0.010162043,-0.119347714,0.104412325,0.000469328,0.003091995,-0.000633177,1.198288202,-0.121343561,9.726758003
1784246762.371542,-0.010161407,-0.119344734,0.104409210,0.000184006,0.002958223,-0.001104811,1.194834948,-0.146058828,9.743185043
1784246762.373543,-0.010159058,-0.119341187,0.104404315,0.000353695,0.002676266,-0.001376613,1.208127260,-0.162557840,9.708121300
1784246762.375549,-0.010171741,-0.119341135,0.104406469,-0.000265611,0.002422107,-0.001124774,1.195732355,-0.109290443,9.737592697
1784246762.377550,-0.010171884,-0.119334385,0.104409054,-0.000824167,0.002450892,-0.000416788,1.158479571,-0.110112615,9.731274605
1784246762.379553,-0.010168881,-0.119324222,0.104412585,-0.000358149,0.002930539,0.000084863,1.185102701,-0.097921625,9.733172417
1784246762.381556,-0.010170607,-0.119322993,0.104413398,-0.000112499,0.002939648,0.000339954,1.167470813,-0.109280802,9.724115372
1784246762.383558,-0.010169191,-0.119318642,0.104414016,-0.000063956,0.002552814,0.000342868,1.174816251,-0.133492127,9.713208199
1784246762.385554,-0.010166748,-0.119310059,0.104412310,0.000320893,0.002772546,0.000131719,1.191218853,-0.112279639,9.725016594
1784246762.387558,-0.010166277,-0.119301446,0.104414448,0.000549871,0.003220496,0.000087732,1.179070830,-0.115221985,9.719605446
1784246762.389556,-0.010165692,-0.119293109,0.104422227,0.000551774,0.003490508,0.000723030,1.150399327,-0.110037744,9.735301971
1784246762.391559,-0.010166572,-0.119284697,0.104422972,0.000498554,0.003634353,0.001095197,1.147767067,-0.104665875,9.740715027
1784246762.393559,-0.010169233,-0.119278982,0.104426309,0.000205375,0.003563555,0.001094157,1.162961364,-0.111831583,9.712886810
1784246762.395557,-0.010165843,-0.119269878,0.104430251,0.000317960,0.003615350,0.001275012,1.159704328,-0.120004095,9.733902931
1784246762.397561,-0.010157667,-0.119261645,0.104424208,0.001054519,0.003830444,0.000686718,1.174205184,-0.147331834,9.707289696
1784246762.399563,-0.010151039,-0.119251490,0.104424417,0.001718885,0.004041418,-0.000012119,1.149341822,-0.123852648,9.726696014
1784246762.401567,-0.010150335,-0.119235754,0.104426377,0.001917082,0.004644629,0.000058494,1.138993621,-0.126373187,9.721736908
1784246762.403564,-0.010147269,-0.119224496,0.104436085,0.001897926,0.005153727,0.000777980,1.138915300,-0.132260263,9.730666161
1784246762.405572,-0.010152070,-0.119215056,0.104445249,0.001515818,0.005039271,0.001840384,1.136027575,-0.110768773,9.737974167
1784246762.407570,-0.010151055,-0.119212024,0.104449026,0.001051531,0.004402245,0.002231866,1.131592631,-0.107057638,9.728131294
1784246762.409575,-0.010149045,-0.119211398,0.104451045,0.001016647,0.003452141,0.001991328,1.124608517,-0.090025797,9.739891052
1784246762.411579,-0.010145292,-0.119199127,0.104451314,0.001068253,0.003138704,0.001565605,1.160460114,-0.096105725,9.711192131
1784246762.413576,-0.010143540,-0.119188674,0.104454145,0.001094851,0.003576125,0.001313318,1.133248687,-0.082338460,9.714393616
1784246762.415613,-0.010139715,-0.119173929,0.104457214,0.001189229,0.004180855,0.001311761,1.143738270,-0.103727736,9.742061615
1784246762.417588,-0.010143020,-0.119164482,0.104464002,0.000949116,0.004550846,0.001616623,1.123874784,-0.075752683,9.750292778
1784246762.419583,-0.010147851,-0.119156055,0.104472175,0.000263662,0.004517355,0.002251404,1.130946517,-0.085610777,9.737682343
1784246762.421598,-0.010144504,-0.119144514,0.104471713,0.000127011,0.004474369,0.002172754,1.143362641,-0.098282874,9.733130455
1784246762.423597,-0.010139441,-0.119139127,0.104473308,0.000641273,0.004241654,0.001591809,1.143078804,-0.119569160,9.765721321
1784246762.425596,-0.010134873,-0.119138040,0.104474671,0.001207697,0.003439420,0.001273687,1.138557434,-0.123432025,9.750000000
1784246762.427595,-0.010129095,-0.119137444,0.104476601,0.001671015,0.002530358,0.001058262,1.128092766,-0.099008754,9.736697197
1784246762.429610,-0.010123164,-0.119132347,0.104482055,0.002066023,0.002225822,0.001174189,1.116156459,-0.120847516,9.741925240
1784246762.431597,-0.010117186,-0.119121492,0.104488231,0.002467259,0.002523063,0.001532490,1.115622759,-0.091623165,9.728661537
1784246762.433617,-0.010110787,-0.119113490,0.104485735,0.002726843,0.002941265,0.001253026,1.137066245,-0.100343622,9.719211578
1784246762.435606,-0.010103797,-0.119106963,0.104482964,0.002824840,0.003052565,0.000452508,1.138088107,-0.089645393,9.725110054
1784246762.437608,-0.010104293,-0.119103618,0.104488179,0.002493586,0.002810461,0.000444556,1.126388669,-0.092596658,9.720147133
1784246762.439607,-0.010104585,-0.119100034,0.104493938,0.001851641,0.002508543,0.001069241,1.110717177,-0.088891238,9.731366158
1784246762.441609,-0.010107297,-0.119093806,0.104495116,0.001185141,0.002238297,0.001270995,1.104692459,-0.103297532,9.751890182
1784246762.443608,-0.010107527,-0.119088918,0.104496069,0.000665200,0.002133785,0.001093499,1.093588471,-0.094963305,9.734000206
1784246762.445604,-0.010106766,-0.119076587,0.104500107,0.000543242,0.002431868,0.001129154,1.110047102,-0.106438644,9.742909431
1784246762.447603,-0.010103930,-0.119070917,0.104506813,0.000707223,0.002698079,0.001516839,1.092535615,-0.071556687,9.720699310
1784246762.449610,-0.010102516,-0.119072676,0.104504712,0.000838546,0.002228459,0.001380395,1.103076577,-0.090918839,9.715205193
1784246762.451608,-0.010104096,-0.119067103,0.104505301,0.000606773,0.001622214,0.000899916,1.116486192,-0.058771953,9.706905365
1784246762.453614,-0.010099936,-0.119060636,0.104510024,0.000677961,0.001733302,0.000986597,1.117980599,-0.083455071,9.709886551
1784246762.455610,-0.010101765,-0.119053647,0.104506180,0.000624183,0.002015131,0.000761866,1.127214432,-0.060851224,9.727973938
1784246762.457614,-0.010100923,-0.119047426,0.104507275,0.000332223,0.002206495,0.000381050,1.137192130,-0.089624345,9.723764420
1784246762.459616,-0.010101026,-0.119045995,0.104506895,0.000297465,0.002126666,0.000319313,1.126580715,-0.076489136,9.722941399
1784246762.461621,-0.010098750,-0.119044587,0.104510725,0.000339155,0.001616703,0.000452446,1.097767711,-0.084985025,9.709409714
1784246762.463614,-0.010093045,-0.119047418,0.104521729,0.000852811,0.000947575,0.001270613,1.096000075,-0.082722217,9.709423065
1784246762.465620,-0.010089175,-0.119047098,0.104518786,0.001261757,0.000228637,0.001396058,1.103776813,-0.069486044,9.724308014
1784246762.467710,-0.010084365,-0.119049437,0.104517363,0.001399343,-0.000252281,0.000657044,1.084846616,-0.077209316,9.710343361
1784246762.469644,-0.010080224,-0.119049333,0.104526058,0.001681424,-0.000339355,0.000896664,1.091520190,-0.080987342,9.725569725
1784246762.471762,-0.010078229,-0.119043410,0.104532175,0.001634453,-0.000223391,0.001613377,1.089691043,-0.082451314,9.745733261
1784246762.473669,-0.010078976,-0.119049385,0.104529805,0.001181620,-0.000544064,0.001428552,1.096716523,-0.096318826,9.729959488
1784246762.475663,-0.010080972,-0.119047202,0.104528397,0.000633811,-0.000970321,0.000805090,1.076170683,-0.087609857,9.739410400
1784246762.477669,-0.010084262,-0.119044676,0.104530029,0.000095647,-0.000705141,0.000642720,1.096478462,-0.078845762,9.730520248
1784246762.479650,-0.010085285,-0.119042948,0.104530588,-0.000203188,-0.000225750,0.000652541,1.093447208,-0.068620056,9.747170448
1784246762.481645,-0.010082993,-0.119046919,0.104531586,-0.000175400,-0.000598689,0.000583855,1.105980754,-0.073069870,9.720253944
1784246762.483645,-0.010083614,-0.119048655,0.104535148,-0.000103930,-0.001106131,0.000731155,1.100733757,-0.098159216,9.729502678
1784246762.485645,-0.010083502,-0.119047530,0.104533434,-0.000101575,-0.001096169,0.000659980,1.079075336,-0.071377851,9.719790459
1784246762.487637,-0.010081980,-0.119047955,0.104530551,-0.000007404,-0.000997145,0.000157493,1.089457631,-0.066966876,9.710862160
1784246762.489645,-0.010086447,-0.119047001,0.104530714,-0.000225926,-0.000688915,-0.000045239,1.104439616,-0.051592428,9.727114677
1784246762.491688,-0.010080268,-0.119044542,0.104536645,-0.000207272,-0.000613823,0.000384181,1.102742195,-0.043506134,9.727165222
1784246762.493656,-0.010069854,-0.119049810,0.104539633,0.000832181,-0.000984605,0.000768476,1.122350574,-0.054141697,9.738325119
1784246762.495653,-0.010061244,-0.119052894,0.104535684,0.001697005,-0.001485659,0.000361346,1.135431170,-0.050527599,9.710563660
1784246762.497653,-0.010064173,-0.119055659,0.104533866,0.001389171,-0.001677236,-0.000152390,1.123657346,-0.058117468,9.727988243
1784246762.499653,-0.010063744,-0.119055524,0.104537815,0.000860663,-0.001403076,0.000052839,1.123164296,-0.062108386,9.723031044
1784246762.501660,-0.010060428,-0.119058810,0.104538128,0.000780204,-0.001441289,0.000309815,1.128217459,-0.053545900,9.706951141
1784246762.503652,-0.010059544,-0.119064540,0.104537822,0.000717998,-0.001863300,0.000205988,1.148483872,-0.047539521,9.707905769
1784246762.505665,-0.010054721,-0.119073249,0.104537517,0.000651960,-0.002422273,0.000092813,1.095012784,-0.051503494,9.731589317
1784246762.507660,-0.010053212,-0.119081356,0.104534052,0.000620700,-0.002990325,-0.000207125,1.137125254,-0.093799084,9.743912697
1784246762.509666,-0.010043993,-0.119088493,0.104531258,0.001124936,-0.003210396,-0.000658383,1.146728635,-0.079931274,9.729663849
1784246762.511662,-0.010042087,-0.119090706,0.104532138,0.001531045,-0.003066918,-0.000696537,1.157094002,-0.039684027,9.721861839
1784246762.513659,-0.010044268,-0.119096391,0.104534946,0.001103564,-0.002867478,-0.000255605,1.140260696,-0.059534166,9.708268166
1784246762.515666,-0.010034071,-0.119098254,0.104530185,0.001191326,-0.002687837,-0.000366808,1.146001458,-0.067634054,9.702843666
1784246762.517713,-0.010028722,-0.119104855,0.104523987,0.001690186,-0.002611561,-0.001115349,1.130063534,-0.086294882,9.709432602
1784246762.519682,-0.010025345,-0.119110629,0.104518637,0.001726224,-0.002732455,-0.001662157,1.121183157,-0.078145228,9.713511467
1784246762.521673,-0.010022104,-0.119113326,0.104511887,0.001427829,-0.002745027,-0.002060595,1.124179125,-0.089867428,9.718370438
1784246762.523707,-0.010023217,-0.119121172,0.104503542,0.000883856,-0.002893661,-0.002514616,1.135483623,-0.083650671,9.705867767
1784246762.525677,-0.010022287,-0.119126722,0.104504004,0.000539472,-0.003113482,-0.002358506,1.115625858,-0.092004359,9.719244957
1784246762.527678,-0.010020482,-0.119125314,0.104501188,0.000529622,-0.002648349,-0.001897930,1.158012033,-0.074689940,9.728363037
1784246762.529680,-0.010025307,-0.119127557,0.104492985,0.000093354,-0.001977570,-0.002102792,1.129857898,-0.063297227,9.752171516
1784246762.531680,-0.010027601,-0.119133390,0.104484566,-0.000682486,-0.002111955,-0.002581163,1.130315423,-0.062826395,9.748139381
1784246762.533680,-0.010025741,-0.119144931,0.104488894,-0.000695952,-0.002850644,-0.002138066,1.122282743,-0.060756184,9.723486900
1784246762.535677,-0.010022540,-0.119152181,0.104490802,-0.000238432,-0.003505789,-0.001165318,1.128093004,-0.063442379,9.712715149
1784246762.537680,-0.010020018,-0.119161688,0.104476728,-0.000009053,-0.003830303,-0.001701571,1.161936045,-0.047781952,9.717780113
1784246762.539696,-0.010019751,-0.119164512,0.104470745,0.000019547,-0.003612024,-0.002613415,1.176717877,-0.048982061,9.733925819
1784246762.541698,-0.010021836,-0.119172327,0.104465321,-0.000466231,-0.003343536,-0.002628014,1.173427343,-0.061065387,9.737880707
1784246762.543700,-0.010023183,-0.119184151,0.104458548,-0.000935133,-0.003758457,-0.002678337,1.161767960,-0.060455218,9.736080170
1784246762.545694,-0.010025695,-0.119192153,0.104460560,-0.001097686,-0.004119638,-0.002227641,1.149300694,-0.052643932,9.731186867
1784246762.547699,-0.010031511,-0.119195960,0.104455955,-0.001499959,-0.003840825,-0.001716228,1.116616368,-0.084797606,9.712119102
1784246762.549694,-0.010035842,-0.119200304,0.104454480,-0.001825486,-0.003347936,-0.001576780,1.144737005,-0.098077543,9.701747894
1784246762.551696,-0.010036788,-0.119206347,0.104447260,-0.001757294,-0.003224824,-0.001692644,1.163737893,-0.083717532,9.727413177
1784246762.553701,-0.010036008,-0.119218431,0.104445025,-0.001369545,-0.003660207,-0.001869697,1.178658247,-0.073693186,9.740047455
1784246762.555694,-0.010032962,-0.119229220,0.104445294,-0.000855164,-0.004162861,-0.001511945,1.174478889,-0.085291617,9.740416527
1784246762.557700,-0.010028034,-0.119237401,0.104435831,-0.000259307,-0.004258225,-0.001772968,1.153052688,-0.076841056,9.724758148
1784246762.559716,-0.010029602,-0.119246297,0.104433320,-0.000059092,-0.004252182,-0.002125539,1.164673686,-0.080183506,9.732817650
1784246762.561708,-0.010035837,-0.119253926,0.104434341,-0.000692601,-0.004244356,-0.001571270,1.185661912,-0.088139012,9.742650032
1784246762.563708,-0.010038703,-0.119260944,0.104433857,-0.001225407,-0.004112778,-0.001022489,1.162589431,-0.067551434,9.724379539
1784246762.565706,-0.010037738,-0.119272016,0.104426101,-0.001198891,-0.004269399,-0.001273320,1.156118870,-0.079902939,9.771816254
1784246762.567710,-0.010042336,-0.119277716,0.104415745,-0.001375908,-0.004287398,-0.002105690,1.182918549,-0.092561863,9.739480972
1784246762.569715,-0.010047696,-0.119278081,0.104420885,-0.001715604,-0.003529807,-0.001805513,1.194775701,-0.115420021,9.719170570
1784246762.571713,-0.010052155,-0.119283423,0.104421616,-0.001819240,-0.002894003,-0.000846017,1.198099017,-0.100242317,9.721065521
1784246762.573723,-0.010059577,-0.119291730,0.104414389,-0.002133664,-0.002963245,-0.000962712,1.189047813,-0.067604832,9.747268677
1784246762.575718,-0.010066322,-0.119297542,0.104415864,-0.002688752,-0.003046724,-0.000958166,1.144996881,-0.075762160,9.713548660
1784246762.577718,-0.010068323,-0.119304560,0.104417071,-0.002659507,-0.003025427,-0.000430206,1.165189147,-0.075204447,9.724779129
1784246762.579721,-0.010069682,-0.119314246,0.104408413,-0.002224107,-0.003333826,-0.000786863,1.201926112,-0.079771124,9.733752251
1784246762.581730,-0.010069700,-0.119322240,0.104403123,-0.001851403,-0.003538324,-0.001497779,1.226662874,-0.075575925,9.729320526
1784246762.583720,-0.010073744,-0.119323112,0.104408406,-0.001648078,-0.003098455,-0.001055755,1.185533166,-0.060887117,9.754034042
1784246762.585756,-0.010074056,-0.119326800,0.104409315,-0.001589057,-0.002563721,-0.000299450,1.184025526,-0.077139191,9.710887909
1784246762.587737,-0.010074923,-0.119330920,0.104403712,-0.001420020,-0.002386873,-0.000507650,1.184983730,-0.106966704,9.745218277
1784246762.589735,-0.010075322,-0.119335309,0.104400858,-0.001188335,-0.002311550,-0.000930225,1.204030395,-0.093057469,9.708115578
1784246762.591780,-0.010079322,-0.119339846,0.104394004,-0.001271560,-0.002163633,-0.001292104,1.211557865,-0.100027241,9.729597092
1784246762.593740,-0.010083546,-0.119346581,0.104391463,-0.001587184,-0.002215452,-0.001502868,1.217666626,-0.112415716,9.759562492
1784246762.595733,-0.010089452,-0.119352683,0.104391761,-0.001800596,-0.002292368,-0.001169200,1.216512442,-0.099130966,9.720641136
1784246762.597742,-0.010091457,-0.119345918,0.104389824,-0.001801531,-0.001432220,-0.000902724,1.190775752,-0.110202618,9.748790741
1784246762.599740,-0.010095987,-0.119343124,0.104384102,-0.001814810,-0.000388948,-0.001121490,1.195688009,-0.115313873,9.702584267
1784246762.601741,-0.010103416,-0.119345926,0.104383990,-0.002102497,-0.000220908,-0.001122132,1.209571600,-0.118129000,9.695406914
1784246762.603734,-0.010105870,-0.119347908,0.104382753,-0.002135484,-0.000426154,-0.000835316,1.194650531,-0.124919422,9.732110977
1784246762.605736,-0.010107669,-0.119354285,0.104378290,-0.001781754,-0.000829632,-0.000970172,1.187700987,-0.104777284,9.747477531
1784246762.607738,-0.010103566,-0.119357407,0.104373842,-0.001108370,-0.001198381,-0.001338947,1.191617250,-0.078739792,9.733302116
1784246762.609747,-0.010106336,-0.119353816,0.104369119,-0.000791787,-0.000835163,-0.001604352,1.191238403,-0.073723800,9.721675873
1784246762.611743,-0.010113485,-0.119357310,0.104371727,-0.001321685,-0.000547906,-0.001221121,1.224207282,-0.093027197,9.730551720
1784246762.613744,-0.010115747,-0.119361416,0.104375333,-0.001606234,-0.000865143,-0.000385107,1.216613173,-0.089825533,9.735047340
1784246762.615748,-0.010118453,-0.119365603,0.104376890,-0.001523409,-0.001044715,0.000116357,1.208563209,-0.087485418,9.735502243
1784246762.617747,-0.010127045,-0.119363539,0.104375757,-0.001927999,-0.000754877,0.000212496,1.217281103,-0.109073922,9.731337547
1784246762.619783,-0.010132898,-0.119359359,0.104376554,-0.002380883,-0.000127826,0.000248495,1.203996539,-0.094944693,9.721552849
1784246762.621767,-0.010145666,-0.119358942,0.104378246,-0.002892118,0.000329601,0.000491057,1.203282475,-0.081329018,9.698326111
1784246762.623762,-0.010147592,-0.119352981,0.104371250,-0.003062964,0.000790083,0.000109184,1.224519849,-0.102618188,9.755597115
1784246762.625760,-0.010147903,-0.119357392,0.104369961,-0.002448401,0.000849353,-0.000458200,1.204413295,-0.097635038,9.721087456
1784246762.627764,-0.010154303,-0.119357988,0.104370408,-0.002241905,0.000441830,-0.000332873,1.194217086,-0.089229651,9.691541672
1784246762.629761,-0.010162720,-0.119358316,0.104369804,-0.002632945,0.000258122,-0.000133493,1.196694851,-0.106356606,9.701297760
1784246762.631837,-0.010167953,-0.119360343,0.104370087,-0.002845063,0.000159617,-0.000005986,1.199509859,-0.131663933,9.726692200
1784246762.633786,-0.010167760,-0.119362354,0.104369178,-0.002422003,-0.000025813,-0.000003073,1.209068656,-0.082989298,9.732393265
1784246762.635784,-0.010166977,-0.119359873,0.104369037,-0.001784891,0.000141986,-0.000070949,1.195523620,-0.089558505,9.735477448
1784246762.637798,-0.010170630,-0.119354665,0.104373850,-0.001533449,0.000749951,0.000297165,1.210635424,-0.103049718,9.715230942
1784246762.639804,-0.010173215,-0.119353734,0.104373969,-0.001497531,0.000960223,0.000599905,1.184152603,-0.105217040,9.689635277
1784246762.641792,-0.010176824,-0.119357832,0.104367860,-0.001511203,0.000614393,0.000077481,1.186526299,-0.093681470,9.701368332
1784246762.643804,-0.010180680,-0.119354226,0.104365416,-0.001627298,0.000544592,-0.000464720,1.199295163,-0.112789758,9.719191551
1784246762.645802,-0.010194109,-0.119350798,0.104369782,-0.002214893,0.000962385,-0.000081669,1.211552858,-0.138465434,9.716348648
1784246762.647785,-0.010195009,-0.119348571,0.104365021,-0.002462697,0.001175910,0.000016643,1.220763326,-0.118072785,9.730387688
1784246762.649782,-0.010194660,-0.119345538,0.104367651,-0.001848378,0.001216222,-0.000127739,1.215065479,-0.144388974,9.723936081
1784246762.651782,-0.010195388,-0.119337216,0.104367360,-0.001123494,0.001870907,0.000041783,1.201194763,-0.103068888,9.734948158
1784246762.653783,-0.010187379,-0.119327605,0.104367204,-0.000101799,0.002794046,-0.000084178,1.181869388,-0.104689822,9.745678902
1784246762.655790,-0.010182555,-0.119331241,0.104369089,0.000866889,0.002509390,-0.000054552,1.195196271,-0.116458423,9.738442421
1784246762.657789,-0.010182178,-0.119334579,0.104368754,0.001056665,0.001425291,0.000015481,1.182837009,-0.100094527,9.727776527
1784246762.659785,-0.010183730,-0.119330205,0.104371674,0.000711538,0.001107953,0.000194726,1.174380302,-0.094581142,9.723768234
1784246762.661794,-0.010183947,-0.119322240,0.104378529,0.000467326,0.001647675,0.000817009,1.197120667,-0.107353672,9.714740753
1784246762.663784,-0.010188519,-0.119313568,0.104384623,0.000111182,0.002329326,0.001506334,1.203821898,-0.145665452,9.734677315
1784246762.665785,-0.010193620,-0.119309470,0.104386397,-0.000311953,0.002667666,0.001682425,1.197896481,-0.116835952,9.723649025
1784246762.667792,-0.010193346,-0.119302742,0.104383402,-0.000366895,0.002789401,0.001160549,1.163118362,-0.098434098,9.718801498
1784246762.669790,-0.010192697,-0.119298913,0.104383647,-0.000227187,0.002750925,0.000653581,1.186264396,-0.115199514,9.703472137
1784246762.671802,-0.010197179,-0.119297840,0.104383178,-0.000327880,0.002435873,0.000480910,1.175724149,-0.095830992,9.708069801
1784246762.673796,-0.010202555,-0.119292878,0.104386725,-0.000780772,0.002280790,0.000625710,1.158452272,-0.111948982,9.737540245
1784246762.675795,-0.010208208,-0.119282849,0.104387358,-0.001268172,0.002672936,0.000824018,1.189099312,-0.137514159,9.749061584
1784246762.677798,-0.010210706,-0.119275548,0.104385100,-0.001475850,0.003121559,0.000554434,1.185274124,-0.120379485,9.740650177
1784246762.679810,-0.010206554,-0.119269103,0.104387671,-0.000960871,0.003206870,0.000411913,1.167955160,-0.106979974,9.714715004
1784246762.681802,-0.010214928,-0.119267046,0.104390465,-0.000860935,0.002981674,0.000685138,1.156639934,-0.113279410,9.738875389
1784246762.683838,-0.010218373,-0.119258672,0.104387298,-0.001346446,0.002951628,0.000559107,1.168317318,-0.112936415,9.732610703
1784246762.685813,-0.010218734,-0.119249731,0.104387060,-0.001333262,0.003359314,0.000217545,1.166332960,-0.090598635,9.745305061
1784246762.687806,-0.010223702,-0.119246900,0.104391441,-0.001365169,0.003275563,0.000490036,1.126957297,-0.118707553,9.736569405
1784246762.689804,-0.010221259,-0.119241759,0.104390316,-0.001138204,0.002924420,0.000597065,1.146800399,-0.110874958,9.733501434
1784246762.691850,-0.010217038,-0.119229898,0.104390383,-0.000315248,0.003203826,0.000299973,1.179428697,-0.121213391,9.742432594
1784246762.693825,-0.010216958,-0.119219691,0.104389265,0.000125213,0.003750960,0.000103258,1.164399266,-0.103423424,9.725047112
1784246762.695821,-0.010221731,-0.119209580,0.104393341,-0.000260851,0.004064954,0.000319395,1.157155037,-0.107493445,9.743394852
1784246762.697816,-0.010222732,-0.119199894,0.104396656,-0.000579382,0.004256218,0.000783462,1.141885996,-0.109023049,9.733956337
1784246762.699814,-0.010225778,-0.119196020,0.104398601,-0.000652417,0.004016851,0.000957205,1.156821966,-0.097658008,9.747045517
1784246762.701819,-0.010223179,-0.119191222,0.104403280,-0.000510822,0.003479947,0.001154273,1.149525762,-0.106595181,9.756844521
1784246762.703830,-0.010216758,-0.119180284,0.104409650,0.000266006,0.003566205,0.001518186,1.160385370,-0.099937446,9.746137619
1784246762.705824,-0.010212342,-0.119166672,0.104409084,0.000983506,0.004187708,0.001407559,1.159005880,-0.101804242,9.759125710
1784246762.707818,-0.010210888,-0.119159132,0.104411863,0.001142555,0.004411616,0.001126545,1.157516122,-0.078299679,9.732822418
1784246762.709822,-0.010210443,-0.119152658,0.104411833,0.000982572,0.004163282,0.000991306,1.127992868,-0.107901208,9.727225304
1784246762.711824,-0.010209622,-0.119149067,0.104405969,0.000754456,0.003573136,0.000312671,1.142265201,-0.151219204,9.744446754
1784246762.713831,-0.010205645,-0.119145796,0.104405291,0.000821142,0.002925164,-0.000254760,1.135102987,-0.149776980,9.743551254
1784246762.715823,-0.010204090,-0.119135901,0.104413353,0.001251503,0.002839454,0.000237222,1.118184566,-0.139191806,9.734635353
1784246762.717835,-0.010200817,-0.119130477,0.104423031,0.001601040,0.002916306,0.001300480,1.133875251,-0.101914361,9.756857872
1784246762.719828,-0.010199412,-0.119125880,0.104419366,0.001530119,0.002800459,0.001315402,1.094183207,-0.121677592,9.709171295
1784246762.721855,-0.010199527,-0.119115204,0.104423039,0.001335163,0.002756047,0.000929128,1.127385736,-0.083715700,9.729620934
1784246762.723888,-0.010200497,-0.119110018,0.104430072,0.001119432,0.002755947,0.001387918,1.145687938,-0.090775773,9.744389534
1784246762.725865,-0.010196657,-0.119101658,0.104435019,0.001107905,0.002861858,0.001795171,1.135714054,-0.101590760,9.707995415
1784246762.727847,-0.010190851,-0.119097337,0.104434833,0.001497970,0.002884039,0.001550623,1.133126616,-0.091002353,9.735857010
1784246762.729852,-0.010191498,-0.119094297,0.104434647,0.001436045,0.002599826,0.001063368,1.112347007,-0.102778777,9.728138924
1784246762.731879,-0.010191462,-0.119088255,0.104438700,0.001082412,0.002358116,0.001032658,1.098886132,-0.102606297,9.728127480
1784246762.733849,-0.010187977,-0.119082861,0.104442261,0.001133377,0.002339371,0.001228274,1.130197644,-0.110668600,9.734381676
1784246762.735859,-0.010182903,-0.119074203,0.104442537,0.001426843,0.002558712,0.001083655,1.106095672,-0.100433037,9.724561691
1784246762.737859,-0.010181201,-0.119073585,0.104440473,0.001475276,0.002398511,0.000615219,1.082348108,-0.098241098,9.711104393
1784246762.739855,-0.010178789,-0.119075857,0.104443327,0.001358428,0.001634259,0.000468690,1.133240938,-0.119178772,9.728501320
1784246762.741856,-0.010174179,-0.119068444,0.104446031,0.001547699,0.001432764,0.000653189,1.115749955,-0.118887767,9.719073296
1784246762.743861,-0.010173428,-0.119063020,0.104452223,0.001600274,0.001807434,0.001025037,1.109218001,-0.139829651,9.714448929
1784246762.745869,-0.010170921,-0.119059339,0.104457542,0.001634824,0.001773326,0.001474727,1.112157345,-0.118460596,9.728487015
1784246762.747854,-0.010165261,-0.119058259,0.104451708,0.001893945,0.001463171,0.000952668,1.122065425,-0.077870913,9.736378670
1784246762.749856,-0.010168898,-0.119056493,0.104451708,0.001468905,0.001263617,0.000282697,1.098214269,-0.082983084,9.742151260
1784246762.751869,-0.010176688,-0.119045734,0.104455180,0.000276084,0.001537212,0.000535685,1.109483600,-0.079069719,9.738599777
1784246762.753865,-0.010176266,-0.119038723,0.104457565,-0.000300010,0.002092574,0.000848796,1.101025224,-0.075189196,9.712165833
1784246762.755861,-0.010172248,-0.119041733,0.104461305,0.000066229,0.001589159,0.001000876,1.119470954,-0.070176564,9.730149269
1784246762.757869,-0.010166882,-0.119044825,0.104470655,0.000722325,0.000531605,0.001541678,1.123017788,-0.074206516,9.723402023
1784246762.759865,-0.010163388,-0.119044721,0.104473628,0.001222978,0.000175258,0.001883835,1.107211590,-0.080886871,9.746208191
1784246762.761876,-0.010156309,-0.119046018,0.104476199,0.001624010,-0.000171846,0.001663315,1.124934077,-0.062735155,9.744997025
1784246762.763868,-0.010146167,-0.119046256,0.104481868,0.002385722,-0.000448544,0.001629645,1.122379303,-0.091099292,9.705807686
1784246762.765877,-0.010142584,-0.119042791,0.104482837,0.002746254,-0.000251483,0.001516770,1.101535916,-0.104191355,9.757262230
1784246762.767874,-0.010140628,-0.119042188,0.104478665,0.002378138,-0.000043475,0.000838188,1.083392859,-0.082904652,9.757829666
1784246762.769879,-0.010135809,-0.119043179,0.104475118,0.002127032,-0.000052236,0.000036102,1.107023597,-0.096149348,9.750594139
1784246762.771881,-0.010130940,-0.119039908,0.104473211,0.002159972,-0.000133717,-0.000421922,1.126153350,-0.110257924,9.746934891
1784246762.773880,-0.010127268,-0.119036123,0.104468480,0.002097254,0.000132289,-0.000826120,1.134854198,-0.096419938,9.738513947
1784246762.775882,-0.010126244,-0.119034819,0.104463801,0.001690716,0.000366847,-0.001265334,1.139453053,-0.087893046,9.728260994
1784246762.777887,-0.010124390,-0.119033650,0.104467146,0.001337024,0.000354917,-0.001026801,1.098982215,-0.058582716,9.711821556
1784246762.779919,-0.010114639,-0.119032577,0.104469545,0.001802361,0.000407995,-0.000454400,1.099537492,-0.085611790,9.731375694
1784246762.781945,-0.010104817,-0.119030744,0.104469523,0.002609576,0.000209395,-0.000326818,1.130694628,-0.069055907,9.741374969
1784246762.783899,-0.010101306,-0.119030923,0.104467958,0.002745187,-0.000019071,-0.000451684,1.123703003,-0.091294594,9.730914116
1784246762.785894,-0.010102143,-0.119031973,0.104470663,0.002173417,-0.000269932,-0.000273406,1.111547232,-0.094297357,9.734021187
1784246762.787895,-0.010100589,-0.119035028,0.104476087,0.001681255,-0.000652844,0.000342632,1.097566247,-0.064385772,9.711334229
1784246762.789903,-0.010098465,-0.119035952,0.104477033,0.001523888,-0.000753082,0.000648309,1.108020425,-0.090918496,9.706243515
1784246762.791900,-0.010098499,-0.119035535,0.104481183,0.001282866,-0.000824297,0.000798594,1.097146153,-0.061317433,9.721667290
1784246762.793891,-0.010099888,-0.119040176,0.104479805,0.000851749,-0.001124635,0.000779922,1.136430144,-0.041633934,9.718243599
1784246762.795889,-0.010094241,-0.119048461,0.104482353,0.000696415,-0.001740347,0.000637998,1.146108508,-0.056250971,9.740127563
1784246762.797892,-0.010088594,-0.119057417,0.104484506,0.001085924,-0.002483400,0.000714283,1.138017416,-0.094661988,9.737630844
1784246762.799921,-0.010085130,-0.119061604,0.104480758,0.001392309,-0.002698308,0.000338467,1.149863601,-0.080422662,9.730113029
1784246762.801912,-0.010079011,-0.119063854,0.104477696,0.001494066,-0.002455470,-0.000276263,1.127344966,-0.051310502,9.709206581
1784246762.803899,-0.010075083,-0.119062982,0.104479410,0.001643348,-0.001939605,-0.000361043,1.143623710,-0.077984720,9.713534355
1784246762.805898,-0.010071612,-0.119062804,0.104479082,0.001662393,-0.001456057,-0.000223777,1.117994308,-0.081726819,9.718864441
1784246762.807900,-0.010071510,-0.119061626,0.104481399,0.001423179,-0.001083511,-0.000051862,1.148748398,-0.062372498,9.714086533
1784246762.809921,-0.010071201,-0.119065993,0.104483716,0.001101657,-0.001009736,0.000270611,1.146108031,-0.059090983,9.698413849
1784246762.811905,-0.010063051,-0.119077645,0.104481004,0.001201521,-0.001911225,0.000121650,1.125150681,-0.083213560,9.726036072
1784246762.813906,-0.010058496,-0.119086310,0.104481116,0.001542775,-0.002857727,-0.000168573,1.138662577,-0.077311724,9.753882408
1784246762.815904,-0.010062920,-0.119086303,0.104477882,0.001003942,-0.002783118,-0.000322835,1.128992319,-0.062627912,9.722584724
1784246762.817944,-0.010065118,-0.119089089,0.104476675,0.000145722,-0.002327539,-0.000469822,1.143207669,-0.036484540,9.738009453
1784246762.819953,-0.010058127,-0.119104952,0.104475990,0.000413979,-0.002959689,-0.000508645,1.145985723,-0.068161502,9.714047432
1784246762.821930,-0.010049331,-0.119115971,0.104476079,0.001217233,-0.004056839,-0.000521456,1.127431989,-0.079296507,9.738167763
1784246762.823916,-0.010049338,-0.119118497,0.104476757,0.001341732,-0.003952060,-0.000382070,1.145153761,-0.060744517,9.743682861
1784246762.825962,-0.010046810,-0.119120084,0.104479335,0.001023101,-0.003224672,-0.000060930,1.129286289,-0.073581867,9.750311852
1784246762.827924,-0.010045093,-0.119128190,0.104478568,0.000895626,-0.003073225,0.000062764,1.161563635,-0.077874839,9.728796005
1784246762.829920,-0.010042258,-0.119137146,0.104468562,0.000872485,-0.003390315,-0.000715884,1.146795750,-0.074536666,9.727008820
1784246762.831923,-0.010044816,-0.119144261,0.104464166,0.000439890,-0.003651610,-0.001482520,1.151634336,-0.082256578,9.732791901
1784246762.833919,-0.010042085,-0.119147658,0.104455546,0.000128626,-0.003464573,-0.001948638,1.160748839,-0.070321128,9.739153862
1784246762.835924,-0.010040465,-0.119155906,0.104440965,0.000120953,-0.003290255,-0.003009713,1.178736448,-0.068212718,9.725285530
1784246762.837925,-0.010041145,-0.119165599,0.104439907,-0.000053332,-0.003596748,-0.003243824,1.192002535,-0.050571926,9.677888870
1784246762.839926,-0.010042930,-0.119174175,0.104441412,-0.000201414,-0.003862547,-0.002313481,1.160754323,-0.070276611,9.732877731
1784246762.841925,-0.010043184,-0.119183488,0.104439683,-0.000380935,-0.004001188,-0.001671647,1.139124036,-0.076405659,9.751647949
1784246762.843943,-0.010039035,-0.119189493,0.104438983,-0.000129621,-0.003925096,-0.001401054,1.177467942,-0.060287975,9.747304916
1784246762.845938,-0.010031952,-0.119192779,0.104434133,0.000493473,-0.003368771,-0.001471217,1.174497247,-0.047962002,9.720479965
1784246762.847945,-0.010033475,-0.119199038,0.104427099,0.000514204,-0.002974499,-0.001902168,1.180459976,-0.075282276,9.708206177
1784246762.849947,-0.010038194,-0.119208172,0.104421809,-0.000145410,-0.003202310,-0.002165898,1.188927293,-0.043123022,9.707075119
1784246762.851950,-0.010031253,-0.119216353,0.104417264,-0.000247349,-0.003445121,-0.002231486,1.207411408,-0.073774964,9.699724197
1784246762.853945,-0.010023445,-0.119216315,0.104415692,0.000552673,-0.003002346,-0.002130010,1.185344815,-0.078179546,9.728816032
1784246762.855945,-0.010018882,-0.119215906,0.104412735,0.001105495,-0.002086158,-0.001944516,1.153572321,-0.070613511,9.730179787
1784246762.857947,-0.010016672,-0.119216599,0.104408592,0.001110194,-0.001467655,-0.001936653,1.167772532,-0.085824661,9.701401711
1784246762.859971,-0.010017318,-0.119225509,0.104405127,0.000852906,-0.001716241,-0.001935235,1.228427887,-0.078264430,9.726165771
