time_sec,roll_rad,pitch_rad,yaw_rad,gyro_x,gyro_y,gyro_z,acc_x,acc_y,acc_z
1784246741.477503,0.005223747,-0.120255426,-0.375739962,-0.001437839,-0.001174776,-0.000768421,1.160910130,0.051421084,9.693757057
1784246741.478776,0.005225588,-0.120252192,-0.375733674,-0.000972233,-0.000858145,-0.000217360,1.154034972,0.042261928,9.734041214
1784246741.480764,0.005220072,-0.120241992,-0.375736743,-0.000877512,0.000149784,0.000079714,1.197128773,0.044689931,9.756066322
1784246741.482806,0.005213525,-0.120239906,-0.375738740,-0.001441088,0.000803863,-0.000192722,1.214578986,0.038404111,9.726453781
1784246741.484757,0.005210680,-0.120239444,-0.375736296,-0.001603650,0.000879592,-0.000050043,1.175500751,0.036959827,9.747925758
1784246741.486792,0.005213749,-0.120238587,-0.375733644,-0.001036405,0.000853930,0.000289210,1.189063668,0.044075549,9.730948448
1784246741.488783,0.005218642,-0.120236404,-0.375730485,-0.000171189,0.000830363,0.000537043,1.159143925,0.056533441,9.734137535
1784246741.490797,0.005223714,-0.120234236,-0.375729561,0.000514044,0.000849375,0.000591513,1.162314653,0.059161890,9.736847878
1784246741.492787,0.005225601,-0.120237522,-0.375732988,0.000757023,0.000490551,0.000213519,1.173244476,0.071639955,9.726626396
1784246741.494791,0.005227204,-0.120240241,-0.375735104,0.000588186,-0.000018112,-0.000226240,1.187461376,0.096175887,9.716037750
1784246741.496795,0.005225699,-0.120234586,-0.375729799,0.000307629,0.000221241,0.000070310,1.180710077,0.057293311,9.714436531
1784246741.498829,0.005225116,-0.120234996,-0.375728130,0.000140161,0.000519654,0.000539819,1.155611873,0.061897736,9.742238045
1784246741.500876,0.005225634,-0.120235778,-0.375727236,0.000085370,0.000198227,0.000572075,1.162457585,0.069204636,9.710460663
1784246741.502827,0.005223410,-0.120242849,-0.375721544,-0.000032430,-0.000486841,0.000881766,1.169008374,0.055136211,9.723827362
1784246741.504807,0.005224667,-0.120242037,-0.375720829,-0.000080485,-0.000842207,0.001090182,1.173111200,0.060456820,9.724312782
1784246741.506822,0.005233666,-0.120242544,-0.375718564,0.000613336,-0.000656974,0.000920710,1.198873878,0.074165359,9.703354836
1784246741.508808,0.005240411,-0.120246455,-0.375720054,0.001514271,-0.000777069,0.000597889,1.164579391,0.060515188,9.731479645
1784246741.510799,0.005240960,-0.120248325,-0.375719726,0.001536973,-0.000947389,0.000307094,1.144991040,0.073739946,9.734235764
1784246741.512794,0.005240433,-0.120248102,-0.375725001,0.001032612,-0.000794644,-0.000102603,1.153068185,0.074046262,9.739624023
1784246741.514780,0.005235750,-0.120247997,-0.375725061,0.000285871,-0.000643392,-0.000383390,1.171791673,0.061900627,9.712663651
1784246741.516784,0.005229939,-0.120252065,-0.375724852,-0.000569588,-0.000820380,-0.000174845,1.171254039,0.055529986,9.727418900
1784246741.518785,0.005231311,-0.120253205,-0.375730455,-0.000757836,-0.000951346,-0.000455485,1.145693183,0.058408733,9.746690750
1784246741.520764,0.005236052,-0.120252296,-0.375735968,-0.000241233,-0.000888931,-0.001127357,1.166070580,0.072179899,9.726623535
1784246741.522761,0.005234292,-0.120258003,-0.375733912,-0.000014145,-0.001151160,-0.001077207,1.190396190,0.079109952,9.716380119
1784246741.524759,0.005232221,-0.120264046,-0.375734776,-0.000357990,-0.001537015,-0.000663479,1.157798529,0.055340365,9.715299606
1784246741.526760,0.005235590,-0.120264128,-0.375741124,-0.000331716,-0.001439345,-0.000973295,1.161176801,0.036200553,9.691417694
1784246741.528762,0.005235815,-0.120261267,-0.375747949,-0.000107203,-0.000863773,-0.001629099,1.149990678,0.077019110,9.705118179
1784246741.530756,0.005235521,-0.120262168,-0.375752181,-0.000325739,-0.000621563,-0.001909869,1.168949008,0.049398571,9.711684227
1784246741.532763,0.005236143,-0.120267928,-0.375747740,-0.000366447,-0.001027016,-0.001359285,1.183850050,0.058866851,9.739556313
1784246741.534755,0.005230035,-0.120270118,-0.375746250,-0.000630962,-0.001214403,-0.000542770,1.163316369,0.067267746,9.729278564
1784246741.536756,0.005221343,-0.120267473,-0.375748247,-0.001503762,-0.000783391,-0.000306903,1.173669338,0.068609767,9.710915565
1784246741.538764,0.005213398,-0.120269358,-0.375750184,-0.002248125,-0.000520903,-0.000352157,1.190207005,0.065458089,9.746330261
1784246741.540755,0.005216457,-0.120274417,-0.375748992,-0.002054116,-0.000770377,-0.000260047,1.178844810,0.051896259,9.720678329
1784246741.542758,0.005220661,-0.120275162,-0.375747055,-0.001062470,-0.000872285,-0.000028684,1.161142945,0.070686586,9.693431854
1784246741.544787,0.005222982,-0.120274156,-0.375754029,-0.000462395,-0.000671896,-0.000400356,1.172890902,0.080096543,9.735198975
1784246741.546782,0.005223506,-0.120274477,-0.375759214,-0.000331314,-0.000501848,-0.001122764,1.149461389,0.071525320,9.722567558
1784246741.548773,0.005227216,-0.120274648,-0.375759691,-0.000001985,-0.000401036,-0.001233595,1.169367790,0.046724126,9.708977699
1784246741.550766,0.005221495,-0.120276608,-0.375758320,-0.000072544,-0.000507227,-0.000828430,1.187852025,0.053258698,9.701864243
1784246741.552812,0.005215202,-0.120273553,-0.375753552,-0.000755424,-0.000364444,-0.000099805,1.148281097,0.049040191,9.736321449
1784246741.554796,0.005214026,-0.120267212,-0.375751942,-0.000994089,0.000258870,0.000416244,1.187900543,0.060127191,9.744050980
1784246741.556788,0.005211929,-0.120264858,-0.375757396,-0.000967929,0.000661221,0.000070137,1.192364335,0.056238372,9.715785980
1784246741.558792,0.005212086,-0.120267704,-0.375753164,-0.000846245,0.000448249,-0.000022188,1.191029668,0.056751266,9.709062576
1784246741.560782,0.005214782,-0.120273910,-0.375746936,-0.000349446,-0.000255925,0.000666319,1.195949912,0.056970648,9.732382774
1784246741.562791,0.005217727,-0.120273210,-0.375752002,0.000125039,-0.000532147,0.000519522,1.138929844,0.055400573,9.740835190
1784246741.564819,0.005213492,-0.120271087,-0.375753462,-0.000048186,-0.000328917,-0.000055336,1.137778997,0.071547613,9.740490913
1784246741.566792,0.005210117,-0.120276235,-0.375751287,-0.000541557,-0.000576208,0.000064655,1.177989841,0.055485088,9.721595764
1784246741.568828,0.005210508,-0.120283753,-0.375753880,-0.000599017,-0.001280926,0.000041313,1.175341368,0.058296382,9.709057808
1784246741.570792,0.005216011,-0.120287664,-0.375752598,-0.000061058,-0.001709787,-0.000100662,1.166728139,0.051632144,9.716629028
1784246741.572788,0.005218625,-0.120292105,-0.375748932,0.000531095,-0.001810811,0.000194546,1.183435321,0.059139691,9.701898575
1784246741.574787,0.005221255,-0.120289475,-0.375755966,0.000679965,-0.001374062,-0.000129557,1.163082600,0.046779178,9.712558746
1784246741.576785,0.005215799,-0.120284803,-0.375753582,0.000234628,-0.000437841,-0.000381152,1.179525971,0.035183005,9.738504410
1784246741.578787,0.005203701,-0.120282933,-0.375754088,-0.000996473,0.000124536,-0.000006936,1.172447085,0.043767180,9.741242409
1784246741.580798,0.005201740,-0.120278001,-0.375759751,-0.001656702,0.000553212,-0.000311501,1.149385929,0.064850405,9.716247559
1784246741.582796,0.005201038,-0.120280512,-0.375759453,-0.001363293,0.000569383,-0.000569896,1.182956100,0.058093712,9.723858833
1784246741.584839,0.005201564,-0.120283745,-0.375757158,-0.000975276,0.000090095,-0.000237090,1.154023886,0.041362830,9.734482765
1784246741.586802,0.005199520,-0.120281778,-0.375752151,-0.000744316,0.000045490,0.000331902,1.165478230,0.058893073,9.705914497
1784246741.588808,0.005198961,-0.120285586,-0.375755340,-0.000702920,-0.000091418,0.000384588,1.178739429,0.079739176,9.711888313
1784246741.590821,0.005201321,-0.120293573,-0.375760257,-0.000569849,-0.000854028,-0.000266530,1.203198314,0.098662436,9.716068268
1784246741.592801,0.005194920,-0.120297089,-0.375759631,-0.000835038,-0.001389559,-0.000434446,1.185207009,0.057718750,9.709512711
1784246741.594804,0.005194985,-0.120295160,-0.375756562,-0.001040005,-0.001080912,-0.000011341,1.200734138,0.043554429,9.720196724
1784246741.596802,0.005197342,-0.120293275,-0.375750244,-0.000553188,-0.000486824,0.000606834,1.156187177,0.034217577,9.727266312
1784246741.598801,0.005197249,-0.120293498,-0.375747770,-0.000164837,-0.000253167,0.001182475,1.165544748,0.030744897,9.757740974
1784246741.600803,0.005173797,-0.120314047,-0.375708878,-0.000211876,-0.000527799,0.001118246,1.190764070,0.035201449,9.715648651
1784246741.602806,0.005172007,-0.120317347,-0.375710875,-0.000410720,-0.000922693,0.000619620,1.186309218,0.038350154,9.721941948
1784246741.604820,0.005165844,-0.120319590,-0.375714958,-0.000877912,-0.000953983,0.000106860,1.181006193,0.046761878,9.745752335
1784246741.606812,0.005156933,-0.120317467,-0.375719637,-0.001720275,-0.000610607,-0.000391800,1.171681762,0.054142199,9.732789993
1784246741.608819,0.005151779,-0.120316453,-0.375722319,-0.002260464,-0.000235811,-0.000663998,1.142866015,0.048057459,9.758276939
1784246741.610814,0.005156424,-0.120310061,-0.375719309,-0.001604781,0.000167470,-0.000462759,1.162702560,0.054622479,9.744440079
1784246741.612814,0.005160889,-0.120303385,-0.375716716,-0.000436471,0.000848131,-0.000042129,1.168389916,0.042049337,9.738088608
1784246741.614819,0.005154953,-0.120300189,-0.375714511,-0.000363453,0.001298157,0.000298908,1.185747504,0.064921722,9.703730583
1784246741.616809,0.005146385,-0.120301612,-0.375711471,-0.001184458,0.001076561,0.000687314,1.214805126,0.056805491,9.721639633
1784246741.618816,0.005140233,-0.120298199,-0.375714391,-0.001854043,0.000918004,0.000627182,1.190081120,0.053925559,9.730115891
1784246741.620820,0.005141907,-0.120296732,-0.375719279,-0.001740811,0.001069767,-0.000027941,1.178506613,0.060880307,9.718044281
1784246741.622819,0.005142842,-0.120297916,-0.375723600,-0.001191226,0.000870188,-0.000650592,1.160902143,0.053790886,9.738605499
1784246741.624820,0.005139408,-0.120296091,-0.375726044,-0.001100440,0.000564925,-0.000906999,1.177584767,0.058267631,9.709059715
1784246741.626820,0.005134177,-0.120295294,-0.375732452,-0.001466626,0.000473754,-0.001184004,1.181985497,0.089039363,9.721366882
1784246741.628822,0.005128547,-0.120292731,-0.375733167,-0.001858493,0.000569904,-0.001258729,1.177802205,0.041035861,9.737643242
1784246741.630822,0.005131106,-0.120295085,-0.375729024,-0.001569523,0.000395780,-0.000663748,1.209076762,0.066624090,9.737389565
1784246741.632819,0.005134890,-0.120300069,-0.375726312,-0.000695926,-0.000243190,-0.000069645,1.168327808,0.073069334,9.723491669
1784246741.634830,0.005139754,-0.120299950,-0.375726104,-0.000020759,-0.000527439,0.000093448,1.163714886,0.062407549,9.718936920
1784246741.636830,0.005142993,-0.120297566,-0.375718236,0.000475727,-0.000232686,0.000558047,1.157305121,0.052562948,9.728731155
1784246741.638829,0.005139212,-0.120298445,-0.375719190,0.000366808,-0.000066775,0.000877431,1.168889880,0.043664105,9.699094772
1784246741.640825,0.005135118,-0.120302305,-0.375722229,-0.000293564,-0.000313533,0.000439210,1.148129225,0.035684027,9.724578857
1784246741.642833,0.005138556,-0.120302521,-0.375720561,-0.000268093,-0.000445423,0.000229353,1.141504884,0.045930289,9.744812965
1784246741.644838,0.005141318,-0.120298520,-0.375720322,0.000278466,-0.000170208,0.000241849,1.168148160,0.058683701,9.730574608
1784246741.646837,0.005144993,-0.120294474,-0.375720173,0.000680008,0.000318898,0.000144254,1.195308447,0.038838927,9.699985504
1784246741.648837,0.005145001,-0.120296448,-0.375721395,0.000734354,0.000372230,-0.000001116,1.182077646,0.021881390,9.714210510
1784246741.650836,0.005142125,-0.120301090,-0.375722766,0.000442798,-0.000124992,-0.000164685,1.161491394,0.028245602,9.738441467
1784246741.652842,0.005140626,-0.120303668,-0.375716150,0.000192552,-0.000526123,0.000257434,1.191443801,0.056878697,9.753449440
1784246741.654841,0.005140952,-0.120301344,-0.375711948,0.000141006,-0.000353988,0.000928774,1.161342382,0.052908286,9.735910416
1784246741.656837,0.005142546,-0.120296992,-0.375712395,0.000254374,0.000240862,0.000915244,1.184492707,0.038201448,9.746150017
1784246741.658841,0.005144448,-0.120298497,-0.375711501,0.000424609,0.000368710,0.000669150,1.186004400,0.051245019,9.736371040
1784246741.660839,0.005138171,-0.120302938,-0.375713736,0.000000525,-0.000071888,0.000431874,1.198081613,0.083923891,9.718659401
1784246741.662851,0.005131406,-0.120306909,-0.375721186,-0.000960048,-0.000562836,-0.000230361,1.183335900,0.051060490,9.704088211
1784246741.664844,0.005120131,-0.120306298,-0.375722319,-0.001910263,-0.000648462,-0.000603363,1.179053664,0.030950803,9.704402924
1784246741.666848,0.005118704,-0.120303243,-0.375722349,-0.002182483,-0.000232158,-0.000420462,1.174659371,0.039440062,9.715662003
1784246741.668872,0.005118844,-0.120298579,-0.375726223,-0.001708086,0.000353509,-0.000555356,1.179564238,0.036701776,9.713855743
1784246741.670856,0.005116197,-0.120295353,-0.375724614,-0.001362755,0.000779501,-0.000545317,1.178114653,0.029011473,9.726806641
1784246741.672901,0.005115059,-0.120297097,-0.375723004,-0.001152934,0.000655976,-0.000161400,1.182707667,0.037087236,9.717000008
1784246741.674874,0.005114830,-0.120302193,-0.375733346,-0.000931658,0.000030256,-0.000696928,1.164352298,0.040890742,9.719247818
1784246741.676862,0.005116171,-0.120299689,-0.375734061,-0.000622274,-0.000138079,-0.001265735,1.159770250,0.033714090,9.728611946
1784246741.678857,0.005118825,-0.120292485,-0.375731945,-0.000172926,0.000559859,-0.000862846,1.200459957,0.058311094,9.724774361
1784246741.680949,0.005116655,-0.120290749,-0.375739217,-0.000134241,0.001037959,-0.000985165,1.199180245,0.026936693,9.728606224
1784246741.682887,0.005114821,-0.120288178,-0.375744700,-0.000470025,0.001069066,-0.001545965,1.189224720,0.020321503,9.731692314
1784246741.684876,0.005113467,-0.120289266,-0.375742465,-0.000465195,0.000887172,-0.001323433,1.168389797,0.041642711,9.732258797
1784246741.686869,0.005110580,-0.120289929,-0.375741810,-0.000483094,0.000536359,-0.000747378,1.162838101,0.028638164,9.743825912
1784246741.688866,0.005105899,-0.120286368,-0.375737131,-0.000818726,0.000589043,-0.000127954,1.157914162,0.026363391,9.694490433
1784246741.690869,0.005099338,-0.120276980,-0.375734746,-0.001129420,0.001221335,0.000452857,1.184520483,0.036394071,9.685166359
1784246741.692878,0.005092346,-0.120278656,-0.375735730,-0.001557660,0.001326360,0.000512633,1.200454712,0.056242988,9.700551987
1784246741.694874,0.005090221,-0.120284393,-0.375727654,-0.001734483,0.000607122,0.000931048,1.185984612,0.047035683,9.698236465
1784246741.696882,0.005089474,-0.120287560,-0.375720650,-0.001377301,-0.000015060,0.001723484,1.164088368,0.056540158,9.724279404
1784246741.698882,0.005092452,-0.120285809,-0.375726014,-0.000839707,-0.000105455,0.001346481,1.186382771,0.043389004,9.706282616
1784246741.700876,0.005092963,-0.120285265,-0.375733346,-0.000496460,0.000159178,0.000098805,1.143421054,0.053754743,9.712137222
1784246741.702879,0.005085010,-0.120284006,-0.375732839,-0.000934985,0.000320397,-0.000323985,1.179945588,0.068484761,9.717197418
1784246741.704883,0.005076145,-0.120278098,-0.375733018,-0.001884668,0.000801192,-0.000071354,1.199530125,0.054824751,9.712645531
1784246741.706888,0.005069647,-0.120273367,-0.375735283,-0.002501173,0.001385840,-0.000084459,1.172097325,0.051038880,9.727390289
1784246741.708881,0.005070103,-0.120273791,-0.375735611,-0.002250438,0.001300780,-0.000186000,1.157274008,0.049884714,9.727369308
1784246741.710882,0.005069643,-0.120277293,-0.375737935,-0.001640180,0.000640563,-0.000316781,1.164584517,0.024586694,9.743352890
1784246741.712881,0.005070369,-0.120279230,-0.375742793,-0.001214123,0.000053688,-0.000719554,1.143467426,0.021394050,9.726275444
1784246741.714886,0.005070041,-0.120273523,-0.375747323,-0.000825970,0.000094293,-0.001172704,1.167250156,0.023125647,9.755002975
1784246741.716900,0.005064265,-0.120273359,-0.375744909,-0.000922615,0.000268638,-0.000961061,1.195651412,0.032729875,9.739400864
1784246741.718893,0.005065769,-0.120275415,-0.375743061,-0.000925253,0.000068274,-0.000375354,1.188014746,0.031544141,9.730867386
1784246741.720892,0.005067570,-0.120276250,-0.375743657,-0.000401834,-0.000045696,-0.000218437,1.166983604,0.035105884,9.708901405
1784246741.722894,0.005064243,-0.120272785,-0.375754386,-0.000448579,0.000240858,-0.000915077,1.182409048,0.048813105,9.706762314
1784246741.724937,0.005058549,-0.120268181,-0.375757813,-0.001021784,0.000726186,-0.001548250,1.171278000,0.057340913,9.724740028
1784246741.726911,0.005056014,-0.120268397,-0.375749081,-0.001228067,0.000835505,-0.000710805,1.158629894,0.050350413,9.722441673
1784246741.728899,0.005056051,-0.120265968,-0.375743628,-0.000947344,0.000763071,0.000458709,1.172135711,0.054177787,9.726961136
1784246741.730904,0.005056469,-0.120261133,-0.375747681,-0.000664886,0.001038872,0.000428103,1.150646448,0.058078781,9.721138954
1784246741.732901,0.005060620,-0.120260157,-0.375756174,-0.000295229,0.001136005,-0.000569308,1.164343596,0.077600688,9.723518372
1784246741.734908,0.005070492,-0.120258898,-0.375762880,0.000477339,0.000878792,-0.001531614,1.192468166,0.064352550,9.708664894
1784246741.736903,0.005077229,-0.120259367,-0.375761896,0.001290807,0.000594955,-0.001619020,1.191789031,0.045518488,9.712130547
1784246741.738906,0.005079485,-0.120259896,-0.375755131,0.001609725,0.000367268,-0.000726501,1.169145942,0.066354312,9.721208572
1784246741.740902,0.005075834,-0.120259963,-0.375759900,0.000975526,0.000266512,-0.000366153,1.180974245,0.045697436,9.769507408
1784246741.742912,0.005072952,-0.120262377,-0.375766039,0.000061973,0.000059079,-0.000935490,1.165298700,0.045320701,9.724657059
1784246741.744909,0.005075539,-0.120268032,-0.375767529,-0.000029877,-0.000513196,-0.001189216,1.173992395,0.059911512,9.736415863
1784246741.746912,0.005072338,-0.120264746,-0.375763983,-0.000039825,-0.000538710,-0.000721916,1.173140049,0.064332671,9.746305466
1784246741.748910,0.005069181,-0.120263577,-0.375760943,-0.000404416,-0.000087566,-0.000036459,1.160238981,0.035487451,9.730418205
1784246741.750919,0.005069533,-0.120264590,-0.375760764,-0.000438471,-0.000137843,0.000208421,1.146839142,0.039790157,9.716534615
1784246741.752921,0.005073282,-0.120265529,-0.375763953,-0.000047886,-0.000320064,-0.000082685,1.168878436,0.043978520,9.717926979
1784246741.754928,0.005078142,-0.120265000,-0.375761658,0.000545884,-0.000258817,-0.000184870,1.184433341,0.070460394,9.746356964
1784246741.756918,0.005080238,-0.120262668,-0.375748903,0.000996447,0.000012955,0.000825093,1.157084823,0.072202668,9.739616394
1784246741.758918,0.005083240,-0.120262012,-0.375752419,0.001144796,0.000215203,0.001181490,1.158854008,0.069545969,9.731979370
1784246741.760927,0.005086883,-0.120255426,-0.375758916,0.001150052,0.000605605,0.000142581,1.151181221,0.029674033,9.745165825
1784246741.762942,0.005083571,-0.120249435,-0.375758618,0.000759296,0.001252367,-0.000305980,1.183290124,0.048267793,9.718864441
1784246741.764937,0.005079146,-0.120248444,-0.375761241,-0.000053566,0.001439241,-0.000310242,1.197658062,0.048563577,9.714396477
1784246741.766976,0.005079070,-0.120252587,-0.375759780,-0.000418234,0.000888623,-0.000262657,1.179632902,0.042916000,9.721964836
1784246741.768971,0.005082923,-0.120250367,-0.375761241,-0.000050725,0.000516674,-0.000226823,1.158004165,0.035179541,9.714720726
1784246741.770936,0.005074966,-0.120246500,-0.375768155,-0.000300625,0.000758372,-0.000704135,1.151083946,0.057983994,9.733691216
1784246741.772965,0.005070494,-0.120250836,-0.375770211,-0.001048094,0.000490341,-0.001019121,1.188969493,0.072410971,9.715887070
1784246741.774945,0.005073651,-0.120247513,-0.375767231,-0.000960494,0.000356612,-0.000651528,1.146262884,0.066247262,9.714461327
1784246741.776938,0.005079876,-0.120249301,-0.375766546,-0.000153692,0.000430618,-0.000291346,1.175113916,0.077475429,9.721735001
1784246741.778948,0.005081892,-0.120255575,-0.375767022,0.000444901,-0.000234115,-0.000267617,1.190646410,0.062135737,9.708649635
1784246741.780956,0.005079159,-0.120258003,-0.375766218,0.000212208,-0.000675710,-0.000160897,1.176203847,0.056388110,9.723841667
1784246741.782940,0.005083035,-0.120257728,-0.375761598,0.000209500,-0.000551219,0.000244531,1.163696408,0.060641147,9.715339661
1784246741.784942,0.005094365,-0.120249301,-0.375757635,0.001135160,0.000068782,0.000652615,1.159398794,0.041624155,9.751078606
1784246741.786948,0.005095460,-0.120244659,-0.375760525,0.001560676,0.000814106,0.000463742,1.157334447,0.056035351,9.744444847
1784246741.788943,0.005094013,-0.120250903,-0.375758976,0.001101949,0.000483837,0.000247856,1.180261731,0.057302229,9.713988304
1784246741.790942,0.005092422,-0.120253153,-0.375754446,0.000689516,-0.000191108,0.000611543,1.203213215,0.062810265,9.717185020
1784246741.792943,0.005095993,-0.120253630,-0.375751764,0.000736772,-0.000290786,0.000915326,1.178830981,0.052598219,9.748030663
1784246741.794952,0.005103867,-0.120252632,-0.375760138,0.001209114,-0.000200374,0.000199538,1.179874063,0.064678490,9.748557091
1784246741.796953,0.005106993,-0.120253876,-0.375760525,0.001498865,-0.000186703,-0.000520853,1.162219882,0.086680867,9.710573196
1784246741.798992,0.005109143,-0.120254360,-0.375754982,0.001489869,-0.000252344,-0.000071623,1.149731636,0.057546925,9.734582901
1784246741.801008,0.005112987,-0.120251097,-0.375755876,0.001467468,-0.000101779,0.000220613,1.140980959,0.038451061,9.726383209
1784246741.802965,0.005105651,-0.120250352,-0.375758201,0.000747921,0.000090253,-0.000018450,1.169723749,0.040720001,9.733598709
1784246741.804957,0.005103239,-0.120250478,-0.375760525,-0.000139473,0.000072401,-0.000248217,1.157670498,0.081788525,9.713675499
1784246741.807001,0.005099562,-0.120251134,-0.375757903,-0.000498374,-0.000035581,-0.000108791,1.161851764,0.054189563,9.680773735
1784246741.808969,0.005101196,-0.120247401,-0.375752151,-0.000432303,0.000185112,0.000500419,1.147657037,0.069851853,9.709106445
1784246741.810967,0.005109075,-0.120247915,-0.375747442,0.000373665,0.000211387,0.000998831,1.171213627,0.051158484,9.712145805
1784246741.812967,0.005116449,-0.120245315,-0.375740469,0.001357684,0.000154031,0.001398228,1.183858156,0.058930438,9.730590820
1784246741.814971,0.005119567,-0.120240532,-0.375741601,0.001683307,0.000640656,0.001330470,1.175441980,0.032442052,9.753277779
1784246741.816967,0.005118423,-0.120241702,-0.375744253,0.001268131,0.000735746,0.000700970,1.174885392,0.059054960,9.729237556
1784246741.818976,0.005122061,-0.120247163,-0.375746936,0.001048539,0.000084820,0.000130193,1.166881800,0.064194128,9.714020729
1784246741.820968,0.005124199,-0.120253474,-0.375747949,0.001083520,-0.000734012,-0.000196963,1.158143044,0.047217250,9.722868919
1784246741.822975,0.005117596,-0.120253332,-0.375745475,0.000461200,-0.000948211,-0.000000948,1.174508095,0.063677050,9.709988594
1784246741.824983,0.005109523,-0.120252758,-0.375741869,-0.000675250,-0.000649342,0.000540435,1.171965122,0.075831935,9.706477165
1784246741.826974,0.005112444,-0.120260298,-0.375747561,-0.000928736,-0.000955915,0.000301006,1.165249705,0.040069181,9.707138062
1784246741.828976,0.005114029,-0.120268859,-0.375753522,-0.000467434,-0.001793761,-0.000597886,1.165671468,0.039040316,9.725066185
1784246741.830977,0.005109887,-0.120264821,-0.375750810,-0.000486451,-0.001666091,-0.000635410,1.153021455,0.068813816,9.719416618
1784246741.832978,0.005100669,-0.120258257,-0.375750482,-0.001177424,-0.000542928,-0.000152631,1.163990378,0.085250393,9.719532013
1784246741.834983,0.005092553,-0.120255783,-0.375747204,-0.002115690,0.000207424,0.000288258,1.158510685,0.042518854,9.752877235
1784246741.836977,0.005089392,-0.120252773,-0.375741810,-0.002350452,0.000513449,0.000897642,1.173546314,0.060749587,9.745387077
1784246741.838981,0.005082843,-0.120258912,-0.375746787,-0.002363608,0.000162250,0.000760967,1.178474069,0.058192536,9.718027115
1784246741.840988,0.005078097,-0.120257527,-0.375746697,-0.002535861,-0.000161735,0.000317777,1.171286464,0.058217756,9.727437019
1784246741.842992,0.005076692,-0.120252371,-0.375746697,-0.002273991,0.000370263,0.000288642,1.192344904,0.054058980,9.707254410
1784246741.844990,0.005079224,-0.120253496,-0.375750870,-0.001650443,0.000575263,-0.000075897,1.159423590,0.079814702,9.736081123
1784246741.846987,0.005077293,-0.120252073,-0.375749141,-0.001217306,0.000472067,-0.000216537,1.167896628,0.074835129,9.727986336
1784246741.848985,0.005073332,-0.120252796,-0.375741959,-0.001211073,0.000395244,0.000492838,1.159329057,0.069746897,9.702839851
1784246741.850993,0.005077663,-0.120254621,-0.375744820,-0.000955324,0.000086686,0.000665619,1.176666379,0.058517240,9.738652229
1784246741.852993,0.005078705,-0.120251238,-0.375751704,-0.000546750,0.000135584,-0.000199485,1.182295918,0.077809133,9.724880219
1784246741.854995,0.005076311,-0.120255478,-0.375748605,-0.000648133,0.000154741,-0.000379134,1.186524749,0.091825441,9.699420929
1784246741.856998,0.005074481,-0.120256662,-0.375747889,-0.000853160,-0.000139196,0.000029624,1.163599610,0.052987650,9.720668793
1784246741.859004,0.005078829,-0.120257072,-0.375751555,-0.000475402,-0.000211807,-0.000194477,1.182796001,0.044267327,9.715251923
1784246741.860995,0.005076510,-0.120255746,-0.375750482,-0.000162534,-0.000121226,-0.000338820,1.183842421,0.057996362,9.735964775
1784246741.862995,0.005076372,-0.120252155,-0.375752211,-0.000221349,0.000216845,-0.000280447,1.178080678,0.063497506,9.728821754
1784246741.865018,0.005077281,-0.120254904,-0.375760943,-0.000283397,0.000215440,-0.000907250,1.173284292,0.076411709,9.748626709
1784246741.867121,0.005075249,-0.120260708,-0.375771999,-0.000533012,-0.000427588,-0.001981532,1.178252935,0.078635983,9.741919518
1784246741.869048,0.005070654,-0.120267183,-0.375771165,-0.000918105,-0.001150029,-0.002079905,1.159770608,0.071710683,9.740961075
1784246741.871030,0.005066805,-0.120271958,-0.375768989,-0.001308941,-0.001644777,-0.001230926,1.156546712,0.062585399,9.706827164
1784246741.873058,0.005072639,-0.120270632,-0.375762761,-0.000847212,-0.001474928,-0.000337536,1.163264632,0.063617289,9.738670349
1784246741.875032,0.005074435,-0.120270386,-0.375764668,-0.000126890,-0.001029357,-0.000009241,1.162916780,0.071711764,9.735136032
1784246741.877023,0.005071116,-0.120272107,-0.375762820,-0.000254818,-0.000912387,0.000011104,1.180831790,0.068790846,9.735582352
1784246741.879027,0.005075787,-0.120270707,-0.375762463,-0.000075565,-0.000686895,0.000153501,1.174231172,0.042444814,9.734958649
1784246741.881096,0.005081500,-0.120267153,-0.375758708,0.000637325,-0.000169252,0.000314286,1.156562567,0.064332716,9.713113785
1784246741.883047,0.005076070,-0.120262779,-0.375754416,0.000507122,0.000410736,0.000774499,1.170450091,0.064789690,9.749893188
1784246741.885029,0.005073541,-0.120264590,-0.375753582,-0.000152368,0.000426134,0.000980231,1.179760575,0.055677928,9.754326820
1784246741.887056,0.005077030,-0.120265298,-0.375754654,-0.000075003,0.000092008,0.000695824,1.185956478,0.046813108,9.729618073
1784246741.889036,0.005084054,-0.120263383,-0.375755787,0.000636048,0.000148857,0.000274727,1.179411292,0.060926042,9.709975243
1784246741.891096,0.005080552,-0.120260037,-0.375753850,0.000704179,0.000445560,0.000221395,1.191165686,0.067550033,9.702407837
1784246741.893048,0.005075290,-0.120256566,-0.375742316,0.000029507,0.000771645,0.001138752,1.164180636,0.064562120,9.730157852
1784246741.895067,0.005078407,-0.120259136,-0.375738472,-0.000050665,0.000608223,0.001895715,1.183397412,0.058030725,9.731929779
1784246741.897051,0.005080010,-0.120265871,-0.375742137,0.000229440,-0.000209805,0.001360689,1.174350619,0.050276369,9.704523087
1784246741.899048,0.005076169,-0.120264165,-0.375737906,0.000020809,-0.000495736,0.001044207,1.150074720,0.049817726,9.749776840
1784246741.901049,0.005072077,-0.120262697,-0.375735044,-0.000471177,-0.000271375,0.001302923,1.164944410,0.053364314,9.728294373
1784246741.903049,0.005069309,-0.120263785,-0.375741959,-0.000847984,-0.000301074,0.000732113,1.184779525,0.060323235,9.722082138
1784246741.905060,0.005075936,-0.120265909,-0.375743449,-0.000435143,-0.000381795,-0.000062041,1.180716157,0.022587879,9.743355751
1784246741.907050,0.005078334,-0.120267980,-0.375740141,0.000297364,-0.000503236,0.000009628,1.220899105,0.040652461,9.713920593
1784246741.909054,0.005070390,-0.120266214,-0.375737488,-0.000107948,-0.000386025,0.000458632,1.181299210,0.031748034,9.714272499
1784246741.911049,0.005065381,-0.120270364,-0.375735521,-0.000856670,-0.000439521,0.000748129,1.181358099,0.036265802,9.708922386
1784246741.913053,0.005065799,-0.120274745,-0.375735909,-0.000863559,-0.000896621,0.000686774,1.162584662,0.043560170,9.725091934
1784246741.915067,0.005065087,-0.120271266,-0.375739843,-0.000663595,-0.000761188,0.000211769,1.160527349,0.058432050,9.716667175
1784246741.917070,0.005065059,-0.120270342,-0.375740528,-0.000550139,-0.000302084,-0.000150362,1.158631086,0.051170018,9.733206749
1784246741.919061,0.005063997,-0.120273381,-0.375741839,-0.000490291,-0.000364474,-0.000235899,1.163650632,0.057441823,9.724286079
1784246741.921062,0.005062717,-0.120277554,-0.375737101,-0.000506130,-0.000807590,0.000078565,1.159837008,0.076288857,9.727090836
1784246741.923061,0.005060376,-0.120277181,-0.375734299,-0.000570067,-0.000897612,0.000597692,1.165770650,0.048333034,9.741264343
1784246741.925071,0.005056234,-0.120276965,-0.375728458,-0.000758182,-0.000656233,0.001067615,1.177839279,0.042138465,9.708508492
1784246741.927069,0.005052389,-0.120278731,-0.375724524,-0.000987396,-0.000623944,0.001499262,1.191800952,0.048044093,9.735012054
1784246741.929080,0.005046146,-0.120277986,-0.375727028,-0.001387326,-0.000522592,0.001272221,1.161322355,0.014349267,9.739697456
1784246741.931069,0.005045557,-0.120277174,-0.375731319,-0.001423738,-0.000411855,0.000511726,1.182325602,0.043291304,9.727351189
1784246741.933097,0.005044650,-0.120278656,-0.375729442,-0.001054686,-0.000480993,0.000210232,1.179828763,0.061078906,9.750775337
1784246741.935074,0.005044578,-0.120278619,-0.375729293,-0.000839252,-0.000388672,0.000298187,1.185861826,0.077172093,9.745056152
1784246741.937078,0.005045222,-0.120278053,-0.375724554,-0.000554629,-0.000179907,0.000543772,1.172914505,0.081904277,9.732970238
1784246741.939064,0.005042950,-0.120278530,-0.375718057,-0.000421662,-0.000119785,0.001173342,1.185173750,0.057861462,9.752552032
1784246741.941070,0.005038686,-0.120278426,-0.375719905,-0.000794878,-0.000158478,0.001233631,1.204080820,0.060133260,9.714030266
1784246741.943072,0.005038866,-0.120277859,-0.375713617,-0.000903182,-0.000116211,0.001242099,1.159292698,0.068650648,9.731077194
1784246741.945080,0.005041945,-0.120278642,-0.375712723,-0.000459058,-0.000181830,0.001374925,1.172359705,0.072966717,9.730669975
1784246741.947074,0.005037825,-0.120279215,-0.375717402,-0.000514465,-0.000311225,0.000766610,1.180581689,0.011395205,9.742386818
1784246741.949078,0.005033772,-0.120280869,-0.375720441,-0.000988016,-0.000381490,0.000106283,1.179662108,0.047605094,9.755619049
1784246741.951154,0.005039364,-0.120283850,-0.375721425,-0.000719899,-0.000548390,-0.000193912,1.171209335,0.051123507,9.717078209
1784246741.953087,0.005042205,-0.120281965,-0.375714749,0.000019098,-0.000427501,0.000185325,1.165569782,0.069342084,9.748573303
1784246741.955084,0.005038168,-0.120277479,-0.375711709,-0.000053199,0.000115027,0.000806140,1.191251516,0.040364552,9.744825363
1784246741.957085,0.005044369,-0.120280251,-0.375719756,0.000001532,0.000191307,0.000245890,1.212602258,0.061208922,9.736460686
1784246741.959085,0.005048504,-0.120275870,-0.375723362,0.000603122,0.000244029,-0.000684872,1.216507196,0.050377496,9.740430832
1784246741.961087,0.005051583,-0.120270826,-0.375724167,0.000866773,0.000965189,-0.000853945,1.188020706,0.068775177,9.724829674
1784246741.963089,0.005049942,-0.120267972,-0.375728995,0.000660012,0.001387073,-0.001014427,1.191419721,0.053041000,9.726076126
1784246741.965091,0.005047619,-0.120270982,-0.375731558,0.000141738,0.001122843,-0.001207312,1.208391070,0.046925910,9.736365318
1784246741.967089,0.005048055,-0.120273262,-0.375731915,-0.000059424,0.000584695,-0.001060644,1.183054566,0.030603351,9.746100426
1784246741.969163,0.005042663,-0.120269887,-0.375734508,-0.000401571,0.000500646,-0.000934340,1.157358289,0.019849673,9.729417801
1784246741.971107,0.005043907,-0.120266415,-0.375736266,-0.000431229,0.000653815,-0.000967149,1.182011485,0.054086279,9.722038269
1784246741.973097,0.005043274,-0.120263927,-0.375734091,-0.000092527,0.000705743,-0.000701980,1.145694613,0.057204761,9.726955414
1784246741.975103,0.005035538,-0.120265916,-0.375731379,-0.000555149,0.000442801,-0.000114471,1.158418298,0.071680233,9.747683525
1784246741.977104,0.005033631,-0.120265275,-0.375729859,-0.000983840,0.000126466,0.000276580,1.171759725,0.059216041,9.712197304
1784246741.979098,0.005040437,-0.120265529,-0.375727326,-0.000353173,0.000120616,0.000437842,1.175066471,0.036673415,9.725955963
1784246741.981108,0.005046686,-0.120263211,-0.375724047,0.000667759,0.000217963,0.000610934,1.183551073,0.033406198,9.729081154
1784246741.983108,0.005050926,-0.120257765,-0.375728399,0.001181646,0.000672108,0.000287505,1.162723660,0.018414542,9.732551575
1784246741.985111,0.005048763,-0.120253496,-0.375735492,0.001070012,0.001066171,-0.000598396,1.165473938,0.023701522,9.740210533
1784246741.987103,0.005042255,-0.120255105,-0.375740379,0.000260120,0.000874786,-0.001193432,1.187792420,0.051167972,9.743993759
1784246741.989109,0.005045211,-0.120261461,-0.375735372,-0.000049343,0.000097498,-0.000835739,1.191348553,0.047614601,9.733214378
1784246741.991103,0.005056383,-0.120265089,-0.375736505,0.001008004,-0.000537243,-0.000465195,1.191269875,0.041320883,9.736312866
1784246741.993109,0.005059417,-0.120265268,-0.375738084,0.001729601,-0.000582371,-0.000644306,1.172254801,0.026039515,9.714228630
1784246741.995114,0.005061408,-0.120262824,-0.375738055,0.001734722,-0.000232537,-0.000629067,1.190981150,0.054746386,9.739089012
1784246741.997112,0.005070442,-0.120261759,-0.375738144,0.002155121,0.000107484,-0.000562673,1.175517082,0.037493639,9.735825539
1784246741.999110,0.005066856,-0.120264001,-0.375736386,0.001950823,-0.000000400,-0.000336580,1.164296508,0.037208486,9.733122826
1784246742.001118,0.005059042,-0.120261565,-0.375727147,0.000825250,0.000052885,0.000585486,1.158870697,0.034113135,9.737132072
1784246742.003119,0.005060490,-0.120258562,-0.375726551,0.000334913,0.000448907,0.001133352,1.213876724,0.054141942,9.719828606
1784246742.005123,0.005063604,-0.120261274,-0.375725269,0.000520395,0.000627319,0.000918954,1.180370927,0.065864362,9.706870079
1784246742.007120,0.005066548,-0.120258361,-0.375717223,0.000817059,0.000752559,0.001250396,1.174026012,0.061798740,9.722977638
1784246742.009126,0.005066882,-0.120254837,-0.375714064,0.000907834,0.000988255,0.001636869,1.200154066,0.069169663,9.710496902
1784246742.011126,0.005073573,-0.120256439,-0.375719219,0.001009368,0.000895121,0.001014400,1.199461341,0.049417425,9.717093468
1784246742.013123,0.005080599,-0.120257169,-0.375720650,0.001496909,0.000537041,0.000198942,1.173429012,0.050907161,9.743530273
1784246742.015123,0.005081690,-0.120256290,-0.375725240,0.001581883,0.000386650,-0.000322718,1.152499437,0.062567189,9.716685295
1784246742.017129,0.005076324,-0.120254278,-0.375723839,0.000831471,0.000464071,-0.000414161,1.164699912,0.033603147,9.735341072
1784246742.019153,0.005078852,-0.120252602,-0.375723362,0.000429436,0.000588917,-0.000155232,1.171094537,0.041303340,9.712083817
1784246742.021139,0.005085045,-0.120252453,-0.375725448,0.000894527,0.000475695,-0.000291472,1.153598309,0.041146372,9.702651024
1784246742.023128,0.005084399,-0.120253623,-0.375727803,0.000996556,0.000198772,-0.000554646,1.152764201,0.048547450,9.734529495
1784246742.025141,0.005086431,-0.120255612,-0.375726819,0.000851221,-0.000200025,-0.000513140,1.159630179,0.057230022,9.698276520
1784246742.027141,0.005090465,-0.120254725,-0.375727803,0.001072203,-0.000350406,-0.000427447,1.186292291,0.035379760,9.698610306
1784246742.029149,0.005098055,-0.120252043,-0.375726908,0.001563618,-0.000013208,-0.000416162,1.170079231,0.033492822,9.741173744
1784246742.031141,0.005101565,-0.120248720,-0.375730425,0.001960345,0.000431116,-0.000587291,1.169671655,0.037066363,9.743438721
1784246742.033150,0.005105778,-0.120248541,-0.375737280,0.001959310,0.000580926,-0.001200784,1.172518015,0.050000485,9.746662140
1784246742.035151,0.005108264,-0.120247982,-0.375740081,0.001792744,0.000421419,-0.001577261,1.187451959,0.058916245,9.726109505
1784246742.037146,0.005109617,-0.120244980,-0.375738680,0.001545602,0.000501025,-0.001272972,1.163113475,0.049860857,9.720199585
1784246742.039144,0.005108644,-0.120246165,-0.375738412,0.001165345,0.000487741,-0.000817342,1.176444292,0.039337575,9.726871490
1784246742.041152,0.005110146,-0.120244779,-0.375743091,0.000887575,0.000318625,-0.000901501,1.174016953,0.061322156,9.727008820
1784246742.043150,0.005114312,-0.120244719,-0.375740856,0.001047567,0.000280961,-0.000871499,1.171607256,0.047476832,9.725125313
1784246742.045157,0.005112268,-0.120240197,-0.375738740,0.000985078,0.000522454,-0.000361030,1.184725881,0.057063505,9.739545822
1784246742.047151,0.005103826,-0.120240718,-0.375745296,0.000018096,0.000657305,-0.000478250,1.167630196,0.053278942,9.735469818
1784246742.049160,0.005104076,-0.120242216,-0.375744075,-0.000582174,0.000340880,-0.000637996,1.175900221,0.031295922,9.724576950
1784246742.051159,0.005108661,-0.120241821,-0.375743568,-0.000025580,0.000133437,-0.000391626,1.199651003,0.029536046,9.740280151
1784246742.053156,0.005113344,-0.120238528,-0.375747353,0.000637424,0.000305849,-0.000589023,1.190041900,0.051996995,9.749381065
1784246742.055159,0.005116033,-0.120237827,-0.375747442,0.000886987,0.000578071,-0.000750431,1.184546471,0.040247660,9.710296631
1784246742.057164,0.005117851,-0.120238274,-0.375745744,0.000920473,0.000523556,-0.000472520,1.157006264,0.066719040,9.754823685
1784246742.059168,0.005117725,-0.120236792,-0.375749886,0.000764292,0.000451342,-0.000523258,1.166047096,0.071185403,9.740514755
1784246742.061178,0.005123664,-0.120236337,-0.375751615,0.000831527,0.000362335,-0.000812860,1.198609829,0.052628245,9.708148003
1784246742.063163,0.005131925,-0.120236881,-0.375747740,0.001510790,0.000161826,-0.000554240,1.150333643,0.068883285,9.714482307
1784246742.065169,0.005132813,-0.120236881,-0.375737935,0.001786331,-0.000022857,0.000445930,1.178850651,0.053564094,9.738172531
1784246742.067175,0.005132424,-0.120236233,-0.375737846,0.001373576,-0.000077677,0.000993495,1.185731530,0.028827885,9.738916397
1784246742.069173,0.005130979,-0.120239355,-0.375733912,0.000909917,-0.000221526,0.001012464,1.160551071,0.060646418,9.720267296
1784246742.071168,0.005126881,-0.120237492,-0.375729263,0.000318990,-0.000253695,0.001369270,1.148847580,0.058069982,9.725619316
1784246742.073171,0.005124598,-0.120234445,-0.375728816,-0.000196842,0.000139211,0.001396709,1.154811978,0.070782617,9.754400253
1784246742.075175,0.005129862,-0.120230094,-0.375727296,0.000007978,0.000546944,0.001129469,1.164805889,0.079323195,9.732496262
1784246742.077179,0.005130441,-0.120235063,-0.375724733,0.000367987,0.000300950,0.001058460,1.149103880,0.079950117,9.735623360
1784246742.079176,0.005134317,-0.120237932,-0.375722498,0.000607361,-0.000310319,0.001058442,1.153293133,0.056064829,9.747579575
1784246742.081176,0.005140369,-0.120229982,-0.375724435,0.001061751,-0.000018570,0.000719996,1.183699250,0.046733744,9.744858742
1784246742.083187,0.005143222,-0.120227717,-0.375728726,0.001270959,0.000539921,0.000041932,1.166594028,0.078842677,9.733839989
1784246742.085193,0.005144449,-0.120224498,-0.375726789,0.001094081,0.000660458,-0.000147268,1.197571039,0.043013163,9.739020348
1784246742.087189,0.005147682,-0.120217733,-0.375729412,0.001004439,0.001053168,-0.000175026,1.145693183,0.021628842,9.752283096
1784246742.089185,0.005149693,-0.120215006,-0.375726849,0.001084507,0.001409572,-0.000176574,1.160697818,0.036777906,9.737150192
1784246742.091184,0.005152857,-0.120214410,-0.375718981,0.001281292,0.001249417,0.000524201,1.161209702,0.043755103,9.763198853
1784246742.093192,0.005154610,-0.120214045,-0.375718892,0.001387126,0.000972154,0.000871288,1.181839347,0.077347852,9.727568626
1784246742.095191,0.005161226,-0.120213471,-0.375716150,0.001411593,0.000844838,0.000781484,1.191985369,0.099247769,9.716958046
1784246742.097193,0.005170639,-0.120214820,-0.375713021,0.001970281,0.000637377,0.000860698,1.175063133,0.074237950,9.736059189
1784246742.099190,0.005175535,-0.120215088,-0.375705808,0.002483696,0.000357331,0.001206684,1.165387750,0.052910604,9.728292465
1784246742.101236,0.005176206,-0.120212659,-0.375702411,0.002227254,0.000393555,0.001549328,1.164767742,0.039811011,9.744348526
1784246742.103206,0.005179705,-0.120211743,-0.375705630,0.001862076,0.000498070,0.001113122,1.172737122,0.030351212,9.737121582
1784246742.105198,0.005182541,-0.120211199,-0.375709534,0.001811723,0.000341103,0.000270893,1.167256474,0.021149747,9.717779160
1784246742.107196,0.005180022,-0.120215036,-0.375709981,0.001391302,-0.000094532,-0.000110388,1.153683305,0.050327800,9.734541893
1784246742.109202,0.005182279,-0.120216496,-0.375714153,0.000958279,-0.000428519,-0.000388442,1.179921985,0.067893714,9.737368584
1784246742.111201,0.005186242,-0.120214306,-0.375717402,0.000990798,-0.000314155,-0.000823129,1.181322694,0.071549185,9.724841118
1784246742.113207,0.005185860,-0.120212600,-0.375717312,0.000871454,-0.000015190,-0.000831939,1.143666863,0.075552210,9.733796120
1784246742.115208,0.005191576,-0.120210961,-0.375716001,0.000818570,0.000074361,-0.000532136,1.137522459,0.086444184,9.725341797
1784246742.117216,0.005190880,-0.120210811,-0.375717849,0.000743020,0.000032777,-0.000440750,1.142269850,0.071925364,9.742290497
1784246742.119208,0.005184101,-0.120211177,-0.375716150,0.000036868,0.000008842,-0.000266864,1.165497899,0.062695794,9.738218307
1784246742.121210,0.005186333,-0.120212182,-0.375715971,-0.000371139,-0.000172510,-0.000014572,1.171934724,0.037596866,9.727750778
1784246742.123211,0.005186737,-0.120211273,-0.375715762,-0.000196940,-0.000218713,0.000007981,1.176060677,0.044315413,9.720626831
1784246742.125219,0.005184323,-0.120208941,-0.375714064,-0.000265900,0.000054952,0.000152175,1.175566554,0.079121612,9.741471291
1784246742.127217,0.005180966,-0.120207474,-0.375713736,-0.000568944,0.000292817,0.000293135,1.158440232,0.073475257,9.747247696
1784246742.129217,0.005184003,-0.120204769,-0.375710785,-0.000409740,0.000497779,0.000432707,1.166709542,0.050675802,9.725140572
1784246742.131214,0.005184586,-0.120201401,-0.375707567,-0.000004298,0.000696973,0.000697588,1.143691778,0.040996224,9.741644859
1784246742.133225,0.005184949,-0.120204471,-0.375707477,0.000088291,0.000449284,0.000725574,1.147597075,0.065731175,9.721632004
1784246742.135221,0.005186752,-0.120203577,-0.375715047,0.000064353,0.000022270,0.000022370,1.159082770,0.051999770,9.741730690
1784246742.137224,0.005185631,-0.120204650,-0.375724465,-0.000130995,-0.000157018,-0.001121268,1.161430001,0.062108800,9.765111923
1784246742.139220,0.005187410,-0.120207995,-0.375724912,-0.000131162,-0.000418031,-0.001485551,1.170199871,0.040930469,9.703113556
1784246742.141229,0.005194065,-0.120204620,-0.375720233,0.000502873,-0.000296453,-0.000863644,1.156266212,0.040514473,9.723720551
1784246742.143223,0.005190796,-0.120200753,-0.375720501,0.000626388,0.000281410,-0.000354247,1.153360128,0.059429497,9.715321541
1784246742.145231,0.005189294,-0.120197751,-0.375725389,0.000064951,0.000532952,-0.000562794,1.158407211,0.034407858,9.759552002
1784246742.147229,0.005189902,-0.120203517,-0.375723094,-0.000062146,0.000064303,-0.000573487,1.186062217,0.055753250,9.732365608
1784246742.149232,0.005196890,-0.120206155,-0.375719994,0.000510537,-0.000521145,-0.000112233,1.186629772,0.063575879,9.702377319
1784246742.151240,0.005205490,-0.120208003,-0.375722885,0.001402691,-0.000590229,-0.000188660,1.183951974,0.067775197,9.746787071
1784246742.153234,0.005205837,-0.120206013,-0.375724316,0.001568396,-0.000327799,-0.000496088,1.171045065,0.075665370,9.731582642
1784246742.155234,0.005208562,-0.120207310,-0.375722140,0.001253277,-0.000224353,-0.000324088,1.168699503,0.067592666,9.736907005
1784246742.157245,0.005211592,-0.120211475,-0.375721902,0.001217889,-0.000565622,-0.000110542,1.168380976,0.078352660,9.736528397
1784246742.159240,0.005206129,-0.120212942,-0.375717938,0.000757966,-0.000792659,0.000224973,1.170468092,0.064526148,9.723888397
1784246742.161277,0.005205417,-0.120214105,-0.375717461,0.000099894,-0.000720913,0.000524356,1.161390305,0.056933586,9.736832619
1784246742.163260,0.005206328,-0.120217621,-0.375723958,-0.000035734,-0.000811698,-0.000015974,1.157905817,0.065913364,9.740473747
1784246742.165258,0.005209813,-0.120218478,-0.375730395,0.000118620,-0.000985460,-0.000915247,1.168734312,0.033519614,9.739827156
1784246742.167249,0.005214706,-0.120213561,-0.375735790,0.000508406,-0.000539280,-0.001530622,1.146336913,0.035726104,9.721887589
1784246742.169254,0.005215697,-0.120214574,-0.375731885,0.000755441,-0.000128276,-0.001256424,1.174391270,0.055054497,9.725625038
1784246742.171259,0.005215390,-0.120218165,-0.375733376,0.000639352,-0.000385528,-0.000753365,1.138996005,0.059568953,9.721584320
1784246742.173258,0.005217934,-0.120217502,-0.375735283,0.000611189,-0.000463001,-0.000801381,1.183786392,0.052690782,9.726065636
1784246742.175259,0.005226340,-0.120216012,-0.375734657,0.001155052,-0.000147985,-0.000761186,1.163100958,0.049355652,9.728266716
1784246742.177263,0.005232139,-0.120214373,-0.375734627,0.001786801,0.000150294,-0.000622837,1.148770094,0.050569102,9.709430695
1784246742.179261,0.005226929,-0.120216601,-0.375734836,0.001339612,0.000071053,-0.000470989,1.158398032,0.030687816,9.715589523
1784246742.181271,0.005223559,-0.120214529,-0.375740379,0.000434869,-0.000086543,-0.000668726,1.153397799,0.027405476,9.745154381
1784246742.183272,0.005225861,-0.120219521,-0.375734299,0.000333414,-0.000389569,-0.000451902,1.169162989,0.069324695,9.744541168
1784246742.185269,0.005228996,-0.120220453,-0.375725567,0.000671946,-0.000728407,0.000626691,1.164882183,0.085194379,9.725808144
1784246742.187266,0.005230870,-0.120221406,-0.375726610,0.000832220,-0.000701449,0.000944477,1.167479634,0.041552454,9.746603012
1784246742.189285,0.005232319,-0.120218091,-0.375728130,0.000809502,-0.000352116,0.000491626,1.192997813,0.035906460,9.738522530
1784246742.191279,0.005231241,-0.120218605,-0.375727326,0.000630866,-0.000006773,0.000306393,1.177398086,0.043824770,9.724210739
1784246742.193279,0.005232574,-0.120216064,-0.375730157,0.000482284,0.000191561,0.000080867,1.185114264,0.087687023,9.716877937
1784246742.195286,0.005236504,-0.120216265,-0.375730127,0.000518853,0.000334927,-0.000155409,1.152621746,0.074071087,9.736933708
1784246742.197278,0.005232843,-0.120221928,-0.375730187,0.000231538,-0.000116662,-0.000096458,1.198198080,0.056573436,9.721174240
1784246742.199277,0.005228629,-0.120226257,-0.375732213,-0.000378805,-0.000764748,-0.000146186,1.177715182,0.034268748,9.744323730
1784246742.201281,0.005225236,-0.120225571,-0.375727803,-0.000728273,-0.000735691,0.000109360,1.165725589,0.044330005,9.737204552
1784246742.203280,0.005228365,-0.120223381,-0.375725687,-0.000454204,-0.000271572,0.000515452,1.189023376,0.076483950,9.710083961
1784246742.205287,0.005231667,-0.120226204,-0.375730455,-0.000038956,-0.000201795,0.000160268,1.169161081,0.068905354,9.740503311
1784246742.207284,0.005227674,-0.120224081,-0.375738055,-0.000295673,-0.000159279,-0.000695125,1.142604589,0.061699182,9.730568886
1784246742.209291,0.005230641,-0.120221905,-0.375734627,-0.000317963,0.000172582,-0.000774777,1.178566933,0.028224269,9.710661888
1784246742.211290,0.005230129,-0.120222315,-0.375733852,0.000060529,0.000244881,-0.000309617,1.179067492,-0.004504289,9.712694168
1784246742.213288,0.005228691,-0.120222330,-0.375742763,-0.000061332,0.000144714,-0.000766515,1.156701326,0.002407203,9.726166725
1784246742.215292,0.005222823,-0.120223664,-0.375739038,-0.000405537,-0.000088933,-0.000865988,1.157052279,0.030708240,9.715141296
1784246742.217291,0.005221462,-0.120227776,-0.375738055,-0.000570423,-0.000534152,-0.000271932,1.189554095,0.047640774,9.732765198
1784246742.219293,0.005221460,-0.120225027,-0.375736624,-0.000487139,-0.000481592,-0.000017264,1.148495317,0.066536106,9.732846260
1784246742.221300,0.005221421,-0.120223857,-0.375734925,-0.000387277,-0.000155959,0.000206026,1.153019786,0.070827864,9.751259804
1784246742.223291,0.005210906,-0.120224446,-0.375733405,-0.001022374,-0.000145649,0.000456561,1.163555741,0.049804233,9.727375031
1784246742.225330,0.005206869,-0.120226428,-0.375734061,-0.001703242,-0.000279004,0.000511579,1.186156988,0.062580779,9.717165947
1784246742.227327,0.005204262,-0.120228939,-0.375733644,-0.001675965,-0.000506904,0.000407347,1.168789625,0.073978581,9.720808983
1784246742.229310,0.005201910,-0.120234482,-0.375724733,-0.001479354,-0.000912694,0.000962173,1.166901112,0.067587040,9.740942001
1784246742.231301,0.005197080,-0.120233998,-0.375721574,-0.001534739,-0.001135497,0.001583070,1.179830313,0.059874933,9.731040001
1784246742.233305,0.005193931,-0.120227963,-0.375724703,-0.001727464,-0.000517218,0.001227163,1.173031569,0.053750120,9.722476959
1784246742.235307,0.005199000,-0.120223194,-0.375725657,-0.001247227,0.000396693,0.000610420,1.182452440,0.054020114,9.730556488
1784246742.237310,0.005207751,-0.120224260,-0.375723720,-0.000053327,0.000583838,0.000412530,1.170367479,0.057247479,9.739533424
1784246742.239312,0.005213926,-0.120222129,-0.375717908,0.001029987,0.000499221,0.000700720,1.175077081,0.039189480,9.750182152
1784246742.241312,0.005213471,-0.120222010,-0.375716358,0.001259403,0.000515390,0.000946311,1.174828649,0.054149650,9.726067543
1784246742.243317,0.005212659,-0.120221481,-0.375728130,0.000813160,0.000414650,0.000004409,1.190953374,0.052500226,9.739972115
1784246742.245327,0.005209122,-0.120222993,-0.375733435,0.000180601,0.000239239,-0.001116058,1.174610496,0.038648702,9.764077187
1784246742.247321,0.005211119,-0.120222412,-0.375730991,0.000025074,0.000120405,-0.000993077,1.171864629,0.068959892,9.727953911
1784246742.249321,0.005200518,-0.120217934,-0.375730455,-0.000537006,0.000431890,-0.000450687,1.171577930,0.046028022,9.739910126
1784246742.251320,0.005190943,-0.120215669,-0.375733554,-0.001757986,0.000795319,-0.000344919,1.138628960,0.030734109,9.744712830
1784246742.253321,0.005193540,-0.120215774,-0.375738144,-0.001799957,0.000747716,-0.000719558,1.137879610,0.043666530,9.754658699
1784246742.255330,0.005197138,-0.120213330,-0.375740170,-0.000927844,0.000577532,-0.001027902,1.180829883,0.031591613,9.737135887
1784246742.257330,0.005203009,-0.120215155,-0.375736713,-0.000005679,0.000339257,-0.000729206,1.199528933,0.054815207,9.713991165
1784246742.259326,0.005207766,-0.120218828,-0.375735253,0.000752822,-0.000124685,-0.000278416,1.191451192,0.055719230,9.727439880
1784246742.261343,0.005207105,-0.120223619,-0.375737876,0.000798470,-0.000598976,-0.000312621,1.178137422,0.030002790,9.713361740
1784246742.263386,0.005204724,-0.120220020,-0.375738770,0.000331026,-0.000452451,-0.000443904,1.180562496,0.044779010,9.710322380
1784246742.265386,0.005203623,-0.120217659,-0.375743955,-0.000040395,0.000105600,-0.000699543,1.186832786,0.045419566,9.734990120
1784246742.267351,0.005204715,-0.120218657,-0.375738621,-0.000025972,0.000200640,-0.000489917,1.198807597,0.070400432,9.728885651
1784246742.269344,0.005201390,-0.120220661,-0.375736713,-0.000110543,-0.000056074,0.000148226,1.199520707,0.055155065,9.729236603
1784246742.271390,0.005197042,-0.120223351,-0.375743628,-0.000659206,-0.000305073,-0.000164241,1.202024460,0.039448291,9.728241920
1784246742.273361,0.005199427,-0.120225877,-0.375746727,-0.000714872,-0.000523850,-0.000770619,1.175808430,0.062893882,9.754817963
1784246742.275371,0.005200433,-0.120224297,-0.375749499,-0.000409947,-0.000454401,-0.000975862,1.172744513,0.068405032,9.741400719
1784246742.277349,0.005196333,-0.120223835,-0.375752032,-0.000619788,-0.000201713,-0.001034681,1.187573433,0.032823827,9.740737915
1784246742.279343,0.005195286,-0.120225541,-0.375753373,-0.000829494,-0.000233673,-0.000970513,1.171978354,0.003593766,9.720808983
1784246742.281350,0.005193476,-0.120222695,-0.375762045,-0.000762666,-0.000112564,-0.001373909,1.178470850,-0.016202765,9.720688820
1784246742.283370,0.005201472,-0.120221801,-0.375766784,-0.000132757,0.000151270,-0.001972758,1.196909666,0.023508940,9.710648537
1784246742.285364,0.005207146,-0.120229691,-0.375767291,0.000824503,-0.000276976,-0.001906227,1.161641121,0.077555686,9.734724045
1784246742.287350,0.005206917,-0.120236494,-0.375764817,0.001026715,-0.001109019,-0.001301838,1.160795093,0.044434577,9.731371880
1784246742.289354,0.005207196,-0.120238528,-0.375763834,0.000779245,-0.001405796,-0.000716036,1.176369548,0.033479109,9.731764793
1784246742.291362,0.005209206,-0.120237328,-0.375760823,0.000912357,-0.001067399,-0.000285698,1.192785144,0.054389898,9.722948074
1784246742.293358,0.005208930,-0.120235682,-0.375757158,0.000993543,-0.000569829,0.000209691,1.186787963,0.075766213,9.689005852
1784246742.295364,0.005210033,-0.120236486,-0.375759751,0.000690561,-0.000327340,0.000226348,1.168901801,0.081752904,9.698442459
1784246742.297364,0.005210205,-0.120231837,-0.375761658,0.000454819,0.000049787,-0.000139512,1.206430793,0.031864490,9.715643883
1784246742.299368,0.005208315,-0.120228492,-0.375762254,0.000195068,0.000576572,-0.000260359,1.168939471,0.012545537,9.727587700
1784246742.301385,0.005207084,-0.120227545,-0.375765145,0.000058108,0.000762217,-0.000421622,1.158781528,0.063299946,9.728352547
1784246742.303365,0.005208577,-0.120226339,-0.375769377,0.000156299,0.000752990,-0.000810368,1.194384813,0.039453816,9.741235733
1784246742.305370,0.005205997,-0.120230250,-0.375764400,0.000096420,0.000420267,-0.000535985,1.185845017,0.038638514,9.745257378
1784246742.307365,0.005203245,-0.120228827,-0.375760287,-0.000165392,0.000194581,0.000259357,1.184604287,0.045972578,9.724231720
1784246742.309368,0.005201971,-0.120226800,-0.375763834,-0.000387184,0.000376033,0.000262975,1.150505424,0.046835233,9.727340698
1784246742.311373,0.005202919,-0.120228425,-0.375766784,-0.000333515,0.000239010,-0.000240998,1.181335926,0.073680885,9.740097046
1784246742.313370,0.005197629,-0.120227695,-0.375768334,-0.000548893,0.000050942,-0.000446567,1.198003292,0.077226721,9.715478897
1784246742.315386,0.005200291,-0.120224155,-0.375760198,-0.000629992,0.000394559,0.000146600,1.154431343,0.075785883,9.744568825
1784246742.317391,0.005207375,-0.120219901,-0.375757337,0.000180987,0.000886270,0.000780014,1.175709724,0.054007791,9.744449615
1784246742.319380,0.005212685,-0.120223820,-0.375758171,0.000984010,0.000670087,0.000606773,1.171940684,0.000864667,9.726619720
1784246742.321387,0.005217988,-0.120228924,-0.375760019,0.001598535,-0.000169696,0.000151882,1.189669490,0.017850563,9.700293541
1784246742.323385,0.005222410,-0.120230481,-0.375755608,0.002029016,-0.000621504,0.000182398,1.160806537,0.007340270,9.718132019
1784246742.325384,0.005218429,-0.120223708,-0.375753909,0.001753448,-0.000190204,0.000514811,1.164576769,0.023309579,9.733929634
1784246742.327383,0.005219381,-0.120220400,-0.375755787,0.001267893,0.000453485,0.000361213,1.164602399,0.062723197,9.735976219
1784246742.329380,0.005226586,-0.120224379,-0.375752419,0.001485757,0.000285939,0.000300837,1.161940217,0.065426387,9.738680840
1784246742.331381,0.005228611,-0.120221831,-0.375749707,0.001679110,0.000089632,0.000563375,1.157369971,0.057938486,9.728764534
1784246742.333384,0.005226113,-0.120213747,-0.375749320,0.001142027,0.000764673,0.000631750,1.168834329,0.041198540,9.730910301
1784246742.335388,0.005224414,-0.120207638,-0.375746310,0.000608580,0.001491735,0.000718748,1.181175113,0.057821371,9.702336311
1784246742.337389,0.005225562,-0.120208330,-0.375745773,0.000466691,0.001424868,0.000761143,1.194354177,0.033538487,9.690983772
1784246742.339382,0.005221881,-0.120203473,-0.375740409,0.000217672,0.001322623,0.000972015,1.157430887,0.062875584,9.727452278
1784246742.341389,0.005216252,-0.120200671,-0.375747114,-0.000485435,0.001400415,0.000692409,1.199208021,0.066366196,9.728411674
1784246742.343390,0.005212812,-0.120202519,-0.375755191,-0.001090935,0.000995646,-0.000416590,1.184126377,0.044126075,9.732736588
1784246742.345393,0.005214196,-0.120201692,-0.375752181,-0.000937045,0.000672709,-0.000627986,1.159338474,0.033043303,9.697672844
1784246742.347396,0.005213466,-0.120200060,-0.375744909,-0.000517292,0.000679926,0.000230756,1.171099424,0.042151563,9.718812943
1784246742.349401,0.005211081,-0.120197281,-0.375743687,-0.000517469,0.000797031,0.000766218,1.181445479,0.045869742,9.744402885
1784246742.351406,0.005209279,-0.120190561,-0.375745565,-0.000602814,0.001229007,0.000544331,1.185602069,0.054453272,9.726976395
1784246742.353400,0.005205676,-0.120190419,-0.375745595,-0.000757160,0.001365142,0.000309340,1.194118142,0.053054195,9.719355583
1784246742.355404,0.005202126,-0.120192878,-0.375751823,-0.001092138,0.000892400,-0.000136165,1.181288958,0.066825114,9.696117401
1784246742.357406,0.005200803,-0.120199360,-0.375753552,-0.001196100,0.000097296,-0.000589363,1.169541001,0.062682204,9.732841492
1784246742.359402,0.005195043,-0.120203696,-0.375753850,-0.001365181,-0.000663460,-0.000505480,1.185965061,0.047286499,9.726034164
1784246742.361411,0.005192066,-0.120203212,-0.375754893,-0.001609776,-0.000730707,-0.000387697,1.219530940,0.038064603,9.702246666
1784246742.363429,0.005197965,-0.120196715,-0.375759631,-0.001037761,-0.000047382,-0.000693761,1.188599229,0.042740591,9.730490685
1784246742.365436,0.005201805,-0.120196737,-0.375750899,-0.000008180,0.000404153,-0.000320300,1.154464602,0.040483415,9.731339455
1784246742.367442,0.005200271,-0.120198227,-0.375748247,0.000300761,0.000194440,0.000507667,1.155825019,0.040984079,9.721481323
1784246742.369421,0.005198283,-0.120196946,-0.375754774,-0.000049593,0.000125846,0.000135589,1.155011177,0.048950773,9.736775398
1784246742.371423,0.005195990,-0.120194063,-0.375758380,-0.000373998,0.000277158,-0.000549646,1.153327942,0.057554975,9.726964951
1784246742.373423,0.005200438,-0.120191306,-0.375760347,-0.000139698,0.000488759,-0.000794794,1.146468759,0.048519835,9.749765396
1784246742.375448,0.005199932,-0.120192222,-0.375757605,0.000188997,0.000296675,-0.000559869,1.171829104,0.064626552,9.707302094
1784246742.377431,0.005196765,-0.120194145,-0.375761330,-0.000099231,-0.000161219,-0.000445493,1.165714979,0.043030631,9.730919838
1784246742.379432,0.005189388,-0.120194748,-0.375761241,-0.000812976,-0.000290593,-0.000488197,1.183975577,0.031182906,9.725928307
1784246742.381443,0.005190708,-0.120193496,-0.375754327,-0.000843278,-0.000106229,0.000150941,1.162315607,0.057951555,9.718009949
1784246742.383436,0.005189673,-0.120193198,-0.375746816,-0.000377516,0.000092048,0.001068973,1.154427886,0.074540563,9.730662346
1784246742.385432,0.005189926,-0.120192058,-0.375746578,-0.000381696,0.000152745,0.001321545,1.169629931,0.070678726,9.742308617
1784246742.387437,0.005196044,-0.120187186,-0.375750989,0.000000323,0.000504109,0.000641378,1.154757142,0.065893196,9.748989105
1784246742.389440,0.005200602,-0.120183073,-0.375755906,0.000643502,0.000974566,-0.000249482,1.165007234,0.095907293,9.731257439
1784246742.391447,0.005207874,-0.120179877,-0.375759393,0.001055886,0.001155459,-0.000827248,1.187358856,0.087667815,9.715534210
1784246742.393441,0.005206703,-0.120181926,-0.375755310,0.001042908,0.000872651,-0.000601087,1.178696513,0.077778831,9.735638618
1784246742.395446,0.005206159,-0.120184332,-0.375753611,0.000594848,0.000326828,-0.000023729,1.181188226,0.059546445,9.711762428
1784246742.397447,0.005204447,-0.120183408,-0.375753701,0.000198919,0.000129602,0.000127099,1.173703194,0.035340425,9.726842880
1784246742.399441,0.005204573,-0.120185599,-0.375760198,-0.000015609,0.000006671,-0.000340450,1.140542388,0.040563069,9.745225906
1784246742.401498,0.005205606,-0.120187961,-0.375766069,0.000022716,-0.000568412,-0.001098642,1.135084867,0.033976231,9.736212730
1784246742.403461,0.005202105,-0.120193340,-0.375769585,-0.000169221,-0.001202413,-0.001417850,1.154014826,0.040076181,9.726406097
1784246742.405453,0.005201841,-0.120192006,-0.375769734,-0.000377444,-0.001215994,-0.001250862,1.175351381,0.061212707,9.740011215
1784246742.407445,0.005203893,-0.120188199,-0.375769585,-0.000125042,-0.000601489,-0.000926521,1.191835046,0.088334545,9.739753723
1784246742.409444,0.005210333,-0.120183848,-0.375774533,0.000442333,0.000114348,-0.001067227,1.196043611,0.064195260,9.724359512
1784246742.411450,0.005214131,-0.120185092,-0.375780225,0.000854276,0.000422286,-0.001568062,1.183103085,0.071411721,9.740980148
1784246742.413457,0.005208334,-0.120182768,-0.375781804,0.000356541,0.000509233,-0.001610016,1.141251087,0.062062636,9.744915962
1784246742.415459,0.005203908,-0.120175324,-0.375783443,-0.000547114,0.000774296,-0.001297329,1.165489197,0.061412331,9.729691505
1784246742.417464,0.005204071,-0.120175742,-0.375783563,-0.000791673,0.000782609,-0.001015758,1.179909110,0.030608624,9.751028061
1784246742.419457,0.005207243,-0.120177075,-0.375775456,-0.000287715,0.000453783,-0.000233760,1.158554316,0.045295652,9.740342140
1784246742.421455,0.005211052,-0.120174475,-0.375769377,0.000333323,0.000371056,0.000734335,1.162608266,0.046988059,9.747081757
1784246742.423455,0.005206405,-0.120170087,-0.375767082,0.000212080,0.000696952,0.001115889,1.170489669,0.067128062,9.736009598
1784246742.425465,0.005205473,-0.120170325,-0.375767589,-0.000364990,0.000798076,0.000995171,1.215241432,0.056297734,9.729259491
1784246742.427458,0.005206808,-0.120175257,-0.375766784,-0.000394109,0.000238438,0.000759908,1.192228079,0.047056574,9.747110367
1784246742.429460,0.005209506,-0.120175399,-0.375770032,-0.000035092,-0.000171914,0.000354437,1.172885060,0.041245371,9.717015266
1784246742.431464,0.005201910,-0.120174162,-0.375774413,-0.000345937,0.000041068,-0.000227830,1.149479270,0.073288545,9.726614952
1784246742.433466,0.005198574,-0.120173998,-0.375776589,-0.000970238,0.000217738,-0.000526156,1.147569418,0.064701706,9.740455627
1784246742.435470,0.005204402,-0.120171733,-0.375774503,-0.000577692,0.000191208,-0.000400017,1.192098022,0.073488839,9.747728348
1784246742.437470,0.005205634,-0.120171957,-0.375770152,0.000068711,0.000147561,0.000089451,1.172453761,0.081004575,9.734308243
1784246742.439470,0.005200623,-0.120171584,-0.375765353,-0.000129978,0.000121325,0.000715768,1.154657841,0.054977152,9.709017754
1784246742.441472,0.005200319,-0.120171294,-0.375767231,-0.000509381,0.000053181,0.000774247,1.148491263,0.064884171,9.713109970
1784246742.443475,0.005200000,-0.120173588,-0.375765800,-0.000497801,-0.000177898,0.000545518,1.164284706,0.073082916,9.728868484
1784246742.445475,0.005195722,-0.120173223,-0.375765264,-0.000724679,-0.000326917,0.000577195,1.166196108,0.082085922,9.719513893
1784246742.447478,0.005199535,-0.120174445,-0.375766784,-0.000635502,-0.000364784,0.000366396,1.143206716,0.073845617,9.722577095
1784246742.449477,0.005202834,-0.120174617,-0.375768363,-0.000009168,-0.000361095,-0.000002725,1.165459752,0.058343373,9.720258713
1784246742.451547,0.005200289,-0.120170549,-0.375773132,-0.000037717,-0.000082195,-0.000433323,1.179238081,0.084584698,9.722680092
1784246742.453486,0.005200036,-0.120167948,-0.375780523,-0.000344965,0.000306274,-0.001107468,1.160721540,0.039395720,9.747030258
1784246742.455483,0.005199023,-0.120165929,-0.375781417,-0.000335886,0.000441327,-0.001364357,1.147289515,0.038987063,9.702630997
1784246742.457487,0.005203517,-0.120169349,-0.375777811,0.000080569,0.000134994,-0.000849080,1.172300577,0.030858982,9.729502678
1784246742.459511,0.005204528,-0.120170295,-0.375778407,0.000455057,-0.000197039,-0.000456148,1.166768670,0.055600207,9.725621223
1784246742.461501,0.005206017,-0.120168418,-0.375777513,0.000514620,-0.000129639,-0.000330984,1.185909390,0.043604240,9.739909172
1784246742.463503,0.005208258,-0.120166540,-0.375772566,0.000685843,0.000113860,0.000122520,1.181351662,0.036214918,9.716094971
1784246742.465508,0.005213242,-0.120165318,-0.375771135,0.001100430,0.000342118,0.000453637,1.188216209,0.048128244,9.729628563
1784246742.467583,0.005218836,-0.120167643,-0.375771940,0.001581125,0.000221034,0.000278343,1.160618424,0.066851094,9.729722023
1784246742.469548,0.005214043,-0.120171174,-0.375771344,0.001203954,-0.000237536,0.000183528,1.163995147,0.086098619,9.726262093
1784246742.471541,0.005205401,-0.120169580,-0.375768155,-0.000136497,-0.000382551,0.000510955,1.172774196,0.070260465,9.732444763
1784246742.473530,0.005202746,-0.120170787,-0.375767380,-0.000966613,-0.000327778,0.000750610,1.154555202,0.048899289,9.744844437
1784246742.475539,0.005197087,-0.120170578,-0.375769585,-0.001300563,-0.000414356,0.000527781,1.172502875,0.085446030,9.739716530
1784246742.477535,0.005193181,-0.120174132,-0.375769675,-0.001635863,-0.000638094,0.000310256,1.195698142,0.073525518,9.736074448
1784246742.479550,0.005194936,-0.120177209,-0.375769854,-0.001339088,-0.000915357,0.000224221,1.188650012,0.046384700,9.721997261
1784246742.481548,0.005201934,-0.120179094,-0.375770837,-0.000414720,-0.000872103,0.000019623,1.177311540,0.037467457,9.736275673
1784246742.483540,0.005203653,-0.120180793,-0.375775039,0.000224139,-0.000748565,-0.000399744,1.182965517,0.022200199,9.730801582
1784246742.485573,0.005191116,-0.120184600,-0.375775605,-0.000416028,-0.000863634,-0.000545682,1.181672096,0.064680941,9.744971275
1784246742.487565,0.005191890,-0.120183200,-0.375773966,-0.000899080,-0.000733727,-0.000253691,1.156740665,0.044359133,9.749300957
1784246742.489553,0.005191313,-0.120187551,-0.375775039,-0.000636996,-0.000735043,-0.000148849,1.160308838,0.040901158,9.725071907
1784246742.491555,0.005184152,-0.120191060,-0.375775039,-0.000902407,-0.001144730,-0.000129630,1.150938392,0.082268678,9.721294403
1784246742.493544,0.005179286,-0.120189726,-0.375782192,-0.001434259,-0.001059225,-0.000493116,1.172966719,0.049184658,9.734552383
1784246742.495574,0.005174585,-0.120184809,-0.375785381,-0.001688155,-0.000402964,-0.000989064,1.161218405,0.040174965,9.699514389
1784246742.497550,0.005180312,-0.120190620,-0.375783205,-0.001083996,-0.000404692,-0.000810222,1.190056086,0.050488140,9.709470749
1784246742.499585,0.005188274,-0.120194860,-0.375781655,0.000163089,-0.000974067,-0.000447147,1.172547340,0.087012492,9.708343506
1784246742.501542,0.005188760,-0.120191433,-0.375783741,0.000573330,-0.000698069,-0.000414267,1.162063599,0.076936632,9.758033752
1784246742.503547,0.005188339,-0.120190784,-0.375783354,0.000297200,-0.000166712,-0.000407439,1.163613915,0.053505566,9.710809708
1784246742.505558,0.005188212,-0.120190836,-0.375784039,0.000200402,-0.000141286,-0.000314056,1.147713900,0.039193973,9.735810280
1784246742.507539,0.005185813,-0.120193407,-0.375780970,0.000018593,-0.000338771,-0.000048837,1.152343154,0.049986120,9.721983910
1784246742.509540,0.005184841,-0.120199196,-0.375774592,-0.000136615,-0.000809365,0.000629914,1.164349079,0.040865313,9.722832680
1784246742.511545,0.005181769,-0.120198101,-0.375773370,-0.000247429,-0.000971446,0.000999025,1.186515450,0.057809249,9.757485390
1784246742.513543,0.005178144,-0.120200060,-0.375773400,-0.000559459,-0.000832491,0.000853792,1.177456856,0.047935911,9.713028908
1784246742.515540,0.005173594,-0.120202892,-0.375777811,-0.000968839,-0.000925078,0.000385586,1.181164861,0.058955401,9.731932640
1784246742.517548,0.005168887,-0.120206930,-0.375780195,-0.001358677,-0.001134648,-0.000100850,1.192300081,0.053299405,9.751185417
1784246742.519553,0.005171452,-0.120205544,-0.375777900,-0.001134285,-0.001007247,-0.000055705,1.200918555,0.059194911,9.725676537
1784246742.521555,0.005176848,-0.120199263,-0.375768542,-0.000204407,-0.000117054,0.000686864,1.151570201,0.061110798,9.734159470
1784246742.523548,0.005174185,-0.120194592,-0.375769258,0.000096064,0.000752494,0.001065984,1.155183434,0.060442325,9.695602417
1784246742.525553,0.005172261,-0.120191433,-0.375767797,-0.000266549,0.001017115,0.000869842,1.165393472,0.052551668,9.715736389
1784246742.527554,0.005168647,-0.120193444,-0.375763535,-0.000554487,0.000758062,0.001067385,1.150364399,0.033561736,9.703943253
1784246742.529551,0.005172672,-0.120191872,-0.375755697,-0.000277407,0.000525773,0.001590911,1.187460065,0.058576390,9.710865021
1784246742.531549,0.005175675,-0.120192200,-0.375751376,0.000360427,0.000532175,0.001919810,1.187345028,0.050373182,9.730538368
1784246742.533553,0.005179198,-0.120195523,-0.375755131,0.000696691,0.000200998,0.001381107,1.187412500,0.056174420,9.733714104
1784246742.535565,0.005181997,-0.120199531,-0.375753373,0.000902768,-0.000326833,0.000824543,1.175609708,0.009145516,9.752680779
1784246742.537560,0.005181985,-0.120197050,-0.375751942,0.000857398,-0.000315586,0.000800074,1.186300039,0.075056918,9.726660728
1784246742.539560,0.005178111,-0.120197684,-0.375751913,0.000374682,-0.000104111,0.000710459,1.187666655,0.078038670,9.745959282
1784246742.541559,0.005183166,-0.120198116,-0.375744909,0.000327797,-0.000117435,0.000987712,1.169416308,0.053592619,9.751166344
1784246742.543565,0.005187350,-0.120199926,-0.375742912,0.000853148,-0.000205614,0.001262347,1.185689092,0.063650601,9.756625175
1784246742.545570,0.005179590,-0.120203748,-0.375738531,0.000365498,-0.000512013,0.001387476,1.168862700,0.044664584,9.747521400
1784246742.547562,0.005174989,-0.120207548,-0.375737369,-0.000587970,-0.000872875,0.001494965,1.171593189,0.048175618,9.752926826
1784246742.549588,0.005181967,-0.120205842,-0.375744641,-0.000318244,-0.000780528,0.000656139,1.160134196,0.063740201,9.727010727
1784246742.551582,0.005176766,-0.120193906,-0.375745445,-0.000218616,0.000332519,-0.000075627,1.182399750,0.050766744,9.747123718
1784246742.553573,0.005172145,-0.120188259,-0.375736713,-0.000796793,0.001413172,0.000565126,1.162842035,0.027859889,9.727231979
1784246742.555576,0.005172413,-0.120183453,-0.375734836,-0.000754078,0.001654664,0.001155967,1.147189498,0.068088017,9.705956459
1784246742.557579,0.005168217,-0.120179296,-0.375736237,-0.000776719,0.001727380,0.000899760,1.177078366,0.053765159,9.713066101
1784246742.559581,0.005157555,-0.120175108,-0.375735283,-0.001570322,0.001824509,0.000748230,1.156149864,0.030274957,9.714689255
1784246742.561580,0.005148632,-0.120175980,-0.375735730,-0.002370496,0.001447127,0.000725252,1.168424368,0.044753000,9.735864639
1784246742.563589,0.005153597,-0.120180108,-0.375740379,-0.001945800,0.000606468,0.000201511,1.177317023,0.074695326,9.730685234
1784246742.565585,0.005154668,-0.120187089,-0.375738740,-0.001133917,-0.000335900,-0.000090810,1.184498072,0.076239385,9.752670288
1784246742.567585,0.005150677,-0.120185018,-0.375741959,-0.001134994,-0.000603030,-0.000139901,1.167995811,0.048564650,9.767720222
1784246742.569587,0.005151290,-0.120185643,-0.375745803,-0.001111912,-0.000345585,-0.000552195,1.167622328,0.089185171,9.726734161
1784246742.571581,0.005153280,-0.120190144,-0.375748158,-0.000846947,-0.000610915,-0.000818573,1.148294330,0.049955189,9.733637810
1784246742.573590,0.005151911,-0.120185837,-0.375741959,-0.000706106,-0.000465864,-0.000324855,1.175959706,0.072193310,9.706907272
1784246742.575603,0.005150565,-0.120186657,-0.375734925,-0.000692345,-0.000075235,0.000686125,1.174798131,0.051881228,9.730087280
1784246742.577589,0.005151098,-0.120195813,-0.375736624,-0.000618642,-0.000705991,0.000876060,1.165056109,0.025572257,9.729909897
1784246742.579589,0.005154871,-0.120198138,-0.375735790,-0.000167441,-0.001292893,0.000545001,1.207318664,0.032993380,9.744343758
1784246742.581597,0.005154178,-0.120195858,-0.375734061,0.000169657,-0.000894012,0.000543119,1.203961849,0.051088184,9.726075172
1784246742.583598,0.005153502,-0.120193906,-0.375733674,0.000111000,-0.000312164,0.000542887,1.188709974,0.088905424,9.728096962
1784246742.585613,0.005152200,-0.120195508,-0.375732601,-0.000187916,-0.000173408,0.000522671,1.189281821,0.063223422,9.747211456
1784246742.587604,0.005149520,-0.120197110,-0.375740349,-0.000606015,-0.000318944,-0.000017251,1.187407374,0.054512944,9.715322495
1784246742.589601,0.005146053,-0.120195575,-0.375745654,-0.000961843,-0.000241765,-0.000842883,1.190406680,0.043629430,9.728256226
1784246742.591623,0.005150876,-0.120196819,-0.375741422,-0.000589088,-0.000106898,-0.000702780,1.192419410,0.024351068,9.726341248
1784246742.593607,0.005151086,-0.120201148,-0.375744462,-0.000050943,-0.000408280,-0.000476157,1.193395853,0.031043086,9.728627205
1784246742.595611,0.005149194,-0.120203383,-0.375745535,-0.000146899,-0.000674688,-0.000618982,1.161944270,0.065458171,9.734197617
1784246742.597608,0.005151842,-0.120202757,-0.375746191,-0.000032652,-0.000529651,-0.000576432,1.191925526,0.057537135,9.722966194
1784246742.599610,0.005152464,-0.120200269,-0.375745445,0.000197679,-0.000174254,-0.000435499,1.178840041,0.050237957,9.701835632
1784246742.601610,0.005152423,-0.120196976,-0.375743210,0.000168224,0.000283438,-0.000115415,1.178553700,0.065709308,9.731973648
1784246742.603622,0.005153029,-0.120197847,-0.375749201,0.000091080,0.000386241,-0.000334905,1.173152804,0.064027794,9.726130486
1784246742.605616,0.005156572,-0.120195672,-0.375751913,0.000232867,0.000299217,-0.000856426,1.194105983,0.089738727,9.727210999
1784246742.607615,0.005153493,-0.120193422,-0.375749439,0.000156271,0.000450100,-0.000639730,1.182945013,0.056791160,9.718023300
1784246742.609623,0.005151926,-0.120197818,-0.375748962,-0.000175420,0.000183457,-0.000231680,1.188958526,0.033518448,9.703533173
1784246742.611622,0.005148984,-0.120204136,-0.375746876,-0.000313364,-0.000461666,0.000027128,1.174704075,0.044656616,9.738111496
1784246742.613626,0.005144857,-0.120203719,-0.375746936,-0.000591096,-0.000605625,0.000199151,1.165617228,0.035370775,9.737146378
1784246742.615622,0.005141324,-0.120205857,-0.375746816,-0.000864266,-0.000600963,0.000198603,1.163454294,0.042112574,9.738084793
1784246742.617624,0.005140168,-0.120202534,-0.375746906,-0.000862207,-0.000401634,0.000181563,1.176656842,0.057227399,9.731020927
1784246742.619632,0.005141220,-0.120199777,-0.375747442,-0.000639487,0.000119617,0.000099388,1.174086332,0.066732675,9.722113609
1784246742.621628,0.005149177,-0.120202325,-0.375743598,0.000059791,0.000042356,0.000236402,1.212849259,0.043399192,9.720207214
1784246742.623628,0.005146561,-0.120203830,-0.375738710,0.000366261,-0.000302162,0.000731427,1.161086082,0.030214898,9.714243889
1784246742.625633,0.005145681,-0.120198116,-0.375736743,0.000233804,-0.000026774,0.001004156,1.147652626,0.034253679,9.737570763
1784246742.627635,0.005156822,-0.120194107,-0.375738502,0.001010557,0.000545842,0.000646690,1.157883525,0.062901638,9.722969055
1784246742.629637,0.005159639,-0.120192684,-0.375740409,0.001647238,0.000765893,0.000114517,1.175248742,0.051891379,9.727848053
1784246742.631640,0.005156789,-0.120191604,-0.375739843,0.001040755,0.000665980,0.000012513,1.199103475,0.057435602,9.724317551
1784246742.633645,0.005164797,-0.120193109,-0.375742763,0.000940562,0.000392184,-0.000170684,1.196085095,0.068169691,9.732454300
1784246742.635643,0.005176075,-0.120194830,-0.375743926,0.001826538,0.000201823,-0.000537240,1.171347260,0.025564896,9.719604492
1784246742.637645,0.005167725,-0.120197304,-0.375740528,0.001421236,-0.000000951,-0.000246693,1.173893690,0.051028602,9.725598335
1784246742.639642,0.005163666,-0.120197184,-0.375736833,0.000256933,-0.000159955,0.000396767,1.181635499,0.061961371,9.749437332
1784246742.641651,0.005169074,-0.120195478,-0.375735492,0.000316638,0.000021959,0.000615898,1.175866961,0.066191763,9.731974602
1784246742.643646,0.005177826,-0.120191030,-0.375728667,0.001249074,0.000450218,0.000886903,1.182163477,0.028638955,9.708875656
1784246742.645649,0.005181808,-0.120193213,-0.375725925,0.001979829,0.000527102,0.001173358,1.188286781,0.052738223,9.711276054
1784246742.647653,0.005179789,-0.120195121,-0.375730366,0.001695340,0.000146033,0.000710388,1.192974806,0.032078307,9.709804535
1784246742.649654,0.005180528,-0.120193690,-0.375730604,0.001110961,0.000071482,0.000211185,1.177506804,0.054003868,9.741761208
1784246742.651655,0.005185025,-0.120194577,-0.375720322,0.001226539,0.000113576,0.000787612,1.165004253,0.058295056,9.727879524
1784246742.653652,0.005186005,-0.120199531,-0.375718802,0.001341913,-0.000288851,0.001331532,1.170921445,0.064962000,9.724788666
1784246742.655660,0.005193914,-0.120205641,-0.375723332,0.001424300,-0.000953782,0.000714797,1.172044039,0.082128823,9.702931404
1784246742.657655,0.005194439,-0.120198853,-0.375725746,0.001421230,-0.000643871,-0.000000940,1.184517622,0.073151708,9.682711601
1784246742.659661,0.005194203,-0.120196640,-0.375724554,0.001044330,0.000141254,-0.000086583,1.155722618,0.071282670,9.745436668
1784246742.661661,0.005200360,-0.120198406,-0.375723958,0.001034281,0.000133277,0.000028735,1.149248004,0.054845821,9.737255096
1784246742.663666,0.005201200,-0.120195843,-0.375727177,0.001064052,0.000146946,-0.000193971,1.149898767,0.033840567,9.728602409
1784246742.665662,0.005206118,-0.120192327,-0.375725687,0.001161240,0.000461745,-0.000300236,1.152341723,0.051596723,9.747550011
1784246742.667663,0.005208854,-0.120186985,-0.375722229,0.001413937,0.000884446,0.000056961,1.173909664,0.052369308,9.726055145
1784246742.669665,0.005206019,-0.120180257,-0.375719190,0.001076255,0.001466998,0.000480343,1.179974556,0.034367189,9.726394653
1784246742.671665,0.005201803,-0.120175838,-0.375717312,0.000413004,0.001752218,0.000733178,1.179951191,0.030939305,9.704403877
1784246742.673675,0.005202412,-0.120174132,-0.375716537,0.000143515,0.001616817,0.000735275,1.173840165,0.045742098,9.713010788
1784246742.675679,0.005205937,-0.120173804,-0.375713795,0.000415112,0.001315141,0.000736416,1.167070270,0.042679884,9.714777946
1784246742.677674,0.005209398,-0.120174497,-0.375714600,0.000792311,0.000932222,0.000610259,1.175643563,0.009412606,9.715021133
1784246742.679672,0.005214881,-0.120180488,-0.375719190,0.001135951,0.000223646,0.000010621,1.164551854,0.057865568,9.726080894
1784246742.681678,0.005223542,-0.120187417,-0.375722736,0.001671012,-0.000762265,-0.000644996,1.180581093,0.084138565,9.719988823
1784246742.683687,0.005225249,-0.120189212,-0.375720233,0.001863828,-0.001193479,-0.000615869,1.163504481,0.082126766,9.718614578
1784246742.685684,0.005230403,-0.120187387,-0.375714272,0.001756594,-0.000861067,0.000076476,1.186227441,0.068810895,9.723033905
1784246742.687685,0.005225463,-0.120187700,-0.375716597,0.001191961,-0.000522006,0.000309831,1.175679803,0.048098810,9.693301201
1784246742.689688,0.005228546,-0.120182827,-0.375718206,0.000711674,-0.000073168,-0.000024608,1.160002232,0.088939875,9.711930275
1784246742.691689,0.005230263,-0.120176144,-0.375725091,0.000637900,0.000630915,-0.000608688,1.189975381,0.080955237,9.709666252
1784246742.693682,0.005231332,-0.120178431,-0.375724047,0.000469939,0.000657867,-0.000838504,1.155909777,0.084512010,9.711898804
1784246742.695698,0.005234698,-0.120179288,-0.375718653,0.000593280,0.000165895,-0.000196050,1.173251152,0.073314168,9.743226051
1784246742.697698,0.005244274,-0.120180614,-0.375719070,0.001244763,-0.000125563,0.000110769,1.162329555,0.058872908,9.714429855
1784246742.699691,0.005247993,-0.120181292,-0.375721991,0.001776159,-0.000226962,-0.000242665,1.163069963,0.047490682,9.738566399
1784246742.701727,0.005247833,-0.120182931,-0.375721127,0.001492974,-0.000384595,-0.000339205,1.176320076,0.029847723,9.738466263
1784246742.703755,0.005249708,-0.120184742,-0.375715762,0.001230270,-0.000574359,0.000167619,1.181910038,0.046801250,9.738581657
1784246742.705708,0.005249200,-0.120183460,-0.375716478,0.001042467,-0.000405989,0.000430237,1.168715715,0.031346574,9.730398178
1784246742.707704,0.005247756,-0.120178245,-0.375720501,0.000604851,0.000191653,0.000009959,1.134797931,0.047417641,9.736746788
1784246742.709699,0.005249690,-0.120178342,-0.375726253,0.000393837,0.000484087,-0.000657871,1.151756525,0.039987281,9.742992401
1784246742.711704,0.005250407,-0.120179750,-0.375730604,0.000396872,0.000137679,-0.001183349,1.152501225,0.062176455,9.708613396
1784246742.713704,0.005250886,-0.120184094,-0.375733614,0.000323170,-0.000403062,-0.001369312,1.161834240,0.056483053,9.736382484
1784246742.715705,0.005249876,-0.120185286,-0.375728697,0.000286622,-0.000747047,-0.000872665,1.168788552,0.037595771,9.733577728
1784246742.717750,0.005249744,-0.120185733,-0.375726432,0.000262053,-0.000729884,-0.000148332,1.176145077,0.013876921,9.716395378
1784246742.719723,0.005250129,-0.120185830,-0.375730574,0.000192951,-0.000569071,-0.000233679,1.157583594,0.038244698,9.725501060
1784246742.721721,0.005247471,-0.120184883,-0.375735253,-0.000037096,-0.000447216,-0.000747408,1.183783412,0.053071976,9.735484123
1784246742.723716,0.005250435,-0.120183550,-0.375729650,0.000048077,-0.000257050,-0.000488875,1.151426315,0.047818225,9.713450432
1784246742.725732,0.005252639,-0.120184019,-0.375723094,0.000505353,-0.000199201,0.000421715,1.165940523,0.061832279,9.732832909
1784246742.727723,0.005250385,-0.120186061,-0.375716805,0.000492215,-0.000387868,0.001173493,1.174277544,0.082427219,9.719971657
1784246742.729718,0.005250910,-0.120185658,-0.375719786,0.000268578,-0.000393133,0.001089738,1.164515257,0.092735976,9.737065315
1784246742.731718,0.005253185,-0.120181486,-0.375722975,0.000148062,0.000038540,0.000381352,1.172396421,0.077309608,9.749976158
1784246742.733724,0.005252246,-0.120179512,-0.375722617,-0.000011445,0.000460339,0.000100458,1.175902963,0.068908155,9.727955818
1784246742.735723,0.005249443,-0.120180205,-0.375726163,-0.000366184,0.000446202,-0.000106340,1.175629497,0.046081211,9.725119591
1784246742.737721,0.005246581,-0.120179564,-0.375723392,-0.000734492,0.000345985,-0.000077148,1.161756635,0.048172105,9.708082199
1784246742.739725,0.005240405,-0.120181717,-0.375726670,-0.001148886,0.000148337,-0.000020704,1.161852479,0.019442795,9.715520859
1784246742.741728,0.005229509,-0.120181873,-0.375732809,-0.001974547,-0.000058676,-0.000522324,1.159168839,0.058350727,9.730563164
1784246742.743725,0.005230838,-0.120185003,-0.375729620,-0.002017069,-0.000271832,-0.000508119,1.159003973,0.043272678,9.708945274
1784246742.745733,0.005230099,-0.120189503,-0.375725687,-0.001311737,-0.000762691,0.000097238,1.159920335,0.083430789,9.730725288
1784246742.747728,0.005226592,-0.120188475,-0.375732929,-0.001209203,-0.000841759,-0.000128783,1.144695401,0.049117979,9.731835365
1784246742.749736,0.005223028,-0.120190136,-0.375735641,-0.001438324,-0.000659547,-0.000707776,1.176188350,0.093044005,9.735733032
1784246742.751730,0.005219064,-0.120198920,-0.375735283,-0.001722031,-0.001176840,-0.000591820,1.171942949,0.073630288,9.701083183
1784246742.753733,0.005216913,-0.120202750,-0.375736564,-0.001822009,-0.001699380,-0.000417729,1.159325480,0.034155075,9.730408669
1784246742.755741,0.005221808,-0.120197728,-0.375735879,-0.001053815,-0.001242597,-0.000375164,1.179382563,0.060293660,9.735973358
1784246742.757740,0.005225193,-0.120195478,-0.375740170,-0.000145595,-0.000498063,-0.000594032,1.154378772,0.071722440,9.749025345
1784246742.759739,0.005219406,-0.120193601,-0.375748426,-0.000370197,-0.000087016,-0.001261066,1.172795415,0.072049133,9.732905388
1784246742.761749,0.005214869,-0.120195277,-0.375752002,-0.001187705,-0.000033285,-0.001623038,1.179746270,0.053133253,9.734135628
1784246742.763776,0.005211046,-0.120194651,-0.375748038,-0.001550953,-0.000073626,-0.001074474,1.157302976,0.052140430,9.725140572
1784246742.765763,0.005215093,-0.120192699,-0.375753254,-0.001090366,0.000034379,-0.000871503,1.145441771,0.036566757,9.731306076
1784246742.767785,0.005216733,-0.120195404,-0.375761241,-0.000484137,-0.000118647,-0.001572936,1.165337443,0.047649536,9.712117195
1784246742.769760,0.005211104,-0.120197110,-0.375758022,-0.000660520,-0.000389438,-0.001435927,1.177120209,0.057336122,9.714882851
1784246742.771755,0.005210564,-0.120194241,-0.375755340,-0.000894980,-0.000194120,-0.000593975,1.190280437,0.068873614,9.706899643
1784246742.773758,0.005215878,-0.120192111,-0.375751257,-0.000321519,0.000210352,-0.000014082,1.174835563,0.054203704,9.718446732
1784246742.775757,0.005222589,-0.120189823,-0.375745207,0.000691689,0.000425592,0.000571335,1.181071758,0.050117008,9.714838982
1784246742.777758,0.005229505,-0.120189868,-0.375739068,0.001554491,0.000436280,0.001123551,1.175284266,0.054197952,9.718446732
1784246742.779758,0.005236955,-0.120188221,-0.375739425,0.002147722,0.000429103,0.001092452,1.184648633,0.049969260,9.729188919
1784246742.781772,0.005240412,-0.120193057,-0.375741243,0.002360834,0.000123349,0.000562323,1.173454165,0.052320994,9.733675957
1784246742.783773,0.005230399,-0.120196834,-0.375739664,0.001354262,-0.000466505,0.000443016,1.139383197,0.054619744,9.723794937
1784246742.785767,0.005224647,-0.120195225,-0.375738353,-0.000046307,-0.000674792,0.000645104,1.163215041,0.057145886,9.703658104
1784246742.787763,0.005230376,-0.120197020,-0.375738055,-0.000015925,-0.000692533,0.000578118,1.174994230,0.066400401,9.704178810
1784246742.789772,0.005236648,-0.120194629,-0.375733107,0.000840239,-0.000463348,0.000676407,1.161749005,0.048111696,9.716601372
1784246742.791774,0.005239280,-0.120192185,-0.375734121,0.001304913,0.000029755,0.000677367,1.165915728,0.021614961,9.717780113
1784246742.793775,0.005237052,-0.120196559,-0.375734806,0.001024396,-0.000070449,0.000367643,1.139144182,0.034496464,9.718733788
1784246742.795774,0.005235364,-0.120199136,-0.375734985,0.000596634,-0.000717564,0.000228717,1.155331492,0.036583345,9.711141586
1784246742.797801,0.005238389,-0.120200366,-0.375736624,0.000631120,-0.000976057,0.000020937,1.160303831,0.038836230,9.700401306
1784246742.799868,0.005236653,-0.120204717,-0.375739098,0.000512736,-0.001089936,-0.000274657,1.173251629,0.072507247,9.730668068
1784246742.801809,0.005234711,-0.120207988,-0.375738978,-0.000081329,-0.001276522,-0.000310860,1.174277782,0.084453985,9.750022888
1784246742.803820,0.005229937,-0.120204858,-0.375742316,-0.000725506,-0.000905970,-0.000370851,1.166129231,0.079127878,9.757602692
1784246742.805798,0.005229488,-0.120203592,-0.375752479,-0.001100547,-0.000434734,-0.001117304,1.154397368,0.071058631,9.716294289
1784246742.807791,0.005233832,-0.120207429,-0.375758439,-0.000781603,-0.000564258,-0.001915505,1.169111729,0.064057276,9.729264259
1784246742.809797,0.005240265,-0.120204158,-0.375761241,0.000084862,-0.000452007,-0.002079637,1.185696483,0.062087689,9.724335670
1784246742.811787,0.005239572,-0.120194189,-0.375761777,0.000381314,0.000530791,-0.001779525,1.191732287,0.040206544,9.703129768
1784246742.813792,0.005235638,-0.120190859,-0.375763237,-0.000090173,0.001253054,-0.001381435,1.173527479,0.055736531,9.694245338
1784246742.815790,0.005225705,-0.120193154,-0.375759304,-0.001003594,0.000991072,-0.000717640,1.188379526,0.059953287,9.704597473
1784246742.817798,0.005221805,-0.120189257,-0.375760913,-0.001668578,0.000836325,-0.000251922,1.173265934,0.037461966,9.744340897
1784246742.819796,0.005227325,-0.120191298,-0.375763327,-0.001139029,0.000734091,-0.000470588,1.166800618,0.058284793,9.726087570
1784246742.821800,0.005232446,-0.120193213,-0.375764459,-0.000142568,0.000275267,-0.000667159,1.162788630,0.060569972,9.726993561
1784246742.823802,0.005232504,-0.120190196,-0.375763416,0.000242889,0.000285015,-0.000538206,1.156122327,0.066432014,9.733750343
1784246742.825808,0.005228180,-0.120190963,-0.375761598,-0.000146329,0.000261572,-0.000156671,1.167234421,0.056944694,9.724734306
1784246742.827800,0.005227996,-0.120192997,-0.375759035,-0.000433835,-0.000098112,0.000227670,1.194666982,0.063160785,9.746318817
1784246742.829801,0.005226605,-0.120192580,-0.375759572,-0.000405821,-0.000181489,0.000310460,1.193941474,0.076687418,9.735646248
1784246742.831806,0.005223267,-0.120192185,-0.375757784,-0.000654025,-0.000005232,0.000353614,1.201076984,0.035011981,9.723728180
1784246742.833808,0.005223721,-0.120193981,-0.375753850,-0.000674379,-0.000024325,0.000673313,1.198824048,0.034967594,9.734037399
1784246742.835815,0.005222170,-0.120198943,-0.375753313,-0.000476089,-0.000417852,0.000796123,1.170106292,0.034112487,9.716967583
1784246742.837814,0.005229855,-0.120196201,-0.375757575,0.000088979,-0.000399318,0.000274197,1.144202232,0.046340566,9.745266914
1784246742.839815,0.005236674,-0.120191358,-0.375758976,0.000995871,0.000222035,-0.000300418,1.149893165,0.032985978,9.722769737
1784246742.841815,0.005233182,-0.120191559,-0.375763416,0.000984109,0.000375505,-0.000649547,1.169430971,0.052086949,9.710806847
1784246742.843822,0.005231210,-0.120192394,-0.375768036,0.000356902,0.000098880,-0.001051445,1.193711281,0.056227487,9.714891434
1784246742.845824,0.005233787,-0.120190889,-0.375769347,0.000300852,0.000216028,-0.001179344,1.185225964,0.023115074,9.724084854
1784246742.847817,0.005236682,-0.120185778,-0.375769377,0.000625438,0.000709750,-0.000998885,1.173492312,0.054649830,9.721138000
1784246742.849818,0.005233010,-0.120186709,-0.375766784,0.000424287,0.000802159,-0.000544674,1.170740247,0.048943501,9.709442139
1784246742.851825,0.005222689,-0.120185643,-0.375764370,-0.000575554,0.000607031,0.000054173,1.189246058,0.057266746,9.702788353
1784246742.853827,0.005220952,-0.120187379,-0.375762224,-0.001177827,0.000409856,0.000436165,1.171657443,0.050707959,9.711696625
1784246742.855822,0.005227879,-0.120188154,-0.375759631,-0.000442676,0.000110341,0.000589077,1.189400077,0.035078790,9.735374451
1784246742.857819,0.005226115,-0.120184958,-0.375750422,0.000149643,0.000230531,0.001189845,1.180770993,0.063447118,9.731064796
1784246742.859827,0.005219150,-0.120186582,-0.375753760,-0.000431190,0.000276777,0.001336831,1.186162829,0.063031912,9.716721535
1784246742.861831,0.005218988,-0.120187081,-0.375757873,-0.000945471,0.000046996,0.000539706,1.194969535,0.049843386,9.728301048
1784246742.863822,0.005218532,-0.120185867,-0.375759393,-0.000866165,0.000072257,0.000033010,1.197167993,0.082591511,9.718649864
1784246742.865827,0.005218279,-0.120185144,-0.375762820,-0.000788839,0.000234221,-0.000299178,1.188998580,0.074666664,9.713660240
1784246742.867825,0.005219193,-0.120186619,-0.375762612,-0.000626241,0.000170407,-0.000433707,1.176052570,0.044251822,9.729591370
1784246742.869835,0.005223019,-0.120187916,-0.375759959,-0.000112906,-0.000062654,-0.000153033,1.180361271,0.066598125,9.729740143
1784246742.871830,0.005226504,-0.120186329,-0.375761092,0.000372130,-0.000016980,-0.000055500,1.164046168,0.052559383,9.717080116
1784246742.873836,0.005223712,-0.120183721,-0.375765264,0.000222979,0.000276246,-0.000398990,1.160816789,0.044606276,9.707162857
1784246742.875835,0.005226545,-0.120184682,-0.375769556,0.000130391,0.000257023,-0.000867112,1.191792846,0.047170427,9.731867790
1784246742.877837,0.005230032,-0.120190762,-0.375764430,0.000561534,-0.000341872,-0.000632942,1.197788000,0.060531344,9.732406616
1784246742.879833,0.005231559,-0.120200239,-0.375761241,0.000814467,-0.001302689,0.000058131,1.172308087,0.067696109,9.715839386
1784246742.881897,0.005232869,-0.120204218,-0.375761271,0.000820274,-0.001854723,0.000237178,1.174186826,0.075224862,9.724857330
1784246742.883859,0.005232409,-0.120202735,-0.375764906,0.000634710,-0.001514094,-0.000079846,1.161477089,0.065317653,9.754819870
1784246742.885854,0.005227888,-0.120202273,-0.375769496,-0.000004330,-0.001096973,-0.000563379,1.178207636,0.073009618,9.714087486
1784246742.887897,0.005230490,-0.120205045,-0.375774413,-0.000273850,-0.001082541,-0.001025240,1.200018644,0.059590776,9.734645844
1784246742.889870,0.005234355,-0.120205507,-0.375771910,0.000216646,-0.001009871,-0.000963124,1.174649715,0.037336983,9.696369171
1784246742.891853,0.005229425,-0.120203882,-0.375765353,0.000178124,-0.000597772,-0.000086117,1.165392756,0.014145271,9.698005676
1784246742.893863,0.005227618,-0.120201558,-0.375770986,-0.000298757,-0.000109631,0.000047656,1.185075641,0.010581703,9.722659111
1784246742.895895,0.005234299,-0.120200664,-0.375775516,0.000113263,0.000062996,-0.000703139,1.168260217,0.030488199,9.725909233
1784246742.897870,0.005236085,-0.120200306,-0.375775695,0.000700494,0.000057560,-0.000907376,1.176886559,0.039687581,9.739875793
1784246742.899858,0.005231824,-0.120197251,-0.375772268,0.000369774,0.000273896,-0.000424325,1.173171163,0.065794200,9.729726791
1784246742.901860,0.005232373,-0.120193593,-0.375772417,-0.000049259,0.000685292,-0.000053245,1.168801904,0.076100737,9.737411499
1784246742.903861,0.005230134,-0.120191813,-0.375776798,-0.000281875,0.000897532,-0.000324843,1.177129269,0.095809281,9.723199844
1784246742.905868,0.005226793,-0.120191954,-0.375781447,-0.000816210,0.000697646,-0.000777979,1.187071443,0.065136224,9.734220505
1784246742.907861,0.005223686,-0.120198175,-0.375781715,-0.001230089,0.000010551,-0.000822311,1.180765748,0.062595718,9.724781990
1784246742.909864,0.005221872,-0.120201245,-0.375779152,-0.001208617,-0.000622234,-0.000403535,1.178701520,0.037796799,9.687410355
1784246742.911901,0.005217908,-0.120204300,-0.375784546,-0.001280013,-0.000846181,-0.000440264,1.170812845,0.019626327,9.736601830
1784246742.913874,0.005218243,-0.120205402,-0.375792712,-0.001274641,-0.000879410,-0.001206329,1.181184888,0.025171330,9.757270813
1784246742.915876,0.005214315,-0.120201230,-0.375790507,-0.001158205,-0.000421952,-0.001256086,1.166908026,0.029647687,9.720522881
1784246742.917872,0.005210489,-0.120198242,-0.375784069,-0.001235408,0.000194838,-0.000280110,1.170398951,0.057902120,9.710395813
1784246742.919868,0.005212313,-0.120194741,-0.375779957,-0.000948945,0.000585916,0.000521357,1.196033120,0.062085822,9.705964088
1784246742.921912,0.005218359,-0.120192893,-0.375783622,-0.000195861,0.000887589,0.000348000,1.190011382,0.048108421,9.729183197
1784246742.923902,0.005222448,-0.120189041,-0.375789165,0.000426872,0.001128651,-0.000445970,1.187282801,0.045423355,9.733645439
1784246742.925898,0.005230827,-0.120184772,-0.375785381,0.001115361,0.001388737,-0.000536125,1.198899269,0.041639313,9.740805626
1784246742.927879,0.005240925,-0.120187484,-0.375779301,0.002116679,0.001136299,0.000136653,1.179996967,0.037785538,9.749729156
1784246742.929881,0.005241409,-0.120191060,-0.375782341,0.002280582,0.000402959,0.000225666,1.173403978,0.049493324,9.753384590
1784246742.931879,0.005232958,-0.120193928,-0.375786930,0.001099272,-0.000149703,-0.000289317,1.168834567,0.039985023,9.712521553
1784246742.933888,0.005226228,-0.120195828,-0.375787944,-0.000230671,-0.000440473,-0.000466029,1.158925533,0.037789036,9.724153519
1784246742.935886,0.005218621,-0.120191008,-0.375782192,-0.001069352,-0.000171927,0.000094090,1.176869392,0.036310561,9.710713387
1784246742.937887,0.005222034,-0.120186985,-0.375780016,-0.000971049,0.000429265,0.000631880,1.189060330,0.078396618,9.693059921
1784246742.939889,0.005227240,-0.120191142,-0.375782222,-0.000126549,0.000304792,0.000389936,1.170196056,0.042521998,9.731368065
1784246742.941903,0.005236029,-0.120194033,-0.375789493,0.000774511,-0.000252740,-0.000474434,1.150279284,0.030864060,9.768486977
1784246742.943908,0.005242039,-0.120194241,-0.375789255,0.001505775,-0.000390712,-0.000940039,1.157245040,0.046008870,9.705376625
1784246742.945895,0.005239069,-0.120195769,-0.375788361,0.001314147,-0.000451399,-0.000630291,1.147333384,0.044197243,9.725976944
1784246742.947910,0.005235936,-0.120194800,-0.375790000,0.000542681,-0.000416466,-0.000459361,1.182946682,0.058830649,9.746280670
1784246742.949901,0.005235787,-0.120190516,-0.375785023,0.000201893,0.000055027,-0.000079279,1.168051958,0.050223313,9.723346710
1784246742.951963,0.005238564,-0.120188631,-0.375775844,0.000476911,0.000442765,0.000866602,1.168361902,0.076986514,9.739657402
1784246742.953896,0.005237918,-0.120187491,-0.375773668,0.000621116,0.000510950,0.001373866,1.190681577,0.066465892,9.729747772
1784246742.955894,0.005233468,-0.120187305,-0.375777990,0.000022098,0.000483309,0.000911469,1.154886365,0.039861184,9.755098343
1784246742.957900,0.005231049,-0.120186836,-0.375783205,-0.000594487,0.000414107,0.000086659,1.178365827,0.049636759,9.724249840
1784246742.959908,0.005234761,-0.120184310,-0.375788003,-0.000427145,0.000501704,-0.000620769,1.164362907,0.041380037,9.713421822
1784246742.961907,0.005241079,-0.120182179,-0.375785977,0.000364063,0.000681749,-0.000719219,1.162784576,0.059728105,9.719367027
1784246742.963918,0.005245037,-0.120182917,-0.375784248,0.001009385,0.000593521,-0.000358809,1.168478489,0.048422541,9.723783493
1784246742.965910,0.005241418,-0.120180391,-0.375784725,0.000774814,0.000555398,-0.000187487,1.209541082,0.104735747,9.732702255
1784246742.967910,0.005242918,-0.120174922,-0.375788748,0.000392332,0.000946102,-0.000421722,1.209422231,0.058103897,9.737782478
1784246742.969913,0.005246121,-0.120170847,-0.375791371,0.000549248,0.001335243,-0.000789655,1.137614131,0.057683077,9.737261772
1784246742.971914,0.005249684,-0.120172344,-0.375788480,0.000855694,0.001091913,-0.000609025,1.155604482,0.062243953,9.756587029
1784246742.973913,0.005252486,-0.120167546,-0.375783384,0.001114421,0.000965055,0.000046402,1.155787230,0.037444908,9.715182304
1784246742.975922,0.005254518,-0.120164588,-0.375784636,0.001180115,0.001163611,0.000254522,1.209514141,0.026912574,9.713372231
1784246742.977917,0.005253035,-0.120167382,-0.375784665,0.000897630,0.000791725,0.000095853,1.212118745,0.058507830,9.739132881
1784246742.979917,0.005253479,-0.120165959,-0.375782639,0.000600492,0.000484357,0.000214589,1.196375966,0.053949997,9.715328217
1784246742.981919,0.005254564,-0.120167740,-0.375786364,0.000513186,0.000440701,0.000031519,1.160385370,0.046368893,9.712103844
1784246742.983916,0.005255710,-0.120164685,-0.375789821,0.000451666,0.000519196,-0.000480316,1.172215700,0.061294291,9.734181404
1784246742.985928,0.005258420,-0.120161414,-0.375789464,0.000499324,0.000825710,-0.000580869,1.180675268,0.093796574,9.747847557
1784246742.987919,0.005260279,-0.120157346,-0.375787735,0.000624395,0.001117922,-0.000310609,1.181419611,0.079609297,9.725340843
1784246742.989924,0.005260350,-0.120156974,-0.375787020,0.000604605,0.001115780,-0.000078998,1.149990320,0.077825993,9.717677116
1784246742.991927,0.005259571,-0.120156944,-0.375787467,0.000296697,0.000704068,-0.000021334,1.198347807,0.067886926,9.705107689
1784246742.993926,0.005258614,-0.120158240,-0.375780821,0.000052141,0.000293817,0.000435219,1.172914743,0.042290729,9.695951462
1784246742.995933,0.005258148,-0.120156065,-0.375782907,-0.000050859,0.000228908,0.000642872,1.150774956,0.067603588,9.704610825
1784246742.997935,0.005255730,-0.120152138,-0.375785738,-0.000301464,0.000529375,0.000163991,1.160421729,0.049898528,9.719750404
1784246742.999930,0.005252926,-0.120151468,-0.375785679,-0.000593478,0.000694448,-0.000022876,1.161962986,0.067631207,9.743627548
1784246743.002003,0.005252568,-0.120149642,-0.375785798,-0.000645444,0.000667979,0.000002897,1.137538671,0.049791470,9.713001251
1784246743.003957,0.005251413,-0.120146610,-0.375783682,-0.000555294,0.000808535,0.000149129,1.164014935,0.050691221,9.727828026
1784246743.005941,0.005245234,-0.120142065,-0.375779539,-0.000867968,0.001110896,0.000599155,1.159583926,0.055244233,9.725611687
1784246743.007944,0.005238952,-0.120142713,-0.375777483,-0.001442070,0.001082687,0.000961163,1.203318000,0.035774227,9.738530159
1784246743.009943,0.005237909,-0.120143592,-0.375780970,-0.001555697,0.000684300,0.000663655,1.151628017,0.063595429,9.699654579
1784246743.011941,0.005236540,-0.120139405,-0.375782609,-0.001345390,0.000680678,0.000160157,1.146924019,0.083724715,9.712780952
1784246743.013948,0.005232112,-0.120141037,-0.375786990,-0.001427713,0.000626803,-0.000243399,1.187902093,0.097323254,9.742945671
1784246743.015946,0.005231585,-0.120139949,-0.375793338,-0.001632554,0.000501003,-0.000844979,1.163408279,0.076503217,9.753548622
1784246743.017962,0.005234044,-0.120143786,-0.375797182,-0.001313231,0.000260424,-0.001301361,1.180209279,0.054862116,9.742217064
1784246743.019952,0.005235170,-0.120146878,-0.375794500,-0.000724310,-0.000282203,-0.001057653,1.167035818,0.041192919,9.734943390
1784246743.021953,0.005237581,-0.120141454,-0.375788271,-0.000145827,-0.000089234,-0.000208682,1.140796781,0.059593655,9.714860916
1784246743.023951,0.005237106,-0.120140053,-0.375783086,0.000188076,0.000357165,0.000591867,1.168136120,0.054941405,9.689751625
1784246743.025961,0.005226213,-0.120144971,-0.375782520,-0.000550941,0.000082640,0.000899379,1.147231340,0.036095787,9.731305122
1784246743.027951,0.005218895,-0.120150082,-0.375781208,-0.001581844,-0.000560800,0.000921576,1.143004775,0.056851704,9.718432426
1784246743.029959,0.005227201,-0.120155379,-0.375780314,-0.001067769,-0.001114402,0.000812920,1.156977057,0.063246638,9.739110947
1784246743.031959,0.005237149,-0.120154031,-0.375779867,0.000432219,-0.001150630,0.000539029,1.158419490,0.069663003,9.716288567
1784246743.033962,0.005240081,-0.120151564,-0.375780374,0.001151062,-0.000650681,0.000287686,1.162872434,0.066905022,9.718068123
1784246743.035964,0.005236739,-0.120149963,-0.375781417,0.000789625,-0.000204933,0.000103632,1.174401283,0.055133991,9.714417458
1784246743.037961,0.005237732,-0.120145574,-0.375785708,0.000365536,0.000248957,-0.000264658,1.172822118,0.073475696,9.721258163
1784246743.039966,0.005234957,-0.120141119,-0.375789881,0.000077337,0.000778707,-0.000748433,1.175380468,0.063468412,9.737784386
1784246743.041970,0.005229417,-0.120143458,-0.375787050,-0.000572887,0.000698072,-0.000562603,1.176400185,0.070500650,9.692100525
1784246743.043969,0.005230814,-0.120148651,-0.375786752,-0.000728810,-0.000013728,-0.000159584,1.197514534,0.075294368,9.736087799
1784246743.045973,0.005231917,-0.120149665,-0.375792533,-0.000495616,-0.000370139,-0.000496348,1.174498320,0.064410806,9.732858658
1784246743.047967,0.005229946,-0.120147914,-0.375794798,-0.000573431,-0.000158246,-0.000883858,1.185126662,0.051815771,9.720682144
1784246743.049976,0.005230930,-0.120150946,-0.375797451,-0.000524265,-0.000204233,-0.000968533,1.162842035,0.028669953,9.739342690
1784246743.051972,0.005235280,-0.120147608,-0.375802159,-0.000053243,-0.000169102,-0.001245766,1.160132170,0.027754471,9.746955872
1784246743.053976,0.005238913,-0.120140314,-0.375805795,0.000460425,0.000557174,-0.001533811,1.163318515,0.028883604,9.708409309
1784246743.055979,0.005236867,-0.120138772,-0.375807703,0.000453227,0.000980936,-0.001510169,1.157614589,0.040109672,9.715201378
1784246743.057976,0.005229166,-0.120133318,-0.375804484,-0.000259822,0.001167849,-0.000935142,1.165664554,0.075359523,9.721263885
1784246743.059981,0.005230317,-0.120133467,-0.375806063,-0.000617530,0.001212274,-0.000516496,1.180654049,0.091197848,9.735277176
1784246743.061986,0.005233642,-0.120133847,-0.375808567,-0.000393177,0.000846193,-0.000664261,1.179439187,0.063982271,9.721203804
1784246743.063984,0.005229387,-0.120132916,-0.375807673,-0.000572986,0.000653877,-0.000555416,1.150485516,0.045866176,9.737648010
1784246743.065982,0.005226528,-0.120136134,-0.375805348,-0.000816786,0.000188905,-0.000135128,1.158223391,0.015530271,9.705180168
1784246743.067982,0.005230376,-0.120140538,-0.375807464,-0.000473339,-0.000513763,-0.000100929,1.163910031,0.040947367,9.712073326
1784246743.069987,0.005230943,-0.120139599,-0.375810772,-0.000091148,-0.000610656,-0.000470634,1.161489129,0.063386276,9.711318970
1784246743.071986,0.005230902,-0.120139979,-0.375809699,-0.000082184,-0.000463895,-0.000486452,1.210383534,0.061838247,9.714942932
1784246743.073991,0.005232126,-0.120136745,-0.375807226,0.000015586,-0.000198296,-0.000117858,1.209439993,0.059053876,9.730167389
1784246743.075989,0.005236943,-0.120135084,-0.375803620,0.000415249,0.000296859,0.000279224,1.162725687,0.055210333,9.724719048
1784246743.077994,0.005236947,-0.120135270,-0.375800282,0.000631374,0.000423951,0.000639280,1.142592549,0.063630544,9.774068832
1784246743.079994,0.005234318,-0.120133802,-0.375799358,0.000317696,0.000396398,0.000773797,1.132380724,0.032295201,9.725438118
1784246743.082000,0.005233597,-0.120128617,-0.375796080,0.000036895,0.000556882,0.000872714,1.191728354,0.040581372,9.713444710
1784246743.083995,0.005233431,-0.120129064,-0.375793576,0.000011547,0.000545313,0.001034602,1.183144212,0.074979506,9.743246078
1784246743.085999,0.005235901,-0.120130271,-0.375790864,0.000135311,0.000301694,0.001097296,1.187746286,0.046345331,9.729168892
1784246743.087998,0.005237892,-0.120130531,-0.375786155,0.000388078,0.000139691,0.001269675,1.192472219,0.028011072,9.715604782
1784246743.090003,0.005238650,-0.120133296,-0.375787020,0.000499099,-0.000102093,0.001159772,1.170538664,0.034382999,9.741180420
1784246743.092000,0.005241711,-0.120135166,-0.375788361,0.000633848,-0.000402260,0.000663911,1.171193361,0.049782801,9.716620445
1784246743.094007,0.005243482,-0.120136105,-0.375790745,0.000787874,-0.000494872,0.000195163,1.158327460,0.062857732,9.728349686
1784246743.096016,0.005240418,-0.120137468,-0.375795275,0.000412330,-0.000556084,-0.000309522,1.173832059,0.046488576,9.734087944
1784246743.098015,0.005234011,-0.120140471,-0.375794590,-0.000387762,-0.000740652,-0.000408019,1.169238210,-0.000803652,9.714053154
1784246743.100040,0.005230444,-0.120143510,-0.375793010,-0.000936240,-0.000950021,-0.000064944,1.163460016,0.040943582,9.713418961
1784246743.102026,0.005226867,-0.120138302,-0.375795722,-0.001130862,-0.000599227,-0.000064613,1.162706614,0.090217464,9.716423988
1784246743.104050,0.005224211,-0.120135486,-0.375796586,-0.001231761,0.000052972,-0.000242616,1.188048363,0.072234854,9.742336273
1784246743.106028,0.005224871,-0.120137081,-0.375791609,-0.001056640,0.000216435,0.000113769,1.173870921,0.047200453,9.696881294
1784246743.108019,0.005231183,-0.120139651,-0.375793904,-0.000335956,-0.000029867,0.000209832,1.195957899,0.019444272,9.716898918
1784246743.110026,0.005233614,-0.120142676,-0.375799656,0.000279087,-0.000403719,-0.000461251,1.174171805,0.037517246,9.734927177
1784246743.112033,0.005226709,-0.120143458,-0.375796199,-0.000013922,-0.000545071,-0.000463177,1.188135982,0.040605113,9.716579437
1784246743.114029,0.005223045,-0.120141007,-0.375789016,-0.000532845,-0.000272412,0.000457669,1.195754290,0.040837690,9.733175278
1784246743.116027,0.005224764,-0.120141536,-0.375790417,-0.000438882,0.000013559,0.000732593,1.183673739,0.042479891,9.712999344
1784246743.118037,0.005232632,-0.120144390,-0.375790149,0.000350189,-0.000142438,0.000372382,1.192866445,0.061112490,9.722542763
1784246743.120033,0.005228752,-0.120151833,-0.375777692,0.000627514,-0.000798937,0.001099324,1.184003592,0.069398880,9.707344055
1784246743.122032,0.005228348,-0.120159470,-0.375773817,0.000158463,-0.001397941,0.001952086,1.177135944,0.021086855,9.708821297
1784246743.124034,0.005232535,-0.120160460,-0.375773966,0.000257561,-0.001401437,0.001655785,1.191530824,0.024432527,9.716478348
1784246743.126044,0.005232651,-0.120163582,-0.375772506,0.000621644,-0.001207923,0.001242919,1.165705562,0.041740794,9.723288536
1784246743.128040,0.005228879,-0.120170601,-0.375771761,0.000357785,-0.001476002,0.001065393,1.172263026,0.064099707,9.717611313
1784246743.130046,0.005221130,-0.120172583,-0.375766635,-0.000468185,-0.001684453,0.001259920,1.170754433,0.049864858,9.705861092
1784246743.132095,0.005217098,-0.120172270,-0.375764161,-0.001136669,-0.001296386,0.001530895,1.166172147,0.044308349,9.739445686
1784246743.134051,0.005212393,-0.120176032,-0.375766426,-0.001479123,-0.001138027,0.001204332,1.157870531,0.063609950,9.749425888
1784246743.136045,0.005215441,-0.120171942,-0.375771672,-0.001346762,-0.000951241,0.000389781,1.187001467,0.059312724,9.734181404
1784246743.138050,0.005218636,-0.120172627,-0.375772536,-0.000705705,-0.000605272,-0.000165472,1.182074547,0.060662616,9.742257118
1784246743.140053,0.005215200,-0.120176509,-0.375769824,-0.000515570,-0.000749777,0.000005040,1.174138665,0.069982864,9.705994606
1784246743.142051,0.005212490,-0.120180570,-0.375772655,-0.000902743,-0.000992929,0.000055446,1.181106091,0.052414041,9.706785202
1784246743.144046,0.005212432,-0.120185450,-0.375775784,-0.001003783,-0.001241467,-0.000323136,1.149474025,0.036467314,9.738035202
1784246743.146057,0.005210260,-0.120181829,-0.375770092,-0.000768420,-0.001159186,-0.000055417,1.162705660,0.053024583,9.717082024
1784246743.148052,0.005204352,-0.120182559,-0.375760198,-0.000885327,-0.000813794,0.001061389,1.198220491,0.060801849,9.756619453
1784246743.150059,0.005202360,-0.120182395,-0.375762403,-0.001114646,-0.000629413,0.001350864,1.226894021,0.055230066,9.732401848
1784246743.152057,0.005199602,-0.120184518,-0.375764996,-0.001206131,-0.000382601,0.000696003,1.189447641,0.073854029,9.701102257
1784246743.154064,0.005193724,-0.120187551,-0.375762135,-0.001492980,-0.000418742,0.000596479,1.151712179,0.033963833,9.707983971
1784246743.156063,0.005184141,-0.120186329,-0.375766456,-0.002010682,-0.000585291,0.000450498,1.130190492,0.035177056,9.702141762
1784246743.158064,0.005184761,-0.120189369,-0.375768393,-0.001989167,-0.000708594,-0.000034313,1.182428360,0.015429301,9.738827705
1784246743.160063,0.005183846,-0.120190211,-0.375775039,-0.001538873,-0.000783778,-0.000603343,1.198769927,0.067671329,9.734695435
1784246743.162067,0.005178707,-0.120187275,-0.375778824,-0.001657579,-0.000365311,-0.001088155,1.167275906,0.098915711,9.745177269
1784246743.164077,0.005174965,-0.120182127,-0.375775069,-0.001849784,0.000350233,-0.000717144,1.171480536,0.074337997,9.728435516
1784246743.166070,0.005176106,-0.120182738,-0.375767380,-0.001470359,0.000573484,0.000274372,1.177033782,0.051792074,9.738607407
1784246743.168073,0.005178288,-0.120179467,-0.375766098,-0.000815129,0.000607369,0.000779943,1.188600659,0.043156762,9.734977722
1784246743.170077,0.005183627,-0.120180719,-0.375767022,-0.000083798,0.000579080,0.000534594,1.174078226,0.066262461,9.725248337
1784246743.172075,0.005186014,-0.120180160,-0.375767261,0.000357230,0.000416021,0.000264660,1.186181903,0.065614752,9.731532097
1784246743.174074,0.005187415,-0.120182194,-0.375766784,0.000424516,0.000245201,0.000193686,1.190846562,0.043147098,9.732289314
1784246743.176078,0.005185385,-0.120185584,-0.375768363,0.000344031,-0.000165388,0.000067975,1.178157806,0.030568391,9.696778297
1784246743.178077,0.005188170,-0.120184667,-0.375770032,0.000360251,-0.000266318,-0.000184848,1.184326768,0.023517288,9.732156754
1784246743.180081,0.005188304,-0.120187178,-0.375772268,0.000426825,-0.000304105,-0.000422895,1.176601768,0.051118109,9.708117485
1784246743.182080,0.005187901,-0.120190114,-0.375770569,0.000291583,-0.000547191,-0.000345078,1.169816971,0.048344880,9.732301712
1784246743.184083,0.005187477,-0.120186284,-0.375769913,0.000179183,-0.000293364,-0.000087441,1.184061527,0.075530440,9.727109909
1784246743.186083,0.005185165,-0.120183498,-0.375772417,-0.000151108,0.000273758,-0.000150745,1.191157579,0.068703137,9.729314804
1784246743.188082,0.005183178,-0.120183915,-0.375770360,-0.000485498,0.000399259,-0.000090302,1.192318439,0.053039052,9.724732399
1784246743.190151,0.005181372,-0.120183840,-0.375765353,-0.000551815,0.000269796,0.000440179,1.158126712,0.046683434,9.734970093
1784246743.192101,0.005178118,-0.120183930,-0.375764877,-0.000691086,0.000105022,0.000735834,1.189949155,0.041131824,9.702237129
1784246743.194119,0.005179093,-0.120181955,-0.375764817,-0.000645677,0.000111610,0.000591117,1.160842538,0.045619845,9.690581322
1784246743.196105,0.005186031,-0.120179288,-0.375758708,0.000148770,0.000358418,0.000777080,1.154918909,0.039712112,9.712954521
1784246743.198097,0.005194564,-0.120179325,-0.375754833,0.001268054,0.000405174,0.001111239,1.182532310,0.023543473,9.731707573
1784246743.200101,0.005191566,-0.120180734,-0.375757724,0.001304558,0.000198855,0.000828592,1.200093746,0.026645755,9.704843521
1784246743.202108,0.005185388,-0.120181173,-0.375760704,0.000337809,0.000079366,0.000278295,1.199898005,0.012943020,9.741967201
1784246743.204104,0.005186223,-0.120178208,-0.375755072,-0.000039019,0.000291455,0.000421151,1.178325653,0.044861812,9.702698708
1784246743.206105,0.005187102,-0.120176122,-0.375752062,0.000211305,0.000564191,0.000869697,1.177393794,0.042979717,9.717032433
1784246743.208106,0.005184021,-0.120176785,-0.375749797,0.000102143,0.000515249,0.000996045,1.189667821,0.055834442,9.714436531
1784246743.210103,0.005181260,-0.120177381,-0.375754595,-0.000339939,0.000288501,0.000599049,1.184434652,0.069253229,9.727069855
1784246743.212105,0.005179727,-0.120176502,-0.375755966,-0.000605390,0.000286250,0.000058113,1.171797276,0.063158661,9.724778175
1784246743.214115,0.005182287,-0.120175935,-0.375751495,-0.000365280,0.000366390,0.000242850,1.169850469,0.051445633,9.737254143
1784246743.216111,0.005183846,-0.120176338,-0.375753492,0.000061558,0.000296502,0.000304907,1.181336403,0.037714239,9.757351875
1784246743.218120,0.005178795,-0.120173395,-0.375763327,-0.000256541,0.000401901,-0.000552604,1.183927774,0.027564237,9.730837822
1784246743.220114,0.005173371,-0.120174602,-0.375759542,-0.000942122,0.000408812,-0.000727107,1.172902584,0.043005414,9.721510887
1784246743.222117,0.005177988,-0.120177001,-0.375751793,-0.000615874,0.000092205,0.000246450,1.164253354,0.034841496,9.751039505
1784246743.224113,0.005183725,-0.120175146,-0.375749052,0.000365777,0.000070525,0.000795556,1.162371516,0.064067192,9.740018845
1784246743.226156,0.005180959,-0.120174751,-0.375750363,0.000450400,0.000154846,0.000653575,1.188042879,0.070976831,9.730222702
1784246743.228131,0.005176207,-0.120174609,-0.375747561,-0.000194628,0.000097346,0.000638618,1.191425920,0.054305390,9.737293243
1784246743.230124,0.005170683,-0.120169751,-0.375740349,-0.000752456,0.000412737,0.001225282,1.172155380,0.056360360,9.735046387
1784246743.232127,0.005163592,-0.120167665,-0.375733495,-0.001266438,0.000785879,0.001942117,1.155853391,0.044450127,9.738092422
1784246743.234129,0.005155899,-0.120169863,-0.375733137,-0.001843919,0.000576687,0.002010027,1.161130309,0.070991464,9.713607788
1784246743.236129,0.005155690,-0.120175138,-0.375741482,-0.002014784,-0.000111846,0.000991851,1.181914449,0.082399420,9.710115433
1784246743.238127,0.005158691,-0.120171286,-0.375744700,-0.001446977,-0.000204926,-0.000071436,1.189875841,0.074902810,9.741908073
1784246743.240129,0.005163875,-0.120165147,-0.375743657,-0.000519730,0.000528150,-0.000263094,1.191773295,0.082984455,9.736131668
1784246743.242130,0.005166755,-0.120163083,-0.375742167,0.000082271,0.001024990,-0.000078106,1.187410355,0.055751894,9.730125427
1784246743.244131,0.005163370,-0.120161079,-0.375741601,-0.000060922,0.001104997,0.000090265,1.169302344,0.042562112,9.727333069
1784246743.246135,0.005163193,-0.120161913,-0.375743568,-0.000240932,0.000805442,-0.000005815,1.182507753,0.020919299,9.722723961
1784246743.248135,0.005165818,-0.120164804,-0.375737816,0.000075668,0.000256524,0.000229942,1.182484388,0.019518182,9.730784416
1784246743.250135,0.005168826,-0.120167375,-0.375737220,0.000486363,-0.000182184,0.000546173,1.223267317,0.013340031,9.707022667
1784246743.252137,0.005169336,-0.120172389,-0.375743359,0.000752515,-0.000388448,-0.000035209,1.185611725,0.054529574,9.716217041
1784246743.254140,0.005175354,-0.120170414,-0.375749379,0.001095481,-0.000231452,-0.000926138,1.189217567,0.056637540,9.728339195
1784246743.256145,0.005181320,-0.120169133,-0.375749588,0.001546018,0.000130418,-0.001194384,1.184671760,0.053393960,9.751626968
1784246743.258143,0.005178859,-0.120167688,-0.375747859,0.001366186,0.000359862,-0.000795087,1.180711985,0.057309203,9.712195396
1784246743.260145,0.005176079,-0.120168656,-0.375743777,0.000689397,0.000296693,-0.000145317,1.143003702,0.056438718,9.713499069
1784246743.262147,0.005170637,-0.120164163,-0.375742912,0.000034906,0.000360632,0.000292286,1.160144687,0.065443009,9.739575386
1784246743.264152,0.005168697,-0.120154917,-0.375749141,-0.000468942,0.001095789,-0.000089152,1.146927118,0.047780327,9.726896286
1784246743.266159,0.005171715,-0.120151192,-0.375752509,-0.000330265,0.001502111,-0.000727979,1.144606948,0.041124631,9.721920967
1784246743.268154,0.005179031,-0.120152980,-0.375754267,0.000431137,0.001051587,-0.000961793,1.146430135,0.042540908,9.708480835
1784246743.270158,0.005179947,-0.120154500,-0.375751913,0.000874387,0.000542048,-0.000718120,1.168286443,0.068284839,9.703287125
1784246743.272165,0.005177580,-0.120157845,-0.375751644,0.000490506,0.000069152,-0.000325675,1.171386123,0.065083437,9.706856728
1784246743.274160,0.005181283,-0.120160662,-0.375752479,0.000373157,-0.000365654,-0.000274702,1.189499974,0.077914290,9.697092056
1784246743.276166,0.005186275,-0.120163761,-0.375754565,0.000759032,-0.000614164,-0.000453061,1.175017834,0.070231736,9.732446671
1784246743.278164,0.005183608,-0.120162860,-0.375751168,0.000644342,-0.000540937,-0.000257274,1.181518555,0.050905425,9.729191780
1784246743.280167,0.005178764,-0.120161958,-0.375747651,0.000019665,-0.000268533,0.000337012,1.159941912,0.049252819,9.748438835
1784246743.282168,0.005172000,-0.120160110,-0.375751853,-0.000777979,-0.000081517,0.000299987,1.153971910,0.037305750,9.738044739
1784246743.284165,0.005173587,-0.120159194,-0.375754744,-0.000978216,0.000053604,-0.000213785,1.190124750,0.057108980,9.723411560
1784246743.286177,0.005183399,-0.120159984,-0.375749946,0.000031667,0.000118699,-0.000117065,1.145738363,0.061601695,9.738639832
1784246743.288172,0.005182678,-0.120154113,-0.375742376,0.000697006,0.000504436,0.000677240,1.165370822,0.089556940,9.741530418
1784246743.290184,0.005179379,-0.120149717,-0.375742257,0.000299257,0.001066272,0.001039424,1.174157500,0.073372610,9.733362198
1784246743.292186,0.005182717,-0.120151967,-0.375742078,0.000167627,0.000937093,0.000777020,1.194685936,0.064120300,9.737360001
1784246743.294183,0.005182075,-0.120157756,-0.375738293,0.000280715,0.000155326,0.000817035,1.182123423,0.062264048,9.705951691
1784246743.296196,0.005182112,-0.120164797,-0.375735849,0.000179142,-0.000665296,0.001025013,1.148458362,0.063406743,9.731929779
1784246743.298189,0.005185687,-0.120167382,-0.375735551,0.000361249,-0.001048222,0.000907349,1.141021967,0.042828918,9.740757942
1784246743.300200,0.005183440,-0.120163493,-0.375737548,0.000338910,-0.000675765,0.000536187,1.156395197,0.050449111,9.712575912
1784246743.302218,0.005180487,-0.120155141,-0.375739992,-0.000068719,0.000158647,0.000123900,1.171247482,0.092259005,9.728998184
1784246743.304188,0.005185823,-0.120157793,-0.375736713,0.000189369,0.000326661,0.000128865,1.155512214,0.091405340,9.751394272
1784246743.306195,0.005197130,-0.120160818,-0.375736773,0.001128940,-0.000261457,0.000201925,1.178614616,0.071459666,9.742321968
1784246743.308196,0.005197130,-0.120160818,-0.375736773,0.002029452,-0.000834557,-0.000016092,1.178614616,0.071459666,9.742321968
1784246743.310195,0.005194678,-0.120158494,-0.375731677,0.001821729,-0.000777307,0.000241550,1.176733494,0.063505217,9.730164528
1784246743.312193,0.005198628,-0.120153911,-0.375727534,0.001260578,-0.000103313,0.000775095,1.170639873,0.043288171,9.748858452
