time_sec,roll_rad,pitch_rad,yaw_rad,gyro_x,gyro_y,gyro_z,acc_x,acc_y,acc_z
1784246549.608424,0.009707615,-0.108965851,-2.358272314,0.000087316,0.000803394,-0.000259764,1.036468267,0.116867334,9.724542618
1784246549.610160,0.009707615,-0.108965851,-2.358272314,0.000119513,0.000838647,0.000249721,1.064565420,0.103402980,9.740176201
1784246549.612182,0.009707968,-0.108965822,-2.358272314,-0.000018857,0.000955847,0.000657233,1.056670427,0.119124673,9.748788834
1784246549.614171,0.009707968,-0.108965822,-2.358272314,-0.000322429,0.000648426,0.000789124,1.070429206,0.106406748,9.748270988
1784246549.616180,0.009707968,-0.108965822,-2.358272314,-0.000636616,0.000138707,0.000684895,1.051876783,0.094471179,9.758936882
1784246549.618200,0.009708180,-0.108965397,-2.358272314,-0.000648047,-0.000216188,0.000483040,1.055148959,0.103978023,9.739274025
1784246549.620179,0.009708180,-0.108965397,-2.358272314,-0.000254192,0.000039815,0.000844947,1.035844803,0.103742316,9.744185448
1784246549.622162,0.009708419,-0.108963966,-2.358272314,0.000141181,0.000242588,0.001199114,1.061668038,0.124008112,9.746133804
1784246549.624180,0.009708419,-0.108963966,-2.358272314,0.000318895,0.000019268,0.000516185,1.048928142,0.107782111,9.719566345
1784246549.626146,0.009708419,-0.108963966,-2.358272314,0.000123016,-0.000139688,-0.000017922,1.056863070,0.096428722,9.726674080
1784246549.628135,0.009708299,-0.108962946,-2.358272076,-0.000530279,-0.000541178,0.000114087,1.053976536,0.081149876,9.738229752
1784246549.630130,0.009708299,-0.108962946,-2.358272076,-0.001170255,-0.000905325,0.000444267,1.072621822,0.101517178,9.738827705
1784246549.632189,0.009709320,-0.108964793,-2.358272314,-0.000834959,-0.000638827,0.000616829,1.081628919,0.104096323,9.737955093
1784246549.634214,0.009709320,-0.108964793,-2.358272314,-0.000079450,-0.000087337,0.000275995,1.083015800,0.107640520,9.741117477
1784246549.636137,0.009709320,-0.108964793,-2.358272314,-0.000145781,0.000158411,0.000134162,1.048485756,0.108648807,9.724503517
1784246549.638136,0.009711094,-0.108963616,-2.358272314,-0.000484889,0.000266693,0.000336863,1.089793563,0.110766314,9.730382919
1784246549.640133,0.009711094,-0.108963616,-2.358272314,-0.000546606,0.000792671,0.000631729,1.069465399,0.099409848,9.725808144
1784246549.642202,0.009711094,-0.108965553,-2.358272076,-0.000700777,0.001070130,0.000665255,1.078958035,0.104702793,9.720472336
1784246549.644198,0.009711094,-0.108965553,-2.358272076,-0.000947138,0.000519505,0.000396442,1.061074376,0.110305108,9.720938683
1784246549.646163,0.009711094,-0.108965553,-2.358272076,-0.000933369,-0.000353122,0.000432969,1.072059631,0.091712303,9.732486725
1784246549.648176,0.009710867,-0.108965591,-2.358272076,-0.000794076,-0.000755782,0.000388874,1.043676138,0.083464682,9.746304512
1784246549.650152,0.009710867,-0.108965591,-2.358272076,-0.000957856,-0.000541061,0.000160591,1.025677204,0.079647101,9.748505592
1784246549.652185,0.009709913,-0.108963333,-2.358272076,-0.001111596,-0.000169826,0.000248157,1.055755019,0.118183032,9.756850243
1784246549.654153,0.009709913,-0.108963333,-2.358272076,-0.000446618,0.000126133,0.000656309,1.042999387,0.101022966,9.735656738
1784246549.656149,0.009709913,-0.108963333,-2.358272076,0.000237768,0.000377350,0.000665330,1.059507608,0.093182199,9.737415314
1784246549.658162,0.009709854,-0.108962141,-2.358272076,0.000048068,0.000389559,0.000381028,1.057254910,0.130321145,9.748412132
1784246549.660153,0.009709854,-0.108962141,-2.358272076,-0.000636862,0.000060704,0.000441944,1.068990827,0.099212088,9.754498482
1784246549.662149,0.009709343,-0.108962327,-2.358272076,-0.001116729,-0.000123965,0.000306138,1.047818422,0.129523709,9.751536369
1784246549.664150,0.009709343,-0.108962327,-2.358272076,-0.001069856,-0.000546108,-0.000551943,1.027832150,0.108401716,9.733448982
1784246549.666142,0.009709343,-0.108962327,-2.358272076,-0.000785523,-0.001161322,-0.001340830,1.051997304,0.103122368,9.739265442
1784246549.668161,0.009710409,-0.108961336,-2.358272076,-0.000230141,-0.001023597,-0.001207687,1.056636333,0.078427613,9.738214493
1784246549.670183,0.009710409,-0.108961336,-2.358272076,0.000740534,-0.000214936,-0.000203257,1.087018967,0.104881920,9.743793488
1784246549.672154,0.009712100,-0.108963184,-2.358272076,0.001211720,0.000304380,0.000581851,1.070221305,0.088555068,9.738741875
1784246549.674176,0.009712100,-0.108963184,-2.358272076,0.000594024,0.000248501,0.000265309,1.080194592,0.096526861,9.733869553
1784246549.676161,0.009712100,-0.108963184,-2.358272076,0.000052822,0.000066665,-0.000273100,1.063206673,0.101698332,9.730299950
1784246549.678203,0.009712208,-0.108962454,-2.358272076,-0.000072004,-0.000195696,-0.000503155,1.056680202,0.117580861,9.713809013
1784246549.680171,0.009712208,-0.108962454,-2.358272076,-0.000327903,-0.000670818,-0.001033628,1.047107697,0.105981462,9.724035263
1784246549.682163,0.009712324,-0.108961694,-2.358272076,-0.000461123,-0.001160178,-0.001637408,1.070859790,0.103421062,9.726283073
1784246549.684163,0.009712324,-0.108961694,-2.358272076,-0.000516537,-0.000890580,-0.001514094,1.080488682,0.083952740,9.737376213
1784246549.686160,0.009712324,-0.108961694,-2.358272076,-0.000807615,-0.000352812,-0.000881203,1.054900289,0.082561746,9.727031708
1784246549.688164,0.009712324,-0.108960971,-2.358272076,-0.001007863,-0.000607271,-0.000730612,1.034284711,0.084643498,9.723438263
1784246549.690162,0.009712324,-0.108960971,-2.358272076,-0.001424063,-0.000752511,-0.000819683,1.059344292,0.116107091,9.727251053
1784246549.692168,0.009713660,-0.108960845,-2.358272076,-0.001953584,-0.000063579,-0.000934658,1.071119189,0.125326633,9.732701302
1784246549.694197,0.009713660,-0.108960845,-2.358272076,-0.001956225,0.000775490,-0.000907618,1.051852107,0.092250466,9.756232262
1784246549.696195,0.009713660,-0.108960845,-2.358272076,-0.001567509,0.000804344,-0.000529507,1.061961532,0.109807491,9.726316452
1784246549.698174,0.009715012,-0.108959816,-2.358272076,-0.000820357,0.000227272,-0.000401067,1.071804047,0.108238570,9.740215302
1784246549.700191,0.009715012,-0.108959816,-2.358272076,-0.000107499,0.000240034,-0.000792217,1.069070697,0.104705267,9.737947464
1784246549.702182,0.009715455,-0.108960479,-2.358272076,0.000272853,0.000685355,-0.001490150,1.058734894,0.103496797,9.737482071
1784246549.704200,0.009715455,-0.108960479,-2.358272076,0.000238990,0.000723915,-0.001802103,1.038041711,0.100507878,9.754029274
1784246549.706199,0.009715455,-0.108960479,-2.358272076,-0.000365324,0.000772934,-0.001488607,1.050138116,0.098586246,9.750443459
1784246549.708193,0.009715739,-0.108959310,-2.358272076,-0.001385639,0.000758467,-0.000864291,1.072107673,0.096954286,9.751350403
1784246549.710181,0.009715739,-0.108959310,-2.358272076,-0.001914271,0.000494731,-0.000591070,1.061911702,0.106576391,9.739746094
1784246549.712195,0.009715430,-0.108958706,-2.358272076,-0.001500286,0.000513186,-0.000913092,1.084553719,0.086544268,9.743673325
1784246549.714185,0.009715430,-0.108958706,-2.358272076,-0.001036401,0.000576333,-0.000731954,1.074027896,0.107243933,9.750073433
1784246549.716190,0.009715430,-0.108958706,-2.358272076,-0.000866816,0.000259739,0.000119787,1.078364968,0.094249636,9.742372513
1784246549.718188,0.009716548,-0.108958647,-2.358272076,-0.000704428,0.000245560,0.000597125,1.061164379,0.082747988,9.752593040
1784246549.720199,0.009716548,-0.108958647,-2.358272076,-0.000489495,0.000775161,0.000785556,1.056315184,0.089978598,9.752635956
1784246549.722191,0.009716219,-0.108958147,-2.358272076,-0.000296586,0.001126019,0.000688015,1.046548009,0.097005747,9.727115631
1784246549.724193,0.009716219,-0.108958147,-2.358272076,-0.000246013,0.001278685,-0.000051675,1.062680006,0.131383374,9.715247154
1784246549.726195,0.009716219,-0.108958147,-2.358272076,-0.000045418,0.001495799,-0.000535527,1.036780477,0.107679799,9.755867958
1784246549.728202,0.009717002,-0.108957060,-2.358272076,0.000224490,0.001645546,0.000267458,1.051715970,0.079018310,9.727005005
1784246549.730194,0.009717002,-0.108957060,-2.358272076,0.000001890,0.001452948,0.000886181,1.073409677,0.093346998,9.752224922
1784246549.732205,0.009717833,-0.108958140,-2.358272076,-0.000665882,0.001214637,0.000595441,1.067317128,0.109106123,9.752320290
1784246549.734213,0.009717833,-0.108958140,-2.358272076,-0.001189480,0.000951433,0.000383081,1.061363339,0.097286247,9.723993301
1784246549.736204,0.009717833,-0.108958140,-2.358272076,-0.001286759,0.000323541,0.000406919,1.059615135,0.100514911,9.714149475
1784246549.738219,0.009741544,-0.108958006,-2.358290195,-0.001461962,-0.000022107,-0.000002742,1.061958909,0.100094207,9.769145966
1784246549.740217,0.009741544,-0.108958006,-2.358290195,-0.001705001,0.000503430,-0.000640269,1.055580974,0.067465469,9.769525528
1784246549.742218,0.009740375,-0.108957127,-2.358290195,-0.001067626,0.001072204,-0.000566834,1.072521091,0.092211753,9.724420547
1784246549.744214,0.009740375,-0.108957127,-2.358290195,-0.000105600,0.000811893,0.000025248,1.054223180,0.101333559,9.734772682
1784246549.746210,0.009740375,-0.108957127,-2.358290195,-0.000170452,0.000036764,0.000415992,1.043318391,0.127046049,9.729995728
1784246549.748215,0.009742330,-0.108955637,-2.358290195,-0.000359684,-0.000414620,0.000087289,1.053545833,0.082918867,9.742276192
1784246549.750214,0.009742330,-0.108955637,-2.358290195,-0.000384727,-0.000418576,-0.000493163,1.022358775,0.066127673,9.765451431
1784246549.752241,0.009741182,-0.108953714,-2.358290195,-0.000456409,-0.000296326,-0.000680730,1.046208024,0.067980476,9.713929176
1784246549.754227,0.009741182,-0.108953714,-2.358290195,-0.000145638,0.000054933,-0.000183520,1.058213711,0.097663149,9.739684105
1784246549.756260,0.009741182,-0.108953714,-2.358290195,0.000007614,0.000274505,0.000358892,1.034352422,0.091257989,9.738275528
1784246549.758230,0.009741279,-0.108952947,-2.358290195,-0.000155613,0.000007990,0.000336029,1.017560005,0.111345731,9.715970993
1784246549.760229,0.009741279,-0.108952947,-2.358290195,0.000067318,-0.000386623,0.000120230,1.042196274,0.108668879,9.733015060
1784246549.762222,0.009740978,-0.108952150,-2.358290195,0.000919336,-0.000499878,-0.000305689,1.049204707,0.094664663,9.736518860
1784246549.764239,0.009740978,-0.108952150,-2.358290195,0.001290160,-0.000256367,-0.000506235,1.078732014,0.124704629,9.743464470
1784246549.766233,0.009740978,-0.108952150,-2.358290195,0.000964894,0.000140561,-0.000182707,1.063469172,0.122819282,9.721020699
1784246549.768233,0.009742733,-0.108952284,-2.358290195,0.000982827,0.000676524,0.000451899,1.059156775,0.100847811,9.731187820
1784246549.770237,0.009742733,-0.108952284,-2.358290195,0.000992294,0.000777802,0.001111157,1.048539162,0.076748781,9.736851692
1784246549.772245,0.009741879,-0.108951613,-2.358290195,0.000402422,0.000770124,0.001247032,1.082596183,0.073125243,9.744033813
1784246549.774255,0.009741879,-0.108951613,-2.358290195,-0.000310778,0.001289896,0.001294337,1.072381020,0.082191266,9.747669220
1784246549.776265,0.009741879,-0.108951613,-2.358290195,-0.000418456,0.001304008,0.001345474,1.047873735,0.095612809,9.731591225
1784246549.778259,0.009742028,-0.108951516,-2.358290195,0.000000662,0.000411732,0.000927193,1.060319901,0.085202791,9.723915100
1784246549.780252,0.009742028,-0.108951516,-2.358290195,0.000198659,-0.000181689,0.000387951,1.041850090,0.080809452,9.744940758
1784246549.782238,0.009741212,-0.108949639,-2.358290195,-0.000177572,-0.000161053,0.000430059,1.049990535,0.086478569,9.752159119
1784246549.784250,0.009741212,-0.108949639,-2.358290195,-0.000669295,-0.000320455,-0.000064086,1.075263143,0.097838581,9.747324944
1784246549.786251,0.009741212,-0.108949639,-2.358290195,-0.000594386,-0.000513245,-0.000423804,1.052412868,0.100422487,9.740145683
1784246549.788248,0.009741395,-0.108949400,-2.358290195,0.000039022,-0.000449143,0.000164639,1.057015657,0.107764475,9.707468033
1784246549.790248,0.009741395,-0.108949400,-2.358290195,0.000734685,-0.000564529,0.000195643,1.047980309,0.104559302,9.733443260
1784246549.792243,0.009741361,-0.108948283,-2.358289957,0.000898331,-0.000696449,-0.000179722,1.044488430,0.113075241,9.739321709
1784246549.794245,0.009741361,-0.108948283,-2.358289957,0.000655505,-0.000842312,-0.000508180,1.051666975,0.075793549,9.739539146
1784246549.796264,0.009741361,-0.108948283,-2.358289957,0.000747001,-0.001081113,-0.000152061,1.040187240,0.091599412,9.742767334
1784246549.798249,0.009741220,-0.108946919,-2.358289957,0.001502897,-0.000959288,0.000561407,1.052266717,0.090354301,9.770119667
1784246549.800252,0.009741220,-0.108946919,-2.358289957,0.002166046,-0.000634001,0.000468896,1.049161553,0.089460835,9.712276459
1784246549.802254,0.009741041,-0.108945712,-2.358289957,0.001858443,-0.000043754,-0.000049081,1.036185503,0.093967266,9.732018471
1784246549.804292,0.009741041,-0.108945712,-2.358289957,0.001650812,0.000224397,-0.000481452,1.069542170,0.105284199,9.718674660
1784246549.806308,0.009741041,-0.108945712,-2.358289957,0.001999407,-0.000161954,-0.000744722,1.070329189,0.097511105,9.739247322
1784246549.808283,0.009741331,-0.108945996,-2.358289480,0.001783678,-0.000192331,0.000038940,1.046112061,0.100760140,9.767041206
1784246549.810273,0.009741331,-0.108945996,-2.358289480,0.001137400,-0.000124171,0.001421886,1.013983965,0.077556774,9.748479843
1784246549.812284,0.009740810,-0.108944245,-2.358289480,0.000576050,-0.000266440,0.001597752,1.026340485,0.096733823,9.738752365
1784246549.814323,0.009740810,-0.108944245,-2.358289480,-0.000079041,0.000087866,0.000861541,1.031534076,0.117349923,9.728577614
1784246549.816286,0.009740810,-0.108944245,-2.358289480,-0.000389764,0.000721388,0.000453939,1.060395718,0.094311081,9.766117096
1784246549.818272,0.009741130,-0.108944006,-2.358289480,-0.000530123,0.000803216,0.000281388,1.070936203,0.110508941,9.737538338
1784246549.820277,0.009741130,-0.108944006,-2.358289480,-0.000835968,0.000432931,0.000171020,1.029715300,0.115965441,9.737533569
1784246549.822268,0.009741831,-0.108942986,-2.358289480,-0.000499614,0.000048827,0.000145025,1.065201163,0.119463421,9.748798370
1784246549.824272,0.009741831,-0.108942986,-2.358289480,0.000036097,-0.000213025,-0.000378801,1.055805087,0.083824195,9.736904144
1784246549.826276,0.009741831,-0.108942986,-2.358289480,0.000487788,0.000208968,-0.000991565,1.060435295,0.095839389,9.740122795
1784246549.828276,0.009741819,-0.108942308,-2.358289957,0.000656094,0.000785672,-0.001039572,1.078058481,0.106725149,9.752763748
1784246549.830276,0.009741819,-0.108942308,-2.358289957,0.000375822,0.000864502,-0.000481376,1.078201175,0.117171340,9.732656479
1784246549.832277,0.009742778,-0.108943604,-2.358289480,0.000387950,0.000812928,-0.000291622,1.073520899,0.100304894,9.718644142
1784246549.834275,0.009742778,-0.108943604,-2.358289480,0.000340039,0.000384525,-0.000895780,1.068586349,0.101997815,9.741517067
1784246549.836282,0.009742778,-0.108943604,-2.358289480,-0.000060828,-0.000249815,-0.000977244,1.043434024,0.100095868,9.739237785
1784246549.838282,0.009742438,-0.108942486,-2.358289480,-0.000260100,-0.000374372,-0.000474955,1.061062098,0.109803103,9.728556633
1784246549.840289,0.009742438,-0.108942486,-2.358289480,0.000178013,-0.000021751,-0.000051490,1.055765510,0.117049009,9.727252960
1784246549.842288,0.009743702,-0.108942628,-2.358289480,0.001164444,-0.000003842,-0.000104308,1.044012308,0.109217867,9.715535164
1784246549.844289,0.009743702,-0.108942628,-2.358289480,0.001444185,-0.000436264,-0.000109861,1.042224407,0.109701537,9.713744164
1784246549.846297,0.009743702,-0.108942628,-2.358289480,0.000945848,-0.000508612,-0.000294188,1.067329764,0.108801253,9.732143402
1784246549.848296,0.009744629,-0.108942613,-2.358289480,0.000799855,-0.000598438,-0.000626901,1.079257011,0.093383558,9.736538887
1784246549.850289,0.009744629,-0.108942613,-2.358289480,0.000541738,-0.001257983,-0.000584000,1.064525008,0.100651607,9.749124527
1784246549.852301,0.009744681,-0.108942412,-2.358289480,0.000124348,-0.001266453,-0.000803208,1.070440412,0.105279058,9.717777252
1784246549.854292,0.009744681,-0.108942412,-2.358289480,-0.000043914,-0.000357899,-0.000668757,1.046552658,0.098664045,9.745956421
1784246549.856301,0.009744681,-0.108942412,-2.358289480,0.000264141,0.000063458,-0.000264586,1.080232263,0.100876093,9.752279282
1784246549.858305,0.009745650,-0.108943440,-2.358289480,0.000862785,-0.000155047,-0.000062744,1.076515079,0.091000184,9.761628151
1784246549.860306,0.009745650,-0.108943440,-2.358289480,0.001080228,-0.000438748,0.000227670,1.027126431,0.089357801,9.766502380
1784246549.862308,0.009745095,-0.108940601,-2.358289957,0.001130851,-0.000642486,0.000150249,1.060217142,0.115091555,9.742487907
1784246549.864307,0.009745095,-0.108940601,-2.358289957,0.001187066,-0.000717901,-0.000104284,1.046005249,0.126970217,9.735827446
1784246549.866304,0.009745095,-0.108940601,-2.358289957,0.001317936,-0.000740025,0.000071653,1.065490365,0.105634466,9.739742279
1784246549.868310,0.009746213,-0.108940661,-2.358289957,0.001247959,-0.000901009,0.000631996,1.063686609,0.106397577,9.761713982
1784246549.870312,0.009746213,-0.108940661,-2.358289957,0.001102793,-0.001324473,0.001236913,1.060655951,0.116629645,9.777468681
1784246549.872333,0.009747256,-0.108940177,-2.358289480,0.000836651,-0.001642812,0.000630275,1.064096570,0.102843121,9.756759644
1784246549.874330,0.009747256,-0.108940177,-2.358289480,0.000432126,-0.001488819,-0.000730482,1.048362494,0.100785464,9.759421349
1784246549.876341,0.009747256,-0.108940177,-2.358289480,0.000500968,-0.001130560,-0.001394898,1.061172724,0.083218202,9.749458313
1784246549.878337,0.009746637,-0.108939908,-2.358289480,0.000513658,-0.000942493,-0.001662762,1.076667786,0.103959247,9.766195297
1784246549.880328,0.009746637,-0.108939908,-2.358289480,0.000305538,-0.000751693,-0.001442752,1.056155443,0.112122051,9.726325989
1784246549.882330,0.009747013,-0.108940132,-2.358289480,0.000228037,-0.000346386,-0.000811528,1.065754294,0.092011832,9.764761925
1784246549.884328,0.009747013,-0.108940132,-2.358289480,0.000263277,-0.000048792,-0.000893084,1.065773487,0.092974506,9.755353928
1784246549.886326,0.009747013,-0.108940132,-2.358289480,0.000175709,-0.000262979,-0.000918975,1.065150619,0.115415864,9.751013756
1784246549.888330,0.009747799,-0.108940721,-2.358289480,-0.000056218,-0.000711053,0.000017016,1.066072702,0.117221646,9.747439384
1784246549.890336,0.009747799,-0.108940721,-2.358289480,-0.000149823,-0.000820522,0.000411375,1.089001417,0.118498079,9.715637207
1784246549.892340,0.009749004,-0.108942688,-2.358289480,-0.000197354,-0.000771398,0.000193962,1.097417474,0.109420076,9.716933250
1784246549.894332,0.009749004,-0.108942688,-2.358289480,-0.000629311,-0.000712776,-0.000055185,1.068343997,0.119032450,9.740728378
1784246549.896358,0.009749004,-0.108942688,-2.358289480,-0.001268982,-0.000665459,-0.000417694,1.043258309,0.122925386,9.742522240
1784246549.898343,0.009749589,-0.108942024,-2.358289480,-0.001410631,-0.000672255,-0.000392664,1.043404579,0.135426939,9.748431206
1784246549.900385,0.009749589,-0.108942024,-2.358289480,-0.000915557,-0.000539442,-0.000408815,1.043720365,0.123834625,9.739839554
1784246549.902344,0.009750709,-0.108939849,-2.358289480,-0.000446706,-0.000497078,-0.000547075,1.026455164,0.106960610,9.749576569
1784246549.904362,0.009750709,-0.108939849,-2.358289480,-0.000450847,-0.000660590,-0.000631377,1.083682060,0.088786036,9.745032310
1784246549.906348,0.009750709,-0.108939849,-2.358289480,-0.000455271,-0.000905796,-0.000675442,1.053828120,0.107032426,9.753190994
1784246549.908345,0.009751872,-0.108939014,-2.358289480,-0.000242540,-0.001124303,-0.000454697,1.058638215,0.097466603,9.766584396
1784246549.910342,0.009751872,-0.108939014,-2.358289480,-0.000820199,-0.000483507,-0.000308646,1.067815900,0.110711366,9.714671135
1784246549.912349,0.009752080,-0.108939543,-2.358289480,-0.001416006,0.000525057,-0.000181457,1.076426148,0.082193568,9.740050316
1784246549.914344,0.009752080,-0.108939543,-2.358289480,-0.001224157,0.000640401,0.000017054,1.048793077,0.097396344,9.731156349
1784246549.916349,0.009752080,-0.108939543,-2.358289480,-0.001469065,0.000208258,-0.000112598,1.066782713,0.101140790,9.739266396
1784246549.918348,0.009752419,-0.108939528,-2.358289480,-0.002043573,-0.000063074,-0.000730937,1.060421467,0.094514579,9.737425804
1784246549.920347,0.009752419,-0.108939528,-2.358289480,-0.001901855,-0.000267331,-0.001090278,1.044699192,0.092955761,9.732915878
1784246549.922352,0.009753484,-0.108938128,-2.358289957,-0.001384722,-0.000408017,-0.000466813,1.078721881,0.123408429,9.736730576
1784246549.924358,0.009753484,-0.108938128,-2.358289957,-0.001636722,-0.000160855,-0.000156091,1.050720453,0.108550102,9.734366417
1784246549.926355,0.009753484,-0.108938128,-2.358289957,-0.002380734,-0.000097209,-0.000508930,1.062726855,0.101459235,9.764820099
1784246549.928355,0.009754106,-0.108938210,-2.358289480,-0.002206241,-0.000565647,-0.000262248,1.055516005,0.099679910,9.776009560
1784246549.930357,0.009754106,-0.108938210,-2.358289480,-0.001465079,-0.000880178,0.000351825,1.065855384,0.097673528,9.724449158
1784246549.932359,0.009754367,-0.108938001,-2.358289480,-0.001172390,-0.000619116,0.000548783,1.039574265,0.116147019,9.757270813
1784246549.934430,0.009754367,-0.108938001,-2.358289480,-0.000901962,-0.000194456,0.000513144,1.043008447,0.103526324,9.761675835
1784246549.936377,0.009754367,-0.108938001,-2.358289480,-0.000962445,-0.000278523,0.000520685,1.054124475,0.091233954,9.706015587
1784246549.938371,0.009753961,-0.108937539,-2.358289480,-0.001323361,-0.001288202,0.000177406,1.063919306,0.085639715,9.718989372
1784246549.940387,0.009753961,-0.108937539,-2.358289480,-0.001259121,-0.001987841,-0.000631556,1.071422219,0.112012424,9.714234352
1784246549.942403,0.009754905,-0.108937517,-2.358289480,-0.001002946,-0.001475374,-0.000962123,1.070828080,0.063959755,9.730962753
1784246549.944374,0.009754905,-0.108937517,-2.358289480,-0.000742172,-0.000730619,-0.000262056,1.070128083,0.081740253,9.752147675
1784246549.946374,0.009754905,-0.108937517,-2.358289480,-0.000245933,-0.000369152,-0.000113624,1.045613766,0.094294496,9.732028961
1784246549.948374,0.009754796,-0.108936258,-2.358289480,0.000388131,-0.000192786,-0.000980341,1.072510958,0.091322176,9.723518372
1784246549.950374,0.009754796,-0.108936258,-2.358289480,0.000960833,0.000202939,-0.001357345,1.079028606,0.111339539,9.732171059
1784246549.952374,0.009756048,-0.108936638,-2.358289480,0.001288485,0.000686857,-0.001089487,1.092170000,0.122727580,9.745258331
1784246549.954383,0.009756048,-0.108936638,-2.358289480,0.000779360,0.000523148,-0.000519331,1.051507354,0.136340201,9.731408119
1784246549.956374,0.009756048,-0.108936638,-2.358289480,0.000387336,0.000028790,-0.000539346,1.043606162,0.113611005,9.728564262
1784246549.958384,0.009756991,-0.108935408,-2.358289480,0.001012065,0.000217589,-0.000675784,1.054565787,0.092791125,9.738305092
1784246549.960385,0.009756991,-0.108935408,-2.358289480,0.001122253,0.000442756,0.000217612,1.073908329,0.095762298,9.726686478
1784246549.962388,0.009757341,-0.108936280,-2.358289480,0.000368193,0.000223896,0.000197065,1.082846642,0.092527479,9.724431992
1784246549.964384,0.009757341,-0.108936280,-2.358289480,-0.000120500,0.000482656,-0.000609756,1.075142503,0.087160669,9.736943245
1784246549.966388,0.009757341,-0.108936280,-2.358289480,0.000139462,0.000965303,-0.000346464,1.045865655,0.078956321,9.746278763
1784246549.968391,0.009756126,-0.108935490,-2.358289480,0.000756138,0.000752885,0.000077551,1.049520254,0.084692478,9.752147675
1784246549.970392,0.009756126,-0.108935490,-2.358289480,0.001149389,0.000366748,0.000060131,1.067692399,0.101631314,9.731648445
1784246549.972394,0.009756600,-0.108935215,-2.358289480,0.000822211,0.000199730,0.000101258,1.052354217,0.097124584,9.762988091
1784246549.974395,0.009756600,-0.108935215,-2.358289480,0.000114494,0.000224901,0.000492327,1.069708347,0.121185049,9.750607491
1784246549.976393,0.009756600,-0.108935215,-2.358289480,-0.000364783,0.000278180,0.000885780,1.093757749,0.106482610,9.758605957
1784246549.978401,0.009757117,-0.108936869,-2.358289480,-0.000607317,0.000136073,0.001135464,1.075426936,0.111696765,9.751446724
1784246549.980398,0.009757117,-0.108936869,-2.358289480,-0.000386254,-0.000041744,0.000992642,1.059562802,0.098074794,9.742379189
1784246549.982409,0.009756916,-0.108935878,-2.358289480,-0.000204313,-0.000024304,0.000365947,1.043951750,0.107930847,9.770672798
1784246549.984400,0.009756916,-0.108935878,-2.358289480,-0.000648404,0.000174501,-0.000072421,1.038870931,0.093068644,9.727532387
1784246549.986403,0.009756916,-0.108935878,-2.358289480,-0.001225549,0.000250729,-0.000500864,1.080039024,0.120325424,9.726849556
1784246549.988404,0.009758026,-0.108936362,-2.358289480,-0.001430299,0.000265723,-0.000451827,1.071452737,0.114280842,9.710214615
1784246549.990405,0.009758026,-0.108936362,-2.358289480,-0.001167186,-0.000016893,-0.000236566,1.045346379,0.109511845,9.734817505
1784246549.992404,0.009758388,-0.108935706,-2.358289480,-0.000505661,-0.000403407,-0.000802084,1.055313945,0.080659233,9.741814613
1784246549.994411,0.009758388,-0.108935706,-2.358289480,0.000031831,-0.000437130,-0.000634930,1.078203321,0.082840756,9.771888733
1784246549.996414,0.009758388,-0.108935706,-2.358289480,0.000351284,-0.000320357,0.000047119,1.039607644,0.078820959,9.713542938
1784246549.998415,0.009757050,-0.108935446,-2.358289480,0.000205942,-0.000227117,-0.000124488,1.043858647,0.098279200,9.741916656
1784246550.000417,0.009757050,-0.108935446,-2.358289480,-0.000640108,-0.000008436,-0.000051268,1.076658249,0.101046085,9.734793663
1784246550.002421,0.009757927,-0.108936422,-2.358289480,-0.000854262,0.000595407,0.000185706,1.073370457,0.089388482,9.741887093
1784246550.004435,0.009757927,-0.108936422,-2.358289480,-0.000575629,0.001032495,0.000052134,1.060045481,0.101172969,9.746882439
1784246550.006423,0.009757927,-0.108936422,-2.358289480,-0.000920682,0.000869844,0.000113742,1.054988027,0.090955362,9.743673325
1784246550.008454,0.009758000,-0.108936004,-2.358289480,-0.001298019,0.000806710,0.000158732,1.060021043,0.098955430,9.743730545
1784246550.010431,0.009758000,-0.108936004,-2.358289480,-0.001410233,0.000688849,-0.000115516,1.062510490,0.080703966,9.722542763
1784246550.012430,0.009757140,-0.108935639,-2.358289480,-0.001405483,0.000277074,-0.000154515,1.053255200,0.097141705,9.758954048
1784246550.014483,0.009757140,-0.108935639,-2.358289480,-0.001457974,-0.000149176,-0.000039303,1.061754465,0.096419163,9.782272339
1784246550.016497,0.009757140,-0.108935639,-2.358289480,-0.001096431,-0.000283792,0.000010139,1.061814785,0.100543022,9.769296646
1784246550.018453,0.009757151,-0.108935475,-2.358289480,-0.000179076,-0.000065921,0.000211422,1.031350970,0.103339113,9.745972633
1784246550.020442,0.009757151,-0.108935475,-2.358289480,0.000035402,0.000023036,0.000790189,1.050555348,0.095899113,9.749528885
1784246550.022444,0.009756935,-0.108934507,-2.358289480,-0.000640068,0.000114144,0.001318951,1.043819070,0.095940813,9.755800247
1784246550.024442,0.009756935,-0.108934507,-2.358289480,-0.001383753,0.000169546,0.000999666,1.062563658,0.086390734,9.741858482
1784246550.026446,0.009756935,-0.108934507,-2.358289480,-0.001332236,-0.000190039,0.000368646,1.072692990,0.105726905,9.713747978
1784246550.028443,0.009757110,-0.108935021,-2.358289480,-0.000679984,-0.000546072,-0.000505785,1.069981456,0.103988625,9.711043358
1784246550.030446,0.009757110,-0.108935021,-2.358289480,-0.000253695,-0.000196148,-0.000615980,1.031989694,0.081428401,9.738659859
1784246550.032445,0.009757121,-0.108933851,-2.358289480,-0.000176148,0.000451508,0.000244257,1.070516944,0.114393726,9.759081841
1784246550.034442,0.009757121,-0.108933851,-2.358289480,-0.000050065,0.000530570,0.000218988,1.075044990,0.116280690,9.737578392
1784246550.036442,0.009757121,-0.108933851,-2.358289480,0.000233972,-0.000288561,-0.000995420,1.071169853,0.093810983,9.754018784
1784246550.038450,0.009757166,-0.108933873,-2.358289480,0.000527951,-0.001174770,-0.001791318,1.039054990,0.071926050,9.739053726
1784246550.040451,0.009757166,-0.108933873,-2.358289480,0.000854305,-0.001182014,-0.000995449,1.067636371,0.097135805,9.733861923
1784246550.042451,0.009757315,-0.108934179,-2.358289480,0.001097789,-0.000595150,-0.000123530,1.060378551,0.090123996,9.724843979
1784246550.044454,0.009757315,-0.108934179,-2.358289480,0.001201096,-0.000468829,-0.000140007,1.056270480,0.084762059,9.730185509
1784246550.046452,0.009757315,-0.108934179,-2.358289480,0.001198642,-0.000827276,0.000061978,1.077399254,0.087643467,9.727982521
1784246550.048456,0.009756734,-0.108934604,-2.358289480,0.001184708,-0.000478069,0.000501332,1.059113145,0.097667553,9.737443924
1784246550.050459,0.009756734,-0.108934604,-2.358289480,0.000875723,0.000518843,0.000608437,1.043081164,0.106532037,9.716862679
1784246550.052456,0.009757319,-0.108933836,-2.358289480,0.000562098,0.001355804,0.000398110,1.024708867,0.110608637,9.743770599
1784246550.054464,0.009757319,-0.108933836,-2.358289480,0.000477155,0.001908648,0.000461421,1.088802576,0.103959836,9.744237900
1784246550.056467,0.009757319,-0.108933836,-2.358289480,-0.000093786,0.002117115,0.000794480,1.096104026,0.113748416,9.740720749
1784246550.058465,0.009758168,-0.108935401,-2.358289480,-0.000746990,0.001950763,0.000511458,1.080205917,0.099452719,9.763479233
1784246550.060462,0.009758168,-0.108935401,-2.358289480,-0.000661518,0.001895744,0.000270436,1.068818092,0.084880516,9.753958702
1784246550.062469,0.009757076,-0.108935602,-2.358289480,-0.000127697,0.002081911,0.000530108,1.043571472,0.074127451,9.736381531
1784246550.064470,0.009757076,-0.108935602,-2.358289480,-0.000190277,0.002223728,0.000501971,1.038467884,0.096677162,9.724865913
1784246550.066467,0.009757076,-0.108935602,-2.358289480,-0.000672238,0.002080421,0.000371096,1.053035855,0.115977727,9.756833076
1784246550.068466,0.009758242,-0.108935058,-2.358289480,-0.000649006,0.001573348,0.000707349,1.083871007,0.104461484,9.745581627
1784246550.070476,0.009758242,-0.108935058,-2.358289480,-0.000397437,0.001025414,0.000301819,1.089840174,0.116402209,9.756871223
1784246550.072470,0.009759698,-0.108936518,-2.358289480,-0.000177295,0.000610176,-0.000372725,1.077322006,0.120569386,9.760473251
1784246550.074473,0.009759698,-0.108936518,-2.358289480,0.000212492,-0.000006647,0.000091237,1.038947582,0.101373240,9.756726265
1784246550.076475,0.009759698,-0.108936518,-2.358289480,0.000839434,-0.000496024,0.000483705,1.042425394,0.054749433,9.754189491
1784246550.078477,0.009756253,-0.108934142,-2.358289480,0.001215768,-0.000091047,0.000015553,1.055819273,0.085558794,9.744984627
1784246550.080480,0.009756253,-0.108934142,-2.358289480,0.000786865,0.000426770,-0.000199004,1.052169323,0.079454154,9.727906227
1784246550.082485,0.009755456,-0.108933434,-2.358289480,-0.000200654,0.000323082,0.000001978,1.057940960,0.074435957,9.730120659
1784246550.084562,0.009755456,-0.108933434,-2.358289480,-0.000957443,0.000087285,-0.000069183,1.075095534,0.082738280,9.728844643
1784246550.086492,0.009755456,-0.108933434,-2.358289480,-0.000459658,-0.000007023,0.000079646,1.052927136,0.107015319,9.757225037
1784246550.088488,0.009755683,-0.108932368,-2.358289480,0.000553742,-0.000082964,0.000225163,1.050768018,0.113788925,9.753679276
1784246550.090497,0.009755683,-0.108932368,-2.358289480,0.000677340,-0.000131548,0.000312180,1.038806915,0.126506120,9.751059532
1784246550.092493,0.009755969,-0.108930878,-2.358289480,0.000712188,-0.000238785,0.000447290,1.057011962,0.108545937,9.723613739
1784246550.094512,0.009755969,-0.108930878,-2.358289480,0.001081559,-0.000284394,0.000510340,1.040809631,0.105124697,9.729853630
1784246550.096495,0.009755969,-0.108930878,-2.358289480,0.001009732,-0.000027285,0.000773970,1.054553151,0.091475852,9.734261513
1784246550.098500,0.009755586,-0.108929209,-2.358289480,0.000702563,0.000018329,0.001037034,1.086420774,0.092360660,9.741470337
1784246550.100507,0.009755586,-0.108929209,-2.358289480,0.000660089,-0.000036630,0.000614708,1.081127167,0.100845531,9.754970551
1784246550.102500,0.009756652,-0.108929209,-2.358289480,0.000654378,0.000431355,-0.000394102,1.023743272,0.105219170,9.747322083
1784246550.104518,0.009756652,-0.108929209,-2.358289480,0.000740720,0.000894087,-0.000604684,1.017624021,0.118335053,9.741123199
1784246550.106505,0.009756652,-0.108929209,-2.358289480,0.000777933,0.000704501,0.000051265,1.061501741,0.110130839,9.744700432
1784246550.108504,0.009757628,-0.108928084,-2.358289480,0.000731600,0.000459298,0.000510352,1.075063348,0.118047103,9.741177559
1784246550.110536,0.009757628,-0.108928084,-2.358289480,0.000757761,0.000714551,0.000432113,1.080527306,0.089121617,9.766551018
1784246550.112514,0.009756793,-0.108928762,-2.358289480,0.000651805,0.000923278,-0.000184561,1.064669490,0.076360583,9.762419701
1784246550.114519,0.009756793,-0.108928762,-2.358289480,0.000718453,0.000879222,-0.001194272,1.040822744,0.070473328,9.751149178
1784246550.116514,0.009756793,-0.108928762,-2.358289480,0.000746497,0.000736144,-0.001406984,1.057877541,0.069476582,9.734573364
1784246550.118520,0.009755884,-0.108927622,-2.358289957,0.000326084,0.000268936,-0.000301039,1.070705533,0.054886065,9.747043610
1784246550.120511,0.009755884,-0.108927622,-2.358289957,-0.000376368,0.000076845,0.000504827,0.993556440,0.095711060,9.752611160
1784246550.122518,0.009756257,-0.108924098,-2.358289480,-0.001170820,0.000376698,0.000317666,1.032636881,0.096364349,9.716340065
1784246550.124518,0.009756257,-0.108924098,-2.358289480,-0.001406065,0.000661440,0.000507168,1.055720687,0.113049135,9.722743988
1784246550.126515,0.009756257,-0.108924098,-2.358289480,-0.000817480,0.001019792,0.001116614,1.055705667,0.112524875,9.733500481
1784246550.128522,0.009757050,-0.108924448,-2.358289480,-0.000046102,0.001064816,0.000964220,1.052029610,0.105000049,9.727172852
1784246550.130521,0.009757050,-0.108924448,-2.358289480,0.000255821,0.000400221,0.000560074,1.055500269,0.096719064,9.751332283
1784246550.132525,0.009757445,-0.108923733,-2.358289480,-0.000072657,-0.000530984,0.000749696,1.046185613,0.105392396,9.745550156
1784246550.134524,0.009757445,-0.108923733,-2.358289480,-0.000325156,-0.000759234,0.000890320,1.066753864,0.098481633,9.735215187
1784246550.136526,0.009757445,-0.108923733,-2.358289480,-0.000245262,-0.000078410,0.000348036,1.031805396,0.102974445,9.733416557
1784246550.138529,0.009757375,-0.108922705,-2.358289480,-0.000475266,0.000405882,-0.000571037,1.031088233,0.116971314,9.719607353
1784246550.140525,0.009757375,-0.108922705,-2.358289480,-0.001174380,0.000168339,-0.000901721,1.047842264,0.094148099,9.748619080
1784246550.142528,0.009756681,-0.108921900,-2.358289480,-0.001272513,-0.000283558,-0.000421449,1.058783531,0.107125007,9.731226921
1784246550.144528,0.009756681,-0.108921900,-2.358289480,-0.000639323,-0.000568905,0.000344979,1.078326583,0.090297468,9.731139183
1784246550.146534,0.009756681,-0.108921900,-2.358289480,-0.000193355,-0.000594519,0.000561321,1.073356986,0.087663405,9.732461929
1784246550.148531,0.009756398,-0.108923174,-2.358289480,-0.000066216,-0.000608168,0.000249291,1.059860826,0.085532494,9.741402626
1784246550.150533,0.009756398,-0.108923174,-2.358289480,0.000080208,-0.000654801,0.000039913,1.104452848,0.100492492,9.762612343
1784246550.152533,0.009756648,-0.108925395,-2.358289480,0.000240485,-0.000708457,0.000067877,1.089178324,0.097298257,9.735229492
1784246550.154536,0.009756648,-0.108925395,-2.358289480,0.000027222,-0.001035738,0.000699880,1.047795057,0.126502424,9.735376358
1784246550.156537,0.009756648,-0.108925395,-2.358289480,-0.000559118,-0.000929519,0.001486455,1.062389851,0.143989280,9.707258224
1784246550.158542,0.009761033,-0.108924054,-2.358289480,-0.001086934,-0.000236092,0.001575341,1.035763025,0.134606481,9.751557350
1784246550.160542,0.009761033,-0.108924054,-2.358289480,-0.001397734,0.000201805,0.000737244,1.032993078,0.128353640,9.753754616
1784246550.162544,0.009763167,-0.108922459,-2.358289480,-0.001227007,0.000374968,-0.000270621,1.057366967,0.102532260,9.749578476
1784246550.164546,0.009763167,-0.108922459,-2.358289480,-0.000326615,0.000594214,0.000061968,1.086847782,0.090966508,9.747739792
1784246550.166550,0.009763167,-0.108922459,-2.358289480,0.000178241,0.000266594,0.000788699,1.059915900,0.089615017,9.734253883
1784246550.168547,0.009762746,-0.108922191,-2.358289480,0.000057452,-0.000142924,0.000684573,1.070941210,0.110547103,9.732158661
1784246550.170566,0.009762746,-0.108922191,-2.358289480,0.000033964,0.000459340,0.000397217,1.074947715,0.109434098,9.755468369
1784246550.172555,0.009763551,-0.108923025,-2.358289480,-0.000451714,0.001029461,0.000133714,1.057330132,0.098999456,9.742383003
1784246550.174557,0.009763551,-0.108923025,-2.358289480,-0.001007040,0.001195193,-0.000096060,1.030107617,0.111057557,9.733915329
1784246550.176558,0.009763551,-0.108923025,-2.358289480,-0.001392989,0.001317056,-0.000480034,1.045294762,0.105861388,9.744209290
1784246550.178563,0.009764128,-0.108921498,-2.358289957,-0.001859360,0.001011514,-0.000708091,1.070528150,0.112455986,9.716479301
1784246550.180559,0.009764128,-0.108921498,-2.358289957,-0.001859935,0.000529189,-0.000207219,1.071926236,0.115685739,9.700808525
1784246550.182561,0.009765194,-0.108922079,-2.358289957,-0.001639981,0.000534211,0.000358566,1.089665413,0.100434586,9.734353065
1784246550.184561,0.009765194,-0.108922079,-2.358289957,-0.001564878,0.000989763,0.000610651,1.073798299,0.087193795,9.734700203
1784246550.186564,0.009765194,-0.108922079,-2.358289957,-0.001370190,0.000940697,0.001027066,1.041686296,0.102921091,9.723114967
1784246550.188566,0.009765987,-0.108921543,-2.358289480,-0.000998223,0.000364930,0.000930637,1.043925285,0.104884140,9.758098602
1784246550.190566,0.009765987,-0.108921543,-2.358289480,-0.000252764,0.000161677,-0.000004140,1.042688489,0.112653449,9.738869667
1784246550.192568,0.009766449,-0.108920641,-2.358289480,0.000400158,0.000155976,-0.000611939,1.064065933,0.100171261,9.754501343
1784246550.194570,0.009766449,-0.108920641,-2.358289480,0.000349401,0.000064626,-0.000586690,1.059644103,0.102770612,9.711922646
1784246550.196570,0.009766449,-0.108920641,-2.358289480,-0.000102881,0.000073888,-0.000460223,1.093521118,0.083945006,9.714972496
1784246550.198579,0.009765849,-0.108921781,-2.358289480,-0.000341165,0.000134203,-0.000457908,1.094637156,0.102681115,9.724509239
1784246550.200574,0.009765849,-0.108921781,-2.358289480,0.000031201,0.000513908,-0.000399329,1.063971639,0.091726758,9.745032310
1784246550.202580,0.009765611,-0.108921714,-2.358289480,0.000698281,0.000693819,0.000040576,1.065087557,0.071656197,9.730110168
1784246550.204581,0.009765611,-0.108921714,-2.358289480,0.001106747,0.000339962,0.000322113,1.050365210,0.080214106,9.750325203
1784246550.206582,0.009765611,-0.108921714,-2.358289480,0.001043159,0.000052180,0.000183485,1.052359343,0.095949225,9.739220619
1784246550.208583,0.009765093,-0.108920224,-2.358289480,0.001342380,-0.000015981,-0.000114737,1.085878372,0.119894922,9.713850975
1784246550.210585,0.009765093,-0.108920224,-2.358289480,0.002032675,0.000145041,-0.000293961,1.042410374,0.088978291,9.729303360
1784246550.212590,0.009764497,-0.108919159,-2.358289480,0.002266585,0.000568464,0.000028050,1.072815895,0.080050640,9.732861519
1784246550.214595,0.009764497,-0.108919159,-2.358289480,0.001625626,0.001101330,0.000316748,1.060812593,0.090407223,9.747262955
1784246550.216594,0.009764497,-0.108919159,-2.358289480,0.000976492,0.001365378,0.000544132,1.049377680,0.109809496,9.748721123
1784246550.218590,0.009764877,-0.108917579,-2.358289480,0.000700204,0.001357291,0.000763131,1.062599778,0.126293629,9.738079071
1784246550.220608,0.009764877,-0.108917579,-2.358289480,0.000428283,0.001408926,0.000471581,1.061216831,0.086404800,9.742304802
1784246550.222605,0.009763067,-0.108917005,-2.358289480,0.000334815,0.000980534,-0.000248690,1.040752649,0.065463081,9.762775421
1784246550.224630,0.009763067,-0.108917005,-2.358289480,0.000350185,0.000159815,-0.000162340,1.059170723,0.102579214,9.739717484
1784246550.226607,0.009763067,-0.108917005,-2.358289480,0.000363241,-0.000083309,0.000750980,1.028232932,0.104777299,9.738355637
1784246550.228600,0.009763480,-0.108915135,-2.358289480,0.000248711,-0.000112655,0.001019810,1.075619340,0.090214334,9.747723579
1784246550.230602,0.009763480,-0.108915135,-2.358289480,0.000526585,-0.000261156,0.000764221,1.060477734,0.098606654,9.728933334
1784246550.232602,0.009763689,-0.108915292,-2.358289480,0.000985438,-0.000066116,0.000580123,1.059407234,0.083876751,9.723010063
1784246550.234632,0.009763689,-0.108915292,-2.358289480,0.000888813,0.000420828,0.000736076,1.095570445,0.106599510,9.738880157
1784246550.236605,0.009763689,-0.108915292,-2.358289480,0.000529413,0.000814344,0.000903598,1.087539315,0.109899148,9.730375290
1784246550.238611,0.009764110,-0.108916886,-2.358289480,0.000049581,0.000978147,0.000898243,1.063238621,0.105193004,9.742876053
1784246550.240614,0.009764110,-0.108916886,-2.358289480,-0.000429428,0.000811437,0.000802283,1.070974112,0.113644674,9.737558365
1784246550.242611,0.009764788,-0.108916990,-2.358289480,-0.000706669,0.000582662,0.000497220,1.087827802,0.096470445,9.728049278
1784246550.244609,0.009764788,-0.108916990,-2.358289480,-0.000837770,0.000289021,0.000310493,1.093157291,0.092322119,9.734752655
1784246550.246613,0.009764788,-0.108916990,-2.358289480,-0.000242557,0.000374641,0.000014765,1.077838302,0.086344689,9.720801353
1784246550.248614,0.009764162,-0.108919278,-2.358289480,0.000538673,0.000793803,-0.000288389,1.070616841,0.083265990,9.725705147
1784246550.250616,0.009764162,-0.108919278,-2.358289480,0.000000789,0.000855453,0.000083359,1.056600094,0.111274429,9.718698502
1784246550.252624,0.009764695,-0.108918905,-2.358289480,-0.000555868,0.000704261,0.000334768,1.069550514,0.106971115,9.733479500
1784246550.254625,0.009764695,-0.108918905,-2.358289480,0.000339570,0.000385642,-0.000058836,1.070880294,0.106420055,9.745581627
1784246550.256618,0.009764695,-0.108918905,-2.358289480,0.000647686,0.000155472,-0.000057279,1.055932403,0.131336063,9.734069824
1784246550.258630,0.009766181,-0.108919799,-2.358289480,-0.000566794,0.000722282,0.000108127,1.046551466,0.134624317,9.729598999
1784246550.260629,0.009766181,-0.108919799,-2.358289480,-0.001504271,0.001192088,-0.000150231,1.074099898,0.112673536,9.742486000
1784246550.262628,0.009767001,-0.108921006,-2.358289480,-0.001039688,0.000640003,-0.000341602,1.075820088,0.105578557,9.728992462
1784246550.264629,0.009767001,-0.108921006,-2.358289480,0.000184512,0.000262933,-0.000262845,1.078201413,0.082421407,9.767850876
1784246550.266629,0.009767001,-0.108921006,-2.358289480,0.000700625,0.000404946,0.000012876,1.086319447,0.083858930,9.740072250
1784246550.268630,0.009766118,-0.108921967,-2.358289480,0.000429113,0.000681470,-0.000454246,1.060706854,0.081467092,9.744515419
1784246550.270627,0.009766118,-0.108921967,-2.358289480,0.000286340,0.000849312,-0.001282038,1.029028773,0.096264079,9.736958504
1784246550.272626,0.009766036,-0.108920231,-2.358289480,0.000037109,0.001024159,-0.001397615,1.059856772,0.085094064,9.740054131
1784246550.274629,0.009766036,-0.108920231,-2.358289480,-0.000597609,0.001153431,-0.000995122,1.061475277,0.107490771,9.737957001
1784246550.276637,0.009766036,-0.108920231,-2.358289480,-0.001116161,0.001120777,-0.000468033,1.052569389,0.111386582,9.710177422
1784246550.278641,0.009766367,-0.108920038,-2.358289480,-0.001313343,0.001024484,-0.000318844,1.055706978,0.110914283,9.707936287
1784246550.280638,0.009766367,-0.108920038,-2.358289480,-0.001008165,0.000591394,-0.000518352,1.063133359,0.096662648,9.745511055
1784246550.282641,0.009766371,-0.108919933,-2.358289480,-0.000484478,-0.000197661,-0.000286762,1.060734749,0.120899759,9.743871689
1784246550.284639,0.009766371,-0.108919933,-2.358289480,-0.000088670,-0.000992276,0.000476456,1.059482336,0.090955101,9.735607147
1784246550.286644,0.009766371,-0.108919933,-2.358289480,0.000262706,-0.000849311,0.000621383,1.051770568,0.085527867,9.756637573
1784246550.288646,0.009766188,-0.108919241,-2.358289480,0.000547139,0.000033588,-0.000099039,1.049571753,0.089556463,9.761144638
1784246550.290644,0.009766188,-0.108919241,-2.358289480,0.000911642,0.000241212,-0.000319155,1.066238642,0.130689099,9.743491173
1784246550.292644,0.009767780,-0.108919680,-2.358289480,0.000882320,-0.000038662,-0.000103289,1.085675716,0.104111344,9.728544235
1784246550.294651,0.009767780,-0.108919680,-2.358289480,0.000071039,0.000182719,-0.000396214,1.083918214,0.070890456,9.740882874
1784246550.296648,0.009767780,-0.108919680,-2.358289480,-0.000644468,0.000473100,-0.000897915,1.092121482,0.081512600,9.744545937
1784246550.298651,0.009766461,-0.108920187,-2.358289480,-0.000610339,0.000228118,-0.001174800,1.079655170,0.088116728,9.720365524
1784246550.300655,0.009766461,-0.108920187,-2.358289480,-0.000551313,-0.000025813,-0.000871424,1.051119328,0.068129905,9.747110367
1784246550.302651,0.009765354,-0.108919628,-2.358289480,-0.000976710,0.000026027,-0.000288806,1.062403560,0.073781051,9.751192093
1784246550.304663,0.009765354,-0.108919628,-2.358289480,-0.001235186,-0.000223975,0.000007741,1.066008449,0.072235733,9.709939957
1784246550.306664,0.009765354,-0.108919628,-2.358289480,-0.001225539,-0.000568122,-0.000119800,1.053128242,0.085196197,9.737807274
1784246550.308660,0.009764501,-0.108918205,-2.358289480,-0.001072665,-0.000712295,-0.000229939,1.058981895,0.087310389,9.744998932
1784246550.310663,0.009764501,-0.108918205,-2.358289480,-0.001106889,-0.000713183,0.000574713,1.051935673,0.135362238,9.742161751
1784246550.312662,0.009766580,-0.108917013,-2.358289480,-0.001906114,-0.000382491,0.001323976,1.074468255,0.107171431,9.759488106
1784246550.314661,0.009766580,-0.108917013,-2.358289480,-0.002523043,-0.000190006,0.001021046,1.047087789,0.106229112,9.752283096
1784246550.316665,0.009766580,-0.108917013,-2.358289480,-0.001761672,-0.000204175,0.000368185,1.060635567,0.076447308,9.757484436
1784246550.318670,0.009766185,-0.108916365,-2.358289480,-0.000790784,-0.000200433,-0.000196937,1.073327422,0.085404538,9.735136986
1784246550.320665,0.009766185,-0.108916365,-2.358289480,-0.000788510,-0.000189883,-0.000645802,1.036327362,0.105623811,9.730748177
1784246550.322667,0.009766158,-0.108914576,-2.358289480,-0.000642783,-0.000185190,-0.000737910,1.050564051,0.096779115,9.751776695
1784246550.324669,0.009766158,-0.108914576,-2.358289480,-0.000249196,-0.000277079,-0.000444048,1.046138048,0.101370268,9.744180679
1784246550.326676,0.009766158,-0.108914576,-2.358289480,0.000093042,-0.000183841,-0.000030422,1.038021922,0.097515233,9.733836174
1784246550.328698,0.009766304,-0.108912393,-2.358289480,0.000488076,0.000025287,0.000470489,1.058595538,0.091455899,9.729782104
1784246550.330679,0.009766304,-0.108912393,-2.358289480,0.000340088,0.000002562,0.000797625,1.061558008,0.114222914,9.736207962
1784246550.332680,0.009767657,-0.108912446,-2.358289480,-0.000077515,-0.000279422,0.000835400,1.043306708,0.089363873,9.736478806
1784246550.334680,0.009767657,-0.108912446,-2.358289480,-0.000763912,-0.000732160,0.000770674,1.045548201,0.089725867,9.744553566
1784246550.336687,0.009767657,-0.108912446,-2.358289480,-0.001352325,-0.000933366,0.000453321,1.055959821,0.096799143,9.739228249
1784246550.338684,0.009766878,-0.108912483,-2.358289480,-0.001324358,-0.000758004,-0.000244696,1.042567253,0.103592478,9.753158569
1784246550.340683,0.009766878,-0.108912483,-2.358289480,-0.001234939,-0.000866869,-0.000447521,1.063550234,0.095999077,9.775097847
1784246550.342692,0.009767452,-0.108912043,-2.358289480,-0.001066284,-0.001327490,-0.000236201,1.055198193,0.108419485,9.744683266
1784246550.344692,0.009767452,-0.108912043,-2.358289480,-0.000360462,-0.001308020,-0.000295974,1.025536537,0.102346621,9.706954956
1784246550.346694,0.009767452,-0.108912043,-2.358289480,-0.000514889,-0.001233293,-0.000231932,1.040105581,0.085686885,9.755281448
1784246550.348693,0.009767694,-0.108909272,-2.358289480,-0.001479002,-0.001261992,0.000191993,1.058033109,0.084484696,9.766052246
1784246550.350696,0.009767694,-0.108909272,-2.358289480,-0.001745190,-0.001176840,0.000050807,1.058136463,0.125322029,9.693684578
1784246550.352694,0.009769165,-0.108908966,-2.358289480,-0.001811614,-0.001166305,-0.000683943,1.053801775,0.103175677,9.728507042
1784246550.354700,0.009769165,-0.108908966,-2.358289480,-0.001550775,-0.000789627,-0.000296012,1.049845457,0.110359818,9.733481407
1784246550.356696,0.009769165,-0.108908966,-2.358289480,-0.000931557,-0.000759372,0.000888505,1.053819418,0.104935728,9.733001709
1784246550.358701,0.009770178,-0.108909048,-2.358289480,-0.000138556,-0.000990129,0.001281200,1.029393435,0.091946885,9.776383400
1784246550.360701,0.009770178,-0.108909048,-2.358289480,0.000370939,-0.000936970,0.000828275,1.055018306,0.094030663,9.752211571
1784246550.362707,0.009770074,-0.108909063,-2.358289480,0.000293759,-0.000674099,-0.000042695,1.075023770,0.077308685,9.736432076
1784246550.364704,0.009770074,-0.108909063,-2.358289480,-0.000015384,-0.000321865,-0.000026828,1.074694037,0.087169595,9.736495018
1784246550.366707,0.009770074,-0.108909063,-2.358289480,-0.000026332,-0.000109441,0.000941571,1.052759051,0.092718728,9.751752853
1784246550.368708,0.009770432,-0.108909070,-2.358289480,0.000187653,0.000353218,0.000945088,1.028357506,0.077897087,9.737735748
1784246550.370709,0.009770432,-0.108909070,-2.358289480,-0.000761180,0.000329833,0.000023243,1.031738281,0.097986452,9.741903305
1784246550.372714,0.009770502,-0.108908162,-2.358289480,-0.002056398,-0.000382105,-0.000743401,1.048973680,0.113815099,9.753230095
1784246550.374713,0.009770502,-0.108908162,-2.358289480,-0.001746933,-0.000340051,-0.001007949,1.052676916,0.085992955,9.752605438
1784246550.376719,0.009770502,-0.108908162,-2.358289480,-0.001085145,0.000094659,-0.000349291,1.056066394,0.104935579,9.728969574
1784246550.378719,0.009771221,-0.108908162,-2.358289480,-0.001421161,0.000163525,0.000886031,1.068362236,0.081992179,9.719867706
1784246550.380718,0.009771221,-0.108908162,-2.358289480,-0.001624955,0.000593115,0.001481248,1.070821643,0.101498857,9.744652748
1784246550.382720,0.009772004,-0.108907916,-2.358289480,-0.001262706,0.001104529,0.000941977,1.042545080,0.101794280,9.754042625
1784246550.384727,0.009772004,-0.108907916,-2.358289480,-0.000929372,0.001066454,-0.000120971,1.035731912,0.057154961,9.742990494
1784246550.386725,0.009772004,-0.108907916,-2.358289480,-0.000964599,0.000481637,-0.000555879,1.042486668,0.096876256,9.752665520
1784246550.388730,0.009771709,-0.108907193,-2.358289480,-0.000738499,0.000119462,0.000012590,1.063363075,0.115496106,9.742942810
1784246550.390728,0.009771709,-0.108907193,-2.358289480,-0.000078522,0.000621038,0.000955268,1.092439413,0.108339384,9.751892090
1784246550.392727,0.009772957,-0.108908698,-2.358289480,-0.000014924,0.000829931,0.001477997,1.074622631,0.118926510,9.744320869
1784246550.394733,0.009772957,-0.108908698,-2.358289480,-0.000026551,0.000448180,0.000971195,1.079937339,0.111417070,9.719618797
1784246550.396728,0.009772957,-0.108908698,-2.358289480,-0.000193705,0.000462101,0.000224281,1.032968163,0.088136330,9.738703728
1784246550.398732,0.009772380,-0.108907148,-2.358289480,-0.000787209,0.000455567,0.000293082,1.042407513,0.089362659,9.738270760
1784246550.400737,0.009772380,-0.108907148,-2.358289480,-0.000644302,0.000138729,0.000324325,1.055480242,0.092913158,9.719477654
1784246550.402737,0.009771966,-0.108906560,-2.358289480,0.000165830,-0.000079816,0.000041396,1.059097171,0.095110148,9.719045639
1784246550.404734,0.009771966,-0.108906560,-2.358289480,0.000722033,-0.000040556,-0.000181716,1.084683895,0.094055042,9.695302963
1784246550.406739,0.009771966,-0.108906560,-2.358289480,0.000873871,-0.000027334,-0.000326686,1.077473998,0.094715454,9.741477966
1784246550.408744,0.009771177,-0.108907759,-2.358289480,0.001231916,-0.000454896,-0.000019147,1.053601861,0.124194264,9.734469414
1784246550.410742,0.009771177,-0.108907759,-2.358289480,0.001454487,-0.000858832,0.000673663,1.071338892,0.107707307,9.752763748
1784246550.412744,0.009771631,-0.108908497,-2.358289480,0.001078429,-0.000839092,0.000818227,1.074155807,0.079172455,9.727925301
1784246550.414747,0.009771631,-0.108908497,-2.358289480,0.000574756,-0.000511158,0.000094538,1.063265324,0.105809480,9.719118118
1784246550.416748,0.009771631,-0.108908497,-2.358289480,0.000242887,-0.000292962,-0.000053633,1.062427759,0.111561805,9.730812073
1784246550.418751,0.009773050,-0.108908050,-2.358289480,0.000324515,-0.000247704,0.000199342,1.070776582,0.096685745,9.728482246
1784246550.420750,0.009773050,-0.108908050,-2.358289480,0.000802883,-0.000036382,-0.000084056,1.051106095,0.102778107,9.726261139
1784246550.422752,0.009773744,-0.108906895,-2.358289480,0.000790086,0.000122235,-0.000417419,1.020849466,0.125446275,9.743413925
1784246550.424752,0.009773744,-0.108906895,-2.358289480,0.000364227,0.000117944,-0.000932377,1.069191456,0.112952970,9.711997986
1784246550.426754,0.009773744,-0.108906895,-2.358289480,0.000144841,0.000272510,-0.000764941,1.056703687,0.083012156,9.723448753
1784246550.428767,0.009772980,-0.108906984,-2.358289480,0.000094487,0.000666493,0.000243314,1.050517321,0.090736605,9.719458580
1784246550.430763,0.009772980,-0.108906984,-2.358289480,0.000309640,0.000755013,0.000616076,1.041551828,0.092135049,9.727976799
1784246550.432760,0.009772823,-0.108905971,-2.358289480,0.000135100,0.000283095,0.000884114,1.045498729,0.085687846,9.745423317
1784246550.434764,0.009772823,-0.108905971,-2.358289480,-0.000266380,-0.000363277,0.001005047,1.077110887,0.064292245,9.735903740
1784246550.436767,0.009772823,-0.108905971,-2.358289480,-0.000142269,-0.000854209,0.000696557,1.060653329,0.114583790,9.750107765
1784246550.438768,0.009773487,-0.108906165,-2.358289480,-0.000103687,-0.001082638,0.000039219,1.039478660,0.105666235,9.719095230
1784246550.440768,0.009773487,-0.108906165,-2.358289480,-0.000215880,-0.000956447,-0.000943689,1.057761550,0.096020132,9.719499588
1784246550.442775,0.009773510,-0.108905636,-2.358289480,-0.000313485,-0.000543682,-0.001116410,1.051619649,0.108957961,9.738405228
1784246550.444773,0.009773510,-0.108905636,-2.358289480,-0.000565946,-0.000242470,-0.001007847,1.070481896,0.109660104,9.731702805
1784246550.446777,0.009773510,-0.108905636,-2.358289480,-0.000262348,-0.000047403,-0.000747603,1.047775388,0.125536576,9.745232582
1784246550.448776,0.009775826,-0.108904839,-2.358289480,0.000532526,-0.000256346,-0.000089715,1.055386662,0.123281687,9.733570099
1784246550.450776,0.009775826,-0.108904839,-2.358289480,0.000619609,-0.000815576,0.000115722,1.089467287,0.083469309,9.726174355
1784246550.452781,0.009774579,-0.108906426,-2.358289480,0.000093449,-0.000603644,0.000105429,1.088681459,0.094088793,9.746416092
1784246550.454792,0.009774579,-0.108906426,-2.358289480,-0.000178302,-0.000127578,0.000280418,1.052317858,0.129158154,9.731811523
1784246550.456783,0.009774579,-0.108906426,-2.358289480,0.000051744,-0.000395474,0.000098270,1.046102643,0.135033533,9.735877037
1784246550.458790,0.009777599,-0.108905636,-2.358289480,0.000163754,-0.000838482,-0.000613550,1.053911805,0.112150796,9.726324081
1784246550.460788,0.009777599,-0.108905636,-2.358289480,-0.000222458,-0.000940395,-0.001095513,1.086216569,0.111720942,9.728592873
1784246550.462787,0.009778132,-0.108907469,-2.358289480,-0.000684841,-0.000995794,-0.001266283,1.093202472,0.095918536,9.732983589
1784246550.464792,0.009778132,-0.108907469,-2.358289480,-0.000680388,-0.001115481,-0.000794876,1.065923572,0.105101265,9.750948906
1784246550.466794,0.009778132,-0.108907469,-2.358289480,-0.000494142,-0.000988987,-0.000395825,1.047323346,0.088330351,9.748580933
1784246550.468807,0.009777536,-0.108906858,-2.358289480,-0.000824450,-0.000671395,-0.000826677,1.064758301,0.081520267,9.729724884
1784246550.470796,0.009777536,-0.108906858,-2.358289480,-0.000901346,-0.000281687,-0.000832525,1.054878235,0.081983417,9.745409012
1784246550.472793,0.009776720,-0.108906262,-2.358289480,-0.000128771,-0.000207038,-0.000457547,1.061647773,0.121415719,9.732666969
1784246550.474793,0.009776720,-0.108906262,-2.358289480,0.000629795,-0.000477757,-0.000348345,1.101201892,0.125907317,9.722869873
1784246550.476793,0.009776720,-0.108906262,-2.358289480,0.000552184,-0.000451634,-0.000358809,1.077288389,0.116251953,9.737581253
1784246550.478799,0.009778042,-0.108907834,-2.358289480,-0.000186344,0.000042617,-0.000346816,1.057434201,0.107520252,9.741092682
1784246550.480796,0.009778042,-0.108907834,-2.358289480,-0.000562942,0.000362611,0.000041042,1.060977817,0.104274943,9.750041008
1784246550.482799,0.009779071,-0.108908191,-2.358289480,-0.000459356,0.000412209,0.000232911,1.078175902,0.078167558,9.735991478
1784246550.484801,0.009779071,-0.108908191,-2.358289480,-0.000365054,0.000432574,-0.000024512,1.068886876,0.089474604,9.737849236
1784246550.486804,0.009779071,-0.108908191,-2.358289480,-0.000025365,0.000531496,0.000276256,1.040206790,0.092971906,9.738741875
1784246550.488810,0.009778375,-0.108905636,-2.358289480,0.000026276,0.000910994,0.000605075,1.051975727,0.098900303,9.702923775
1784246550.490808,0.009778375,-0.108905636,-2.358289480,-0.000643272,0.000839744,0.000083379,1.082939148,0.102579378,9.759915352
1784246550.492811,0.009778962,-0.108907022,-2.358289480,-0.001173298,0.000212652,-0.000354098,1.083157182,0.118890412,9.734016418
1784246550.494817,0.009778962,-0.108907022,-2.358289480,-0.000870910,0.000014733,-0.000074549,1.069090962,0.106080949,9.733471870
1784246550.496812,0.009778962,-0.108907022,-2.358289480,-0.000162939,-0.000118367,0.000400713,1.039568782,0.078919157,9.762860298
1784246550.498819,0.009779104,-0.108906023,-2.358289480,0.000241478,-0.000536455,0.000474193,1.072377801,0.082165830,9.751255035
1784246550.500812,0.009779104,-0.108906023,-2.358289480,-0.000056430,-0.000596664,-0.000121722,1.079884410,0.107757069,9.730354309
1784246550.502815,0.009779373,-0.108905911,-2.358289480,-0.000437425,-0.000641967,-0.000032606,1.081023574,0.089491062,9.713650703
1784246550.504815,0.009779373,-0.108905911,-2.358289480,-0.000791716,-0.000930448,0.000734789,1.063850045,0.080635838,9.729717255
1784246550.506819,0.009779373,-0.108905911,-2.358289480,-0.001338191,-0.001187728,0.000679346,1.060882211,0.097441070,9.766137123
1784246550.508819,0.009779264,-0.108905442,-2.358289480,-0.001514420,-0.001067464,-0.000026894,1.039287329,0.091591820,9.745455742
1784246550.510825,0.009779264,-0.108905442,-2.358289480,-0.001582326,-0.000369529,-0.000375420,1.057201385,0.125441268,9.741656303
1784246550.512822,0.009781009,-0.108905293,-2.358289480,-0.001269992,0.000205566,-0.000393697,1.041931272,0.125118822,9.751502991
1784246550.514892,0.009781009,-0.108905293,-2.358289480,-0.000560620,0.000025680,-0.000463738,1.088042617,0.113972723,9.723677635
1784246550.516844,0.009781009,-0.108905293,-2.358289480,-0.000228241,-0.000357579,-0.000155425,1.070844889,0.102493338,9.730761528
1784246550.518844,0.009781679,-0.108906023,-2.358289957,-0.000089903,-0.000203680,0.000071427,1.067686439,0.100773543,9.726264000
1784246550.520839,0.009781679,-0.108906023,-2.358289957,0.000341222,0.000249956,-0.000266337,1.073700547,0.116717286,9.741613388
1784246550.522835,0.009781769,-0.108906388,-2.358289480,0.000400231,0.000438185,-0.000351127,1.054046154,0.086563565,9.732884407
1784246550.524850,0.009781769,-0.108906388,-2.358289480,-0.000227929,0.000506895,0.000181368,1.035538197,0.115001157,9.736636162
1784246550.526843,0.009781769,-0.108906388,-2.358289480,-0.000757528,0.000541056,0.000352460,1.044331193,0.101297878,9.757627487
1784246550.528850,0.009782267,-0.108905651,-2.358289957,-0.000999348,0.000387717,-0.000065220,1.066394210,0.105673835,9.732570648
1784246550.530844,0.009782267,-0.108905651,-2.358289957,-0.000904233,0.000238306,-0.000567845,1.068937421,0.093115509,9.729803085
1784246550.532842,0.009781936,-0.108905837,-2.358289957,-0.000674658,0.000016528,-0.000410873,1.062169075,0.089662582,9.723497391
1784246550.534878,0.009781936,-0.108905837,-2.358289957,-0.000507764,-0.000075912,0.000173210,1.055206537,0.107269555,9.717326164
1784246550.536862,0.009781936,-0.108905837,-2.358289957,-0.000327262,0.000113080,-0.000212101,1.071780682,0.105620734,9.730333328
1784246550.538853,0.009782260,-0.108905502,-2.358289480,-0.000414217,0.000161791,-0.000277017,1.076366186,0.114852801,9.746986389
1784246550.540879,0.009782260,-0.108905502,-2.358289480,-0.000878150,0.000141842,0.000613441,1.036619067,0.094247326,9.754884720
1784246550.542856,0.009782665,-0.108903624,-2.358289957,-0.001432464,0.000131193,0.001009083,1.049228430,0.098095730,9.758060455
1784246550.544858,0.009782665,-0.108903624,-2.358289957,-0.001618194,0.000088959,0.000665645,1.054564238,0.092778400,9.740098953
1784246550.546854,0.009782665,-0.108903624,-2.358289957,-0.001677908,0.000328251,0.000272665,1.059849262,0.083413512,9.724351883
1784246550.548860,0.009781329,-0.108904175,-2.358289480,-0.001703636,0.000571610,0.000438091,1.063956261,0.091199309,9.756237030
1784246550.550860,0.009781329,-0.108904175,-2.358289480,-0.001653117,0.000512831,0.000774018,1.054884195,0.118811026,9.733092308
1784246550.552854,0.009783135,-0.108903036,-2.358289480,-0.001797344,0.000418850,0.000873751,1.033665657,0.109546863,9.750945091
1784246550.554858,0.009783135,-0.108903036,-2.358289480,-0.001903559,0.000224958,0.000855445,1.046416402,0.087052032,9.740949631
1784246550.556898,0.009783135,-0.108903036,-2.358289480,-0.001561102,0.000386941,0.000555637,1.064353108,0.086326391,9.747688293
1784246550.558867,0.009781936,-0.108902477,-2.358289957,-0.001126111,0.000900032,0.000159208,1.058940053,0.084142864,9.749462128
1784246550.560864,0.009781936,-0.108902477,-2.358289957,-0.000833434,0.000750881,0.000066032,1.051842332,0.089337304,9.724830627
1784246550.562868,0.009781914,-0.108902253,-2.358289957,-0.000211742,0.000006521,0.000211883,1.049205542,0.093860947,9.723512650
1784246550.564862,0.009781914,-0.108902253,-2.358289957,0.000388387,-0.000250665,0.000536577,1.043419242,0.099168129,9.743715286
1784246550.566864,0.009781914,-0.108902253,-2.358289957,0.000437536,0.000361003,0.000307602,1.073219657,0.114441894,9.747428894
1784246550.568871,0.009783250,-0.108902119,-2.358289480,0.000277743,0.000974573,-0.000490392,1.066819429,0.104266971,9.740633011
1784246550.570923,0.009783250,-0.108902119,-2.358289480,0.000045969,0.000880164,-0.000641679,1.056925297,0.100971937,9.717736244
1784246550.572986,0.009783295,-0.108901672,-2.358289480,-0.000380212,0.000505853,-0.000374913,1.054918528,0.084328152,9.730628967
1784246550.574899,0.009783295,-0.108901672,-2.358289480,-0.000980145,0.000218292,-0.000181119,1.065833688,0.061938625,9.772192001
1784246550.576894,0.009783295,-0.108901672,-2.358289480,-0.000970425,-0.000516879,-0.000222680,1.042451262,0.091732822,9.719904900
1784246550.578934,0.009783552,-0.108899862,-2.358289957,-0.000619816,-0.001038590,-0.000180126,1.050688505,0.105462082,9.727622986
1784246550.580904,0.009783552,-0.108899862,-2.358289957,-0.000520012,-0.000698777,0.000143467,1.048562884,0.116956584,9.753249168
1784246550.582905,0.009783870,-0.108899631,-2.358289957,-0.000485889,-0.000737026,0.000088718,1.069634557,0.113309346,9.724105835
1784246550.584991,0.009783870,-0.108899631,-2.358289957,-0.000593001,-0.001267334,0.000027773,1.038652539,0.113534339,9.748286247
1784246550.586910,0.009783870,-0.108899631,-2.358289957,-0.000354973,-0.000899771,-0.000228544,1.036247015,0.101747587,9.771968842
1784246550.588900,0.009783813,-0.108898677,-2.358289957,0.000255689,-0.000365625,-0.000593608,1.049426436,0.113031074,9.736637115
1784246550.590905,0.009783813,-0.108898677,-2.358289957,0.000154984,-0.000171270,-0.000428261,1.058555961,0.088307448,9.731554985
1784246550.592928,0.009783332,-0.108897828,-2.358289480,-0.000690764,0.000446512,-0.000288330,1.052805781,0.095114313,9.729799271
1784246550.594904,0.009783332,-0.108897828,-2.358289480,-0.001379677,0.000826124,-0.000313263,1.080557346,0.090170152,9.745038033
1784246550.596958,0.009783332,-0.108897828,-2.358289480,-0.001651513,0.000614872,-0.000442089,1.051726818,0.118720882,9.751469612
1784246550.598920,0.009784524,-0.108897105,-2.358289480,-0.001565189,-0.000062183,-0.000845281,1.055180788,0.106255986,9.733908653
1784246550.600909,0.009784524,-0.108897105,-2.358289480,-0.001288081,-0.000774707,-0.000977418,1.033694625,0.075832739,9.766421318
1784246550.603066,0.009783932,-0.108895853,-2.358289480,-0.000593868,-0.000833316,-0.000709294,1.070211172,0.087258868,9.732007980
1784246550.604956,0.009783932,-0.108895853,-2.358289480,0.000476409,-0.000434112,-0.000185677,1.091154456,0.074896879,9.731499672
1784246550.606938,0.009783932,-0.108895853,-2.358289480,0.001385856,0.000108512,-0.000001188,1.071043730,0.082278460,9.737805367
1784246550.608920,0.009783206,-0.108896054,-2.358289480,0.001526768,0.000621301,-0.000498777,1.084410310,0.074064948,9.734626770
1784246550.610932,0.009783206,-0.108896054,-2.358289480,0.000673078,0.001184944,-0.000825623,1.057292700,0.095866911,9.741914749
1784246550.612926,0.009783634,-0.108894788,-2.358289480,-0.000133907,0.001201567,-0.001066216,1.084679365,0.098073602,9.760335922
1784246550.614930,0.009783634,-0.108894788,-2.358289480,-0.000258505,0.000613822,-0.001099676,1.041403651,0.118017621,9.742936134
1784246550.616947,0.009783634,-0.108894788,-2.358289480,-0.000004814,0.000289384,-0.001032668,1.035081625,0.114133224,9.733491898
1784246550.618938,0.009784278,-0.108893134,-2.358289957,0.000543146,0.000123109,-0.001307818,1.047477245,0.102109052,9.763914108
1784246550.620927,0.009784278,-0.108893134,-2.358289957,0.000745794,0.000290093,-0.001182037,1.077392817,0.089212723,9.759375572
1784246550.622924,0.009783749,-0.108893514,-2.358289957,0.000588410,0.000666020,-0.000927008,1.061544895,0.114524595,9.756833076
1784246550.624928,0.009783749,-0.108893514,-2.358289957,0.000530379,0.001155370,-0.000757983,1.067632794,0.096297093,9.725787163
1784246550.626934,0.009783749,-0.108893514,-2.358289957,0.000525083,0.001653569,-0.000327121,1.067286730,0.103597417,9.707900047
1784246550.628928,0.009783541,-0.108894937,-2.358289957,0.000278590,0.001352150,0.000145136,1.017794013,0.093840867,9.719895363
1784246550.630934,0.009783541,-0.108894937,-2.358289957,-0.000324277,0.000540505,0.000918443,1.016528845,0.103411213,9.762546539
1784246550.632932,0.009783809,-0.108892880,-2.358289957,-0.000943191,0.000041386,0.001445913,1.050294399,0.147540599,9.733719826
1784246550.634940,0.009783809,-0.108892880,-2.358289957,-0.001194732,-0.000410710,0.001234284,1.041338921,0.113048688,9.748734474
1784246550.636943,0.009783809,-0.108892880,-2.358289957,-0.001271883,-0.000992304,0.000934463,1.080346823,0.108266048,9.720943451
1784246550.638936,0.009783936,-0.108894013,-2.358290195,-0.001231753,-0.000946836,0.000357777,1.039898038,0.102591522,9.709660530
1784246550.640936,0.009783936,-0.108894013,-2.358290195,-0.000961725,-0.000446559,-0.000348176,1.027918220,0.115565926,9.733942032
1784246550.642943,0.009784960,-0.108891755,-2.358290195,-0.000460934,-0.000356263,-0.000719086,1.037693620,0.107792303,9.738384247
1784246550.644941,0.009784960,-0.108891755,-2.358290195,-0.000098951,-0.000560220,-0.001026900,1.045915961,0.083000690,9.744509697
1784246550.646938,0.009784960,-0.108891755,-2.358290195,-0.000736988,-0.000360855,-0.000636873,1.042265892,0.078112759,9.745371819
1784246550.648943,0.009784230,-0.108891249,-2.358290195,-0.001507867,0.000053463,0.000334240,1.042417526,0.091465726,9.757563591
1784246550.650964,0.009784230,-0.108891249,-2.358290195,-0.001256109,0.000188400,0.000410235,1.061340809,0.096298121,9.736989021
1784246550.653105,0.009784148,-0.108891129,-2.358290195,-0.000479507,-0.000148466,-0.000059389,1.056443810,0.099503428,9.736108780
1784246550.654970,0.009784148,-0.108891129,-2.358290195,-0.000387898,-0.000679180,-0.000006707,1.056869984,0.099319622,9.761214256
1784246550.656959,0.009784148,-0.108891129,-2.358290195,-0.000587808,-0.000456264,0.000901130,1.049674153,0.096444398,9.737425804
1784246550.658964,0.009783727,-0.108890392,-2.358289957,-0.000331060,0.000133660,0.001583553,1.067334175,0.109239668,9.733490944
1784246550.660960,0.009783727,-0.108890392,-2.358289957,-0.000165000,0.000136197,0.001338153,1.062134743,0.125358954,9.744349480
1784246550.662960,0.009785064,-0.108890280,-2.358289957,-0.000354689,-0.000129590,0.001319863,1.058487058,0.121300176,9.754631996
1784246550.664958,0.009785064,-0.108890280,-2.358289957,-0.000851537,-0.000084359,0.001144834,1.038070917,0.103170216,9.757635117
1784246550.666963,0.009785064,-0.108890280,-2.358289957,-0.001432209,-0.000403612,0.000130478,1.056061864,0.106520757,9.758120537
1784246550.668967,0.009785688,-0.108890124,-2.358289957,-0.001243643,-0.000930765,-0.000609139,1.062604785,0.089958534,9.744123459
1784246550.670967,0.009785688,-0.108890124,-2.358289957,-0.000089158,-0.000788770,-0.000655996,1.050285935,0.073103964,9.742209435
1784246550.672963,0.009784249,-0.108888686,-2.358289957,0.000826876,-0.000434259,-0.000670562,1.049983859,0.085614443,9.747669220
1784246550.674965,0.009784249,-0.108888686,-2.358289957,0.000894438,-0.000475077,-0.000755999,1.063796043,0.114556268,9.748316765
1784246550.676978,0.009784249,-0.108888686,-2.358289957,0.000506483,-0.000805975,-0.000838663,1.086912990,0.132718503,9.735900879
1784246550.678976,0.009786120,-0.108889237,-2.358289957,0.000225142,-0.001026278,-0.001350061,1.078878522,0.135992676,9.730984688
1784246550.680970,0.009786120,-0.108889237,-2.358289957,0.000074317,-0.001135123,-0.001433406,1.034152389,0.112676829,9.750966072
1784246550.682978,0.009786846,-0.108886078,-2.358289957,-0.000379245,-0.000966136,-0.000283814,1.024812460,0.082346365,9.748520851
1784246550.684983,0.009786846,-0.108886078,-2.358289957,-0.001228567,-0.000316122,0.000664074,1.049732089,0.101359263,9.739253044
1784246550.686978,0.009786846,-0.108886078,-2.358289957,-0.001557216,0.000103822,0.000777105,1.088524818,0.080287836,9.734222412
1784246550.688978,0.009786824,-0.108887754,-2.358289957,-0.001221474,0.000114894,0.000967028,1.083797455,0.097395867,9.731188774
1784246550.690984,0.009786824,-0.108887754,-2.358289957,-0.001102514,0.000249202,0.001286408,1.054473996,0.085582405,9.744087219
1784246550.692984,0.009786705,-0.108886480,-2.358289957,-0.000906596,0.000347858,0.001194318,1.041389942,0.117099427,9.746069908
1784246550.694984,0.009786705,-0.108886480,-2.358289957,-0.000840371,0.000077351,0.001323772,1.032873034,0.117275439,9.736647606
1784246550.696995,0.009786705,-0.108886480,-2.358289957,-0.000868862,-0.000515196,0.001469908,1.031427979,0.109216675,9.738388062
1784246550.699019,0.009787178,-0.108883925,-2.358289957,-0.000235160,-0.000874725,0.000404441,1.036928415,0.118573926,9.735763550
1784246550.700994,0.009787178,-0.108883925,-2.358289957,-0.000094718,-0.000754860,-0.000424280,1.069430590,0.097919680,9.746422768
1784246550.702992,0.009787792,-0.108884305,-2.358289957,-0.001058441,-0.000479373,-0.000487085,1.067735076,0.105615258,9.738400459
1784246550.704994,0.009787792,-0.108884305,-2.358289957,-0.001599651,-0.000495192,-0.000732359,1.075232267,0.094760098,9.739233971
1784246550.706996,0.009787792,-0.108884305,-2.358289957,-0.001036798,-0.000519803,-0.000458295,1.063300729,0.108926110,9.721828461
1784246550.708999,0.009787949,-0.108884603,-2.358289957,-0.000224970,-0.000129189,-0.000075209,1.030628681,0.118107907,9.749652863
1784246550.710998,0.009787949,-0.108884603,-2.358289957,0.000658113,0.000280874,-0.000228217,1.037313461,0.113608837,9.740215302
1784246550.713005,0.009789017,-0.108882092,-2.358289957,0.001262241,0.000257257,-0.000540109,1.053934813,0.115168869,9.742930412
1784246550.715006,0.009789017,-0.108882092,-2.358289957,0.001282792,-0.000114965,-0.000842171,1.042750120,0.118813619,9.754600525
1784246550.717001,0.009789017,-0.108882092,-2.358289957,0.001298154,-0.000350130,-0.001062019,1.060998082,0.103623837,9.715515137
1784246550.719002,0.009790100,-0.108881272,-2.358289957,0.001460065,0.000105020,-0.000911565,1.042094588,0.098950468,9.713675499
1784246550.721007,0.009790100,-0.108881272,-2.358289957,0.001436955,0.000744764,-0.000908779,1.052972078,0.071805067,9.730996132
1784246550.723003,0.009788061,-0.108882025,-2.358289957,0.000923595,0.000407196,-0.001074482,1.050505996,0.092267700,9.756231308
1784246550.725003,0.009788061,-0.108882025,-2.358289957,0.000271343,-0.000396350,-0.000765501,1.028788805,0.075321198,9.721132278
1784246550.727009,0.009788061,-0.108882025,-2.358289957,0.000165373,-0.000353741,-0.000861258,1.047777414,0.088772573,9.748583794
1784246550.729028,0.009785706,-0.108881541,-2.358289480,0.000310134,0.000020211,-0.001470307,1.057119489,0.118715480,9.742508888
1784246550.731016,0.009785706,-0.108881541,-2.358289480,-0.000078772,-0.000155449,-0.001357669,1.082507849,0.140311822,9.747155190
1784246550.733014,0.009789267,-0.108882733,-2.358289957,-0.000436376,-0.000305152,-0.000535728,1.074865341,0.101085000,9.732549667
1784246550.735019,0.009789267,-0.108882733,-2.358289957,-0.000024919,-0.000133690,0.000101781,1.071433544,0.076538265,9.725214958
1784246550.737021,0.009789267,-0.108882733,-2.358289957,0.000528932,0.000026027,0.000314072,1.051207781,0.074096471,9.726973534
1784246550.739019,0.009787986,-0.108882114,-2.358289957,0.000370582,0.000022443,0.000467164,1.031075597,0.080092825,9.739098549
1784246550.741026,0.009787986,-0.108882114,-2.358289957,-0.000376859,0.000133425,0.000776887,1.043453574,0.101871796,9.741489410
1784246550.743088,0.009788596,-0.108880803,-2.358289957,-0.000847115,0.000340908,0.000768668,1.051857591,0.130288377,9.762752533
1784246550.745032,0.009788596,-0.108880803,-2.358289957,-0.000701785,0.000328677,0.000130731,1.048659682,0.125826761,9.765859604
1784246550.747053,0.009788596,-0.108880803,-2.358289957,-0.000868727,0.000161049,-0.000389472,1.049549341,0.123728089,9.744325638
1784246550.749043,0.009789874,-0.108879879,-2.358289957,-0.001154292,-0.000014957,-0.000498218,1.054398537,0.116497457,9.744286537
1784246550.751027,0.009789874,-0.108879879,-2.358289957,-0.001034987,-0.000036827,-0.000883206,1.066465497,0.112720385,9.749651909
1784246550.753026,0.009791092,-0.108879596,-2.358289957,-0.001673348,-0.000277822,-0.001346591,1.052226782,0.086392604,9.760230064
1784246550.755029,0.009791092,-0.108879596,-2.358289957,-0.002918963,-0.000593057,-0.001018263,1.049760461,0.103205152,9.731642723
1784246550.757039,0.009791092,-0.108879596,-2.358289957,-0.002810455,-0.000387218,-0.000197382,1.047885060,0.097728617,9.749090195
1784246550.759036,0.009791137,-0.108878642,-2.358289957,-0.001298893,0.000038153,-0.000064914,1.055190086,0.109165967,9.765759468
1784246550.761047,0.009791137,-0.108878642,-2.358289957,-0.000379177,0.000208319,-0.000348568,1.041965246,0.091039412,9.755317688
1784246550.763048,0.009790988,-0.108876131,-2.358289957,-0.000288859,0.000213093,-0.000647051,1.062440038,0.112873897,9.735302925
1784246550.765046,0.009790988,-0.108876131,-2.358289957,-0.000367392,0.000148898,-0.001316394,1.058407426,0.114186846,9.746963501
1784246550.767040,0.009790988,-0.108876131,-2.358289957,-0.000567226,0.000371334,-0.001423643,1.055823803,0.085593775,9.740052223
1784246550.769045,0.009789553,-0.108875990,-2.358289957,-0.000439733,0.000867768,-0.000741299,1.059207797,0.105708592,9.740634918
1784246550.771043,0.009789553,-0.108875990,-2.358289957,-0.000350907,0.000886589,-0.000101721,1.086916804,0.132343680,9.725588799
1784246550.773043,0.009791857,-0.108877733,-2.358289957,-0.000488558,0.000596052,0.000434396,1.082476139,0.099230394,9.727612495
1784246550.775059,0.009791857,-0.108877733,-2.358289957,-0.000733750,0.000332738,0.000698070,1.046371698,0.083862260,9.748552322
1784246550.777058,0.009791857,-0.108877733,-2.358289957,-0.001200794,0.000198688,0.000781707,1.058005333,0.081428446,9.754823685
1784246550.779058,0.009790675,-0.108877674,-2.358289957,-0.000779984,0.000114701,0.000212108,1.046766639,0.115753338,9.736651421
1784246550.781055,0.009790675,-0.108877674,-2.358289957,-0.000149081,-0.000162760,-0.000727031,1.068454742,0.127200663,9.725985527
1784246550.783054,0.009793239,-0.108878843,-2.358289480,-0.000506169,-0.000399054,-0.000275408,1.074389338,0.136844352,9.745331764
1784246550.785058,0.009793239,-0.108878843,-2.358289480,-0.000852282,-0.000138948,0.000164177,1.083515048,0.110872239,9.726791382
1784246550.787070,0.009793239,-0.108878843,-2.358289480,-0.000937067,0.000305591,-0.000308183,1.058564425,0.089994378,9.746360779
1784246550.789073,0.009792885,-0.108878106,-2.358289480,-0.001236985,0.000414019,-0.000328938,1.095334530,0.086095050,9.724402428
1784246550.791064,0.009792885,-0.108878106,-2.358289480,-0.001529112,0.000402920,-0.000200263,1.086239815,0.076342165,9.726124763
1784246550.793080,0.009792192,-0.108878650,-2.358289480,-0.001395967,0.000589869,-0.000231250,1.062229156,0.095810026,9.741022110
1784246550.795071,0.009792192,-0.108878650,-2.358289480,-0.001099623,0.000725128,-0.000452082,1.044421554,0.108900495,9.759471893
1784246550.797068,0.009792192,-0.108878650,-2.358289480,-0.000883975,0.000700549,-0.001082990,1.046902299,0.090582274,9.747698784
1784246550.799080,0.009792132,-0.108878061,-2.358289480,-0.000820893,0.000411898,-0.001255428,1.040157080,0.088930711,9.740059853
1784246550.801068,0.009792132,-0.108878061,-2.358289480,-0.000961759,-0.000161774,-0.000498830,1.072060704,0.091315217,9.725311279
1784246550.803073,0.009791777,-0.108879142,-2.358289480,-0.001078384,-0.000254113,-0.000180539,1.090691328,0.074788176,9.747639656
1784246550.805070,0.009791777,-0.108879142,-2.358289480,-0.001175052,0.000150045,-0.000487613,1.064885020,0.130645931,9.752008438
1784246550.807072,0.009791777,-0.108879142,-2.358289480,-0.001287917,-0.000026151,-0.000208552,1.058369875,0.111054279,9.746495247
1784246550.809079,0.009792054,-0.108879089,-2.358289480,-0.001196603,-0.000717454,0.000497331,1.038460851,0.134616524,9.745282173
1784246550.811080,0.009792054,-0.108879089,-2.358289480,-0.001307732,-0.001018608,0.000597213,1.055343032,0.119694829,9.733994484
1784246550.813130,0.009793372,-0.108878762,-2.358289480,-0.001396564,-0.000354290,0.000404110,1.077454805,0.094159380,9.756717682
1784246550.815090,0.009793372,-0.108878762,-2.358289480,-0.000783678,0.000949542,0.000395444,1.060979724,0.103884205,9.741969109
1784246550.817087,0.009793372,-0.108878762,-2.358289480,-0.000252020,0.001377581,0.000205841,1.067894936,0.082255118,9.746767998
1784246550.819092,0.009792490,-0.108878843,-2.358289480,-0.000397915,0.000849854,-0.000046119,1.057771802,0.100153171,9.768394470
1784246550.821083,0.009792490,-0.108878843,-2.358289480,-0.001476820,0.000747767,-0.000536522,1.053609729,0.089098096,9.755317688
1784246550.823090,0.009791658,-0.108878314,-2.358289480,-0.002674738,0.001020267,-0.000964704,1.061810970,0.097677574,9.731170654
1784246550.825086,0.009791658,-0.108878314,-2.358289480,-0.002752333,0.001296662,-0.000697275,1.046592355,0.099382259,9.707854271
1784246550.827097,0.009791658,-0.108878314,-2.358289480,-0.002161601,0.001201829,-0.000304508,1.096928120,0.107484549,9.737991333
1784246550.829095,0.009792203,-0.108880542,-2.358289480,-0.001884122,0.000273307,-0.000492760,1.058954954,0.085070595,9.744984627
1784246550.831091,0.009792203,-0.108880542,-2.358289480,-0.002040966,-0.000252590,-0.001062874,1.055453539,0.091486610,9.731124878
1784246550.833091,0.009792468,-0.108879864,-2.358289480,-0.002330540,-0.000077274,-0.001240690,1.072371602,0.119301483,9.758667946
1784246550.835131,0.009792468,-0.108879864,-2.358289480,-0.002562388,-0.000131539,-0.001010239,1.082160711,0.111229338,9.742036819
1784246550.837099,0.009792468,-0.108879864,-2.358289480,-0.002132545,-0.000032093,-0.001075305,1.069967747,0.104690589,9.738395691
1784246550.839106,0.009792456,-0.108880088,-2.358289480,-0.000986158,0.000210474,-0.000976018,1.061025500,0.107893609,9.745133400
1784246550.841103,0.009792456,-0.108880088,-2.358289480,-0.000155255,0.000148921,-0.000201003,1.056598425,0.075291879,9.738195419
1784246550.843103,0.009791790,-0.108878739,-2.358289480,-0.000329939,-0.000156612,0.000216481,1.031722665,0.096645750,9.741445541
1784246550.845109,0.009791790,-0.108878739,-2.358289480,-0.000511320,-0.000535839,-0.000256572,1.042236328,0.073827103,9.717996597
1784246550.847108,0.009791790,-0.108878739,-2.358289480,0.000305140,-0.000048142,-0.000631527,1.047857523,0.094268933,9.731583595
1784246550.849107,0.009791434,-0.108877786,-2.358289480,0.001228835,0.000750031,-0.000324029,1.053656697,0.093520470,9.763414383
1784246550.851111,0.009791434,-0.108877786,-2.358289480,0.000975119,0.000962283,0.000095020,1.068105936,0.099725589,9.746880531
1784246550.853113,0.009791506,-0.108878434,-2.358289480,0.000174337,0.000980329,0.000272191,1.089888215,0.081217386,9.727056503
1784246550.855115,0.009791506,-0.108878434,-2.358289480,-0.000122743,0.000702733,0.000345937,1.090061903,0.095151879,9.720419884
1784246550.857114,0.009791506,-0.108878434,-2.358289480,0.000090234,0.000134343,0.000651029,1.062078357,0.082866862,9.734213829
1784246550.859126,0.009790719,-0.108878262,-2.358289480,0.000174756,-0.000099633,0.000982486,1.056796908,0.091853723,9.740094185
1784246550.861123,0.009790719,-0.108878262,-2.358289480,-0.000478133,0.000459914,0.000847794,1.053752184,0.097110890,9.699327469
1784246550.863119,0.009790321,-0.108878575,-2.358289480,-0.000984541,0.001266619,0.000300551,1.052595854,0.078463458,9.740453720
1784246550.865116,0.009790321,-0.108878575,-2.358289480,-0.000668668,0.001543692,-0.000550047,1.054372907,0.077893928,9.754347801
1784246550.867121,0.009790321,-0.108878575,-2.358289480,-0.000462271,0.001276375,-0.000937677,1.073230505,0.076937787,9.728806496
1784246550.869124,0.009789024,-0.108879037,-2.358289480,-0.000873544,0.001049702,-0.000896199,1.072077274,0.093472354,9.736981392
1784246550.871121,0.009789024,-0.108879037,-2.358289480,-0.001112416,0.001495558,-0.000808327,1.068345904,0.117425017,9.714715004
1784246550.873127,0.009790801,-0.108879305,-2.358289480,-0.000778652,0.002028883,-0.000417412,1.047246099,0.117205933,9.720520973
1784246550.875133,0.009790801,-0.108879305,-2.358289480,-0.000616903,0.001642546,0.000151748,1.063554406,0.094817370,9.752224922
1784246550.877129,0.009790801,-0.108879305,-2.358289480,-0.001152827,0.001080719,0.000473515,1.040577531,0.123455517,9.735797882
1784246550.879130,0.009791733,-0.108878143,-2.358289480,-0.001521826,0.000924742,0.000456639,1.054878592,0.118359864,9.733538628
1784246550.881134,0.009791733,-0.108878143,-2.358289480,-0.001483073,0.000843353,0.000517221,1.071749210,0.104156047,9.747361183
1784246550.883132,0.009791845,-0.108878016,-2.358289480,-0.000748623,0.000919335,0.000743748,1.055864811,0.090781704,9.766537666
1784246550.885135,0.009791845,-0.108878016,-2.358289480,0.000476443,0.001202453,0.000712565,1.045974970,0.088331707,9.750821114
1784246550.887138,0.009791845,-0.108878016,-2.358289480,0.001076417,0.001053643,0.000398578,1.059370995,0.081160374,9.727025986
1784246550.889143,0.009791071,-0.108877562,-2.358289480,0.001235632,0.000266144,-0.000141265,1.067165375,0.094129823,9.716357231
1784246550.891141,0.009791071,-0.108877562,-2.358289480,0.000807634,-0.000410776,-0.000355456,1.045556545,0.089385994,9.729308128
1784246550.893145,0.009790708,-0.108876877,-2.358289480,0.000515781,-0.000584341,0.000176289,1.038149953,0.108657040,9.741978645
1784246550.895151,0.009790708,-0.108876877,-2.358289480,0.001121111,-0.000218390,0.001018998,1.074853182,0.099772908,9.728057861
1784246550.897155,0.009790708,-0.108876877,-2.358289480,0.001671863,0.000190347,0.001742180,1.054449081,0.119328327,9.724128723
1784246550.899190,0.009791987,-0.108877234,-2.358289480,0.001187676,0.000358863,0.001418448,1.043524981,0.106488153,9.722241402
1784246550.901165,0.009791987,-0.108877234,-2.358289480,0.000006359,0.000620870,0.000478052,1.085669160,0.104463935,9.741996765
1784246550.903149,0.009792415,-0.108878754,-2.358289480,-0.000675529,0.000716939,0.000262086,1.054960132,0.125082463,9.733131409
1784246550.905157,0.009792415,-0.108878754,-2.358289480,-0.000582592,0.000237822,0.000553929,1.078458548,0.103497848,9.764847755
1784246550.907153,0.009792415,-0.108878754,-2.358289480,-0.000116015,-0.000112632,0.000297813,1.044535518,0.079910837,9.740454674
1784246550.909164,0.009792848,-0.108876519,-2.358289480,0.000321321,0.000191537,-0.000300684,1.059836984,0.080481283,9.695639610
1784246550.911152,0.009792848,-0.108876519,-2.358289480,0.000767249,0.000518747,-0.000573426,1.060384035,0.090978578,9.730677605
1784246550.913162,0.009792732,-0.108875975,-2.358289480,0.000711372,0.000811014,-0.000086452,1.069189072,0.115770742,9.756848335
1784246550.915164,0.009792732,-0.108875975,-2.358289480,0.000400126,0.001098508,0.000322445,1.071943760,0.082692668,9.740947723
1784246550.917172,0.009792732,-0.108875975,-2.358289480,0.000751321,0.001125153,0.000060615,1.059411526,0.084721789,9.730188370
1784246550.919161,0.009792198,-0.108875982,-2.358289480,0.000988174,0.001072439,-0.000076401,1.029455900,0.093249798,9.719006538
1784246550.921170,0.009792198,-0.108875982,-2.358289480,0.000707327,0.000947824,0.000003101,1.023380876,0.076015845,9.759238243
1784246550.923162,0.009791857,-0.108874284,-2.358289480,0.000303338,0.000857865,0.000277328,1.049283624,0.102178253,9.750912666
1784246550.925177,0.009791857,-0.108874284,-2.358289480,-0.000188949,0.000919243,0.000676061,1.059651494,0.105664708,9.746013641
1784246550.927173,0.009791857,-0.108874284,-2.358289480,-0.000657415,0.000839147,0.000965664,1.067392826,0.113757439,9.728139877
1784246550.929190,0.009792065,-0.108874001,-2.358289480,-0.000818976,0.000636084,0.000977546,1.052649617,0.117693007,9.705286980
1784246550.931179,0.009792065,-0.108874001,-2.358289480,-0.000446060,0.000664184,0.000771341,1.051313877,0.119413070,9.717849731
1784246550.933181,0.009793209,-0.108873807,-2.358289480,0.000155975,0.001043734,0.000190404,1.044174314,0.123466767,9.727731705
1784246550.935216,0.009793209,-0.108873807,-2.358289480,0.000394444,0.001231729,-0.000125302,1.017299294,0.091860823,9.747229576
1784246550.937205,0.009793209,-0.108873807,-2.358289480,-0.000055586,0.000582225,-0.000162094,1.048567414,0.081024915,9.765572548
1784246550.939194,0.009792762,-0.108873360,-2.358289480,-0.000112843,-0.000035407,-0.000586411,1.069044709,0.102068372,9.730756760
1784246550.941225,0.009792762,-0.108873360,-2.358289480,0.000808281,0.000076151,-0.000222946,1.062185645,0.092629775,9.747279167
1784246550.943187,0.009792568,-0.108873174,-2.358289480,0.001370875,0.000298709,0.000674262,1.034763217,0.125299856,9.738943100
1784246550.945194,0.009792568,-0.108873174,-2.358289480,0.000804915,0.000367572,0.000639830,1.073459625,0.132547930,9.721093178
1784246550.947191,0.009792568,-0.108873174,-2.358289480,0.000176820,0.000370495,-0.000107932,1.065539002,0.109666117,9.739768982
1784246550.949209,0.009793648,-0.108873285,-2.358289480,0.000261510,0.000331444,-0.000760347,1.045238495,0.100149177,9.728480339
1784246550.951196,0.009793648,-0.108873285,-2.358289480,0.000772759,0.000221945,-0.000549393,1.060066581,0.102961630,9.747342110
1784246550.953198,0.009793567,-0.108873248,-2.358289480,0.001487772,0.000153604,0.000074239,1.065565825,0.110282592,9.716012001
1784246550.955194,0.009793567,-0.108873248,-2.358289480,0.001814070,0.000396892,0.000042474,1.076709747,0.105100006,9.731679916
1784246550.957203,0.009793567,-0.108873248,-2.358289480,0.001388149,0.000962363,-0.000485009,1.020006895,0.093570486,9.753969193
1784246550.959203,0.009793372,-0.108871616,-2.358289480,0.000556278,0.001614360,-0.000940973,1.049436688,0.112707108,9.719149590
1784246550.961201,0.009793372,-0.108871616,-2.358289480,-0.000252074,0.001907648,-0.000642659,1.063954353,0.090779960,9.752199173
1784246550.963199,0.009793272,-0.108870700,-2.358289480,-0.000633055,0.001430889,0.000257113,1.048179150,0.119097568,9.704841614
1784246550.965205,0.009793272,-0.108870700,-2.358289480,-0.000285204,0.000340415,0.000656715,1.063053846,0.127545923,9.750192642
1784246550.967244,0.009793272,-0.108870700,-2.358289480,0.000170998,-0.000218640,0.000371796,1.045213580,0.100358665,9.762105942
1784246550.969214,0.009793987,-0.108869664,-2.358289480,-0.000070133,-0.000186744,0.000003305,1.074009776,0.068294197,9.745788574
1784246550.971209,0.009793987,-0.108869664,-2.358289480,-0.000498883,-0.000143223,-0.000193219,1.060516238,0.102962241,9.746446609
1784246550.973217,0.009794874,-0.108868785,-2.358289480,-0.000540685,-0.000081093,0.000097459,1.021897674,0.100787997,9.743705750
1784246550.975210,0.009794874,-0.108868785,-2.358289480,-0.000558193,-0.000416611,0.000740357,1.049173474,0.091176361,9.723046303
1784246550.977229,0.009794874,-0.108868785,-2.358289480,-0.000300015,-0.000804627,0.000666777,1.089082837,0.089250855,9.732934952
1784246550.979219,0.009794618,-0.108869217,-2.358289480,0.000596064,-0.000947501,0.000055473,1.068730950,0.112866528,9.724998474
1784246550.981220,0.009794618,-0.108869217,-2.358289480,0.001267120,-0.000928775,0.000098256,1.014389277,0.111150682,9.749144554
1784246550.983217,0.009795295,-0.108867101,-2.358289480,0.000942300,-0.000959139,-0.000070684,1.049251318,0.136270389,9.745303154
1784246550.985227,0.009795295,-0.108867101,-2.358289480,0.000237930,-0.000847786,-0.000590895,1.064687014,0.113683835,9.743381500
1784246550.987221,0.009795295,-0.108867101,-2.358289480,0.000000084,-0.000251642,-0.000316691,1.060016870,0.097300299,9.724439621
1784246550.989227,0.009795381,-0.108867578,-2.358289480,0.000405592,0.000229514,0.000028658,1.073786855,0.085888073,9.729312897
1784246550.991228,0.009795381,-0.108867578,-2.358289480,0.000842064,0.000131850,-0.000263585,1.068067670,0.095776625,9.735199928
1784246550.993240,0.009794859,-0.108866744,-2.358289480,0.001265040,-0.000299306,-0.000658838,1.053176284,0.090438195,9.756669998
1784246550.995232,0.009794859,-0.108866744,-2.358289480,0.001336386,-0.000702833,-0.000622718,1.053452969,0.076917291,9.767344475
1784246550.997234,0.009794859,-0.108866744,-2.358289480,0.000461461,-0.001349223,-0.000202702,1.050740123,0.111136131,9.748731613
1784246550.999230,0.009795950,-0.108865820,-2.358289480,-0.000087465,-0.001966054,0.000265070,1.084852695,0.111598291,9.748318672
1784246551.001246,0.009795950,-0.108865820,-2.358289480,-0.000097657,-0.001536433,0.000412783,1.066801548,0.102910385,9.742417336
1784246551.003288,0.009795860,-0.108865306,-2.358289480,0.000067359,-0.000377916,0.000290702,1.083887458,0.104995310,9.733479500
1784246551.005250,0.009795860,-0.108865306,-2.358289480,0.000347815,0.000283003,0.000417623,1.070884109,0.105638593,9.729436874
1784246551.007264,0.009795860,-0.108865306,-2.358289480,0.000345777,0.000170071,0.000939688,1.051640630,0.111150071,9.745144844
1784246551.009256,0.009797522,-0.108864106,-2.358289480,0.000307574,-0.000088252,0.000741310,1.063661098,0.102143720,9.729854584
1784246551.011245,0.009797522,-0.108864106,-2.358289480,0.000371315,-0.000344441,-0.000215772,1.050119042,0.133593366,9.742149353
1784246551.013289,0.009800283,-0.108862527,-2.358289480,0.000452544,-0.000657442,-0.000913644,1.070675850,0.125780359,9.732704163
1784246551.015276,0.009800283,-0.108862527,-2.358289480,0.000439467,-0.000832010,-0.001205233,1.089976192,0.090017624,9.749528885
1784246551.017272,0.009800283,-0.108862527,-2.358289480,0.000338913,-0.000977306,-0.001237379,1.072901249,0.087208480,9.734251976
1784246551.019265,0.009799434,-0.108863376,-2.358289480,0.000049077,-0.001027373,-0.001170572,1.052085876,0.110712245,9.742899895
1784246551.021259,0.009799434,-0.108863376,-2.358289480,-0.000120753,-0.000561090,-0.000992674,1.049010396,0.116131209,9.742484093
1784246551.023259,0.009800809,-0.108861580,-2.358289957,-0.000113215,0.000191714,-0.000950826,1.049551010,0.123740800,9.742533684
1784246551.025259,0.009800809,-0.108861580,-2.358289957,0.000047993,0.000108030,-0.000851407,1.042873383,0.164266929,9.726200104
1784246551.027262,0.009800809,-0.108861580,-2.358289957,0.000446165,-0.000642808,-0.000313032,1.053751469,0.099131308,9.730274200
1784246551.029269,0.009801788,-0.108862460,-2.358289957,0.000630133,-0.000867533,0.000550142,1.022369146,0.065803729,9.747963905
1784246551.031339,0.009801788,-0.108862460,-2.358289957,0.000747958,-0.000868744,0.001125680,1.038129091,0.071308360,9.764603615
1784246551.033324,0.009800369,-0.108859882,-2.358289957,0.001178102,-0.000888792,0.001130202,1.065155625,0.115860648,9.751464844
1784246551.035295,0.009800369,-0.108859882,-2.358289957,0.001552258,-0.000309745,0.001082744,1.060934782,0.101097867,9.755849838
1784246551.037289,0.009800369,-0.108859882,-2.358289957,0.001484852,0.000387289,0.000796440,1.051577806,0.104980357,9.730758667
1784246551.039280,0.009800719,-0.108858407,-2.358289957,0.000764151,0.000562984,0.000151710,1.029334664,0.121372163,9.733981133
1784246551.041278,0.009800719,-0.108858407,-2.358289957,-0.000522413,0.000483529,-0.000374491,1.035699487,0.128837064,9.743898392
1784246551.043278,0.009803118,-0.108857505,-2.358289957,-0.001301908,0.000008747,-0.000561325,1.058475852,0.117564224,9.712911606
1784246551.045279,0.009803118,-0.108857505,-2.358289957,-0.001220488,-0.000435672,-0.000444223,1.063347697,0.111321725,9.699875832
1784246551.047284,0.009803118,-0.108857505,-2.358289957,-0.001048499,-0.000294877,0.000004887,1.051145911,0.070366532,9.747572899
1784246551.049283,0.009801710,-0.108857714,-2.358289957,-0.001101662,0.000060608,0.000495652,1.058293104,0.067183331,9.741281509
1784246551.051289,0.009801710,-0.108857714,-2.358289957,-0.001338547,0.000341039,0.000636351,1.056026340,0.102187395,9.737469673
1784246551.053297,0.009801975,-0.108856618,-2.358289957,-0.001390820,-0.000049498,0.000663519,1.080801487,0.110738210,9.750550270
1784246551.055326,0.009801975,-0.108856618,-2.358289957,-0.000779383,-0.000589449,0.000105262,1.053845286,0.108382687,9.752302170
1784246551.057297,0.009801975,-0.108856618,-2.358289957,0.000285549,-0.000592168,-0.000514884,1.052886367,0.139420539,9.736809731
1784246551.059292,0.009802921,-0.108855583,-2.358289957,0.001151539,-0.000473110,-0.000315971,1.074624658,0.155315682,9.730656624
1784246551.061289,0.009802921,-0.108855583,-2.358289957,0.001181648,-0.000722992,0.000006623,1.052321672,0.128783330,9.721496582
1784246551.063293,0.009803833,-0.108855069,-2.358289957,0.000622401,-0.001150529,0.000203235,1.048292756,0.130531520,9.734954834
1784246551.065291,0.009803833,-0.108855069,-2.358289957,0.000042891,-0.000720391,0.000061494,1.056935787,0.103891447,9.748242378
1784246551.067301,0.009803833,-0.108855069,-2.358289957,-0.000121097,0.000023153,-0.000201422,1.042811751,0.084546976,9.721652031
1784246551.069303,0.009802962,-0.108854376,-2.358289957,0.000167769,-0.000123776,-0.000360038,1.034486294,0.064450890,9.727343559
1784246551.071297,0.009802962,-0.108854376,-2.358289957,0.000518400,-0.000681197,-0.000658393,1.051361203,0.088275425,9.749033928
1784246551.073434,0.009802418,-0.108853795,-2.358289957,0.000398649,-0.000669246,-0.000874008,1.066206813,0.090821169,9.742338181
1784246551.075375,0.009802418,-0.108853795,-2.358289957,-0.000174152,-0.000456205,-0.001211233,1.051819444,0.125529334,9.738961220
1784246551.077332,0.009802418,-0.108853795,-2.358289957,0.000152812,-0.000091382,-0.001725324,1.066498876,0.114201009,9.730382919
1784246551.079328,0.009802820,-0.108854376,-2.358289957,0.000843024,0.000309634,-0.001466549,1.073629022,0.110884257,9.742922783
1784246551.081348,0.009802820,-0.108854376,-2.358289957,0.000706060,0.000118262,-0.000559672,1.075192571,0.090798385,9.729345322
1784246551.083361,0.009802056,-0.108854935,-2.358289957,0.000586321,-0.000253264,-0.000171124,1.083048344,0.072334848,9.728338242
1784246551.085397,0.009802056,-0.108854935,-2.358289957,0.001062109,-0.000383449,-0.000301585,1.041664720,0.065162607,9.740358353
1784246551.087334,0.009802056,-0.108854935,-2.358289957,0.001627402,-0.000371211,-0.000630354,1.027164102,0.091276839,9.748580933
1784246551.089358,0.009801788,-0.108853266,-2.358289957,0.001335094,-0.000334711,-0.001195756,1.040120721,0.086211160,9.744525909
1784246551.091347,0.009801788,-0.108853266,-2.358289957,0.000163253,-0.000334555,-0.001482954,1.050181866,0.101363055,9.737907410
1784246551.093356,0.009802571,-0.108852938,-2.358289957,-0.000262391,-0.000721578,-0.000953528,1.063077807,0.128140137,9.729573250
1784246551.095353,0.009802571,-0.108852938,-2.358289957,0.000401758,-0.001176792,-0.000440901,1.039607286,0.116001129,9.714676857
1784246551.097337,0.009802571,-0.108852938,-2.358289957,0.000548232,-0.001104031,-0.000841968,1.043533802,0.106961541,9.718658447
1784246551.099345,0.009804079,-0.108852364,-2.358289957,-0.000352478,-0.000642299,-0.001440346,1.045986176,0.088014111,9.732437134
1784246551.101339,0.009804079,-0.108852364,-2.358289957,-0.000860775,0.000033241,-0.001675563,1.060419559,0.094498686,9.739666939
1784246551.103335,0.009804258,-0.108852491,-2.358289957,-0.000312833,0.000260708,-0.001395637,1.078425765,0.099186741,9.741058350
1784246551.105332,0.009804258,-0.108852491,-2.358289957,0.000641184,0.000003573,-0.000723841,1.054905891,0.085443102,9.762915611
1784246551.107343,0.009804258,-0.108852491,-2.358289957,0.000833010,0.000021995,-0.000613186,1.044998050,0.080419801,9.731043816
1784246551.109347,0.009803524,-0.108851306,-2.358289957,-0.000218184,0.000159129,-0.001003125,1.069514990,0.067074575,9.736361504
1784246551.111347,0.009803524,-0.108851306,-2.358289957,-0.000659235,0.000253758,-0.000997875,1.048426390,0.103721246,9.724471092
1784246551.113351,0.009804016,-0.108850531,-2.358289957,0.000085689,0.000327536,-0.000721553,1.051996469,0.103115998,9.740162849
1784246551.115345,0.009804016,-0.108850531,-2.358289957,0.000663152,0.000254914,-0.000520904,1.036531925,0.123450033,9.743864059
1784246551.117352,0.009804016,-0.108850531,-2.358289957,0.000722870,0.000225008,-0.000555697,1.060078621,0.102246955,9.721783638
1784246551.119346,0.009804128,-0.108849987,-2.358289957,0.000658896,0.000241928,-0.000833723,1.071133852,0.090687975,9.752205849
1784246551.121348,0.009804128,-0.108849987,-2.358289957,0.000862281,0.000033577,-0.000712163,1.041247010,0.067033328,9.730056763
1784246551.123345,0.009802444,-0.108848758,-2.358289957,0.001204245,-0.000448265,0.000024727,1.058790565,0.071209237,9.741308212
1784246551.125352,0.009802444,-0.108848758,-2.358289957,0.001002548,-0.000651422,0.000724118,1.055611134,0.105700552,9.748251915
1784246551.127348,0.009802444,-0.108848758,-2.358289957,0.000485178,-0.000071805,0.000641372,1.035682797,0.129110143,9.768558502
1784246551.129360,0.009804213,-0.108847380,-2.358289957,0.000399070,0.000351179,-0.000050255,1.056071281,0.107000515,9.753640175
1784246551.131361,0.009804213,-0.108847380,-2.358289957,0.000603740,0.000279226,-0.000682153,1.056071281,0.107000515,9.753640175
1784246551.133356,0.009803941,-0.108845264,-2.358289957,0.000446355,0.000442342,-0.000528009,1.087120056,0.076600581,9.751233101
1784246551.135386,0.009803941,-0.108845264,-2.358289957,0.000025216,0.000776703,0.000198759,1.087120056,0.076600581,9.751233101
1784246551.137356,0.009803941,-0.108845264,-2.358289957,-0.000357422,0.000469544,-0.000321992,1.064208865,0.073030651,9.727429390
1784246551.139365,0.009802798,-0.108846210,-2.358289957,-0.000551079,-0.000276228,-0.000848542,1.072154760,0.101379856,9.758999825
1784246551.141358,0.009803749,-0.108846433,-2.358289957,-0.000385766,-0.000685245,-0.000183888,1.072804928,0.117958218,9.757762909
1784246551.143353,0.009803749,-0.108846433,-2.358289957,-0.000330442,-0.000316537,0.000303917,1.058355331,0.110129751,9.750525475
1784246551.145360,0.009803749,-0.108846433,-2.358289957,-0.000483053,0.000441893,0.000372871,1.065595865,0.114571415,9.742938042
1784246551.147363,0.009804775,-0.108846068,-2.358289957,-0.000360884,0.000742552,-0.000011173,1.068901300,0.091209196,9.745930672
1784246551.149374,0.009804775,-0.108846068,-2.358289957,-0.000131172,0.000652526,-0.000039718,1.079295754,0.095312111,9.717272758
1784246551.151377,0.009804300,-0.108846635,-2.358289957,-0.000110240,0.000408973,-0.000133944,1.088892460,0.074779376,9.752120972
1784246551.153379,0.009804300,-0.108846635,-2.358289957,0.000067855,0.000160118,-0.000581813,1.084152102,0.089758880,9.733382225
1784246551.155383,0.009804300,-0.108846635,-2.358289957,0.000123239,-0.000130577,-0.000547773,1.043676019,0.083058037,9.740474701
1784246551.157377,0.009803513,-0.108845972,-2.358289957,-0.000433356,-0.000389242,-0.000632496,1.056252599,0.084215522,9.744079590
1784246551.159377,0.009803513,-0.108845972,-2.358289957,-0.000674989,-0.000506561,-0.000837974,1.043711782,0.122551151,9.731312752
1784246551.161377,0.009805145,-0.108844429,-2.358289957,-0.000218306,-0.000546511,-0.000715626,1.067867994,0.118011899,9.759102821
1784246551.163374,0.009805145,-0.108844429,-2.358289957,-0.000066474,-0.000591331,-0.000681027,1.039110422,0.113601722,9.737976074
1784246551.165380,0.009805145,-0.108844429,-2.358289957,-0.000409604,-0.000746080,-0.000494758,1.069597602,0.111800134,9.747408867
1784246551.167378,0.009806445,-0.108845130,-2.358289957,-0.000351098,-0.000649248,0.000148046,1.067851543,0.112614483,9.698991776
1784246551.169382,0.009806445,-0.108845130,-2.358289957,0.000189543,0.000281213,0.000405283,1.086340308,0.084430911,9.722590446
1784246551.171391,0.009805494,-0.108845770,-2.358289957,0.000528116,0.000851977,0.000537837,1.084837079,0.070644036,9.710844040
1784246551.173392,0.009805494,-0.108845770,-2.358289957,0.000599809,0.000205824,0.000935088,1.055375457,0.049229424,9.751028061
1784246551.175390,0.009805494,-0.108845770,-2.358289957,0.000726305,-0.000155705,0.000900275,1.046811104,0.081756599,9.728811264
1784246551.177390,0.009804236,-0.108844720,-2.358289957,0.000645373,0.000302539,0.000914763,1.062709332,0.096862353,9.718164444
1784246551.179391,0.009804236,-0.108844720,-2.358289957,0.000189771,0.000870978,0.001521704,1.050642490,0.100639425,9.712796211
1784246551.181396,0.009804503,-0.108844787,-2.358289957,-0.000414836,0.001144138,0.001944583,1.043093324,0.108654208,9.733464241
1784246551.183391,0.009804503,-0.108844787,-2.358289957,-0.000531438,0.001143088,0.002017373,1.049808145,0.108443968,9.750954628
1784246551.185397,0.009804503,-0.108844787,-2.358289957,0.000613294,0.001182287,0.002198939,1.056978822,0.106258437,9.730324745
1784246551.187393,0.009804746,-0.108843990,-2.358289957,0.001502432,0.001300244,0.002331794,1.034164071,0.111148909,9.713746071
1784246551.189443,0.009804746,-0.108843990,-2.358289957,0.001244334,0.001111164,0.001902103,1.027616501,0.090489641,9.732437134
1784246551.191412,0.009804701,-0.108842053,-2.358289957,0.001016626,0.000492299,0.000864262,1.049811363,0.108469404,9.747367859
1784246551.193443,0.009804701,-0.108842053,-2.358289957,0.000795923,-0.000081948,-0.000217502,1.043244839,0.084823847,9.744967461
1784246551.195447,0.009804701,-0.108842053,-2.358289957,0.000237828,-0.000354881,-0.000536030,1.041237593,0.104953609,9.753165245
1784246551.197427,0.009804928,-0.108841285,-2.358289957,0.000160281,-0.000058039,0.000011439,1.058192253,0.095871307,9.739673615
1784246551.199421,0.009804928,-0.108841285,-2.358289957,0.000400077,0.000802984,0.000414327,1.084744096,0.103852578,9.766650200
1784246551.201413,0.009805062,-0.108842179,-2.358290195,0.000244812,0.000914688,0.000235083,1.059149504,0.101197198,9.745087624
1784246551.203419,0.009805062,-0.108842179,-2.358290195,0.000180179,0.000525791,0.000390791,1.065935612,0.105196662,9.737498283
1784246551.205420,0.009805062,-0.108842179,-2.358290195,0.000645424,0.000777599,0.000399708,1.075815558,0.102300100,9.685932159
1784246551.207418,0.009805084,-0.108842425,-2.358289957,0.000897511,0.001111060,-0.000423482,1.055421472,0.087991953,9.718547821
1784246551.209416,0.009805084,-0.108842425,-2.358289957,0.000424728,0.000944312,-0.000575198,1.027811289,0.070242971,9.743963242
1784246551.211427,0.009804210,-0.108841270,-2.358290195,0.000200278,0.000349691,-0.000056353,1.035888433,0.069332585,9.731411934
1784246551.213434,0.009804210,-0.108841270,-2.358290195,0.000488622,-0.000123690,0.000213803,1.018647671,0.090645961,9.726600647
1784246551.215433,0.009804210,-0.108841270,-2.358290195,0.000658617,-0.000723087,0.000896526,1.055153131,0.103606388,9.728511810
1784246551.217445,0.009803860,-0.108840495,-2.358289957,0.000533181,-0.000849740,0.001178592,1.043677449,0.120660737,9.745198250
1784246551.219460,0.009803860,-0.108840495,-2.358289957,0.000272537,-0.000070684,0.000486069,1.043144226,0.113108382,9.737078667
1784246551.221437,0.009804593,-0.108840019,-2.358289957,-0.000062234,0.000462746,-0.000073002,1.061102152,0.114578038,9.750107765
1784246551.223428,0.009804593,-0.108840019,-2.358289957,-0.000469517,0.000781331,-0.000517033,1.049155235,0.089006521,9.713169098
1784246551.225441,0.009804593,-0.108840019,-2.358289957,-0.000459890,0.001025014,-0.000334503,1.062857032,0.110186733,9.734389305
1784246551.227432,0.009805095,-0.108839996,-2.358289957,-0.000021208,0.001104674,0.000322112,1.051434159,0.094524629,9.752211571
1784246551.229435,0.009805095,-0.108839996,-2.358289957,-0.000298595,0.001098252,0.000618623,1.057564616,0.082307860,9.757966995
1784246551.231433,0.009805442,-0.108839765,-2.358289957,-0.000991472,0.000724536,0.000236082,1.074922204,0.105990313,9.735719681
1784246551.233442,0.009805442,-0.108839765,-2.358289957,-0.001312959,0.000561627,-0.000583249,1.037881613,0.124271475,9.751941681
1784246551.235441,0.009805442,-0.108839765,-2.358289957,-0.000984904,0.000668996,-0.000871089,1.041581750,0.133607224,9.755590439
1784246551.237455,0.009807454,-0.108838893,-2.358289957,0.000119831,0.000610112,-0.000791337,1.042667389,0.111271426,9.744239807
1784246551.239447,0.009807454,-0.108838893,-2.358289957,0.001248180,0.000488964,-0.000281865,1.072108746,0.095747136,9.732065201
1784246551.241446,0.009807659,-0.108839974,-2.358290195,0.001505276,-0.000147081,-0.000582587,1.077602744,0.068680264,9.748035431
1784246551.243446,0.009807659,-0.108839974,-2.358290195,0.001055267,-0.001157663,-0.001437534,1.060011029,0.096445717,9.718606949
1784246551.245451,0.009807659,-0.108839974,-2.358290195,0.001056049,-0.001451741,-0.001353348,1.046609998,0.103169084,9.742398262
1784246551.247449,0.009808591,-0.108838953,-2.358290195,0.001353207,-0.000915418,-0.000926331,1.060349107,0.088675186,9.739628792
1784246551.249450,0.009808591,-0.108838953,-2.358290195,0.001337186,-0.000253214,-0.000451643,1.070154548,0.120350145,9.741186142
1784246551.251447,0.009810405,-0.108839892,-2.358290195,0.001108432,0.000266205,0.000110644,1.074414611,0.065105028,9.752493858
1784246551.253458,0.009810405,-0.108839892,-2.358290195,0.001177361,0.000695943,0.000538977,1.061588883,0.080118060,9.743610382
1784246551.255455,0.009810405,-0.108839892,-2.358290195,0.001350168,0.000560025,0.000469618,1.075802922,0.104631737,9.736159325
1784246551.257461,0.009810766,-0.108841300,-2.358290195,0.001235698,-0.000075047,0.000199101,1.060824156,0.128899485,9.752889633
1784246551.259458,0.009810766,-0.108841300,-2.358290195,0.001403600,-0.000720059,-0.000052740,1.075384617,0.107309356,9.738418579
1784246551.261458,0.009810513,-0.108841918,-2.358290195,0.001886028,-0.001337600,-0.000272558,1.052370191,0.095225006,9.715004921
1784246551.263474,0.009810513,-0.108841918,-2.358290195,0.001988800,-0.001335917,-0.000250054,1.077190757,0.108592086,9.743807793
1784246551.265472,0.009810513,-0.108841918,-2.358290195,0.001833729,-0.000881679,-0.000321761,1.058215022,0.098079309,9.744172096
1784246551.267471,0.009811270,-0.108841948,-2.358290195,0.001865724,-0.000674012,-0.001078475,1.029575348,0.104731433,9.742392540
1784246551.269469,0.009811270,-0.108841948,-2.358290195,0.001905554,-0.000701902,-0.001793172,1.073150396,0.106601179,9.715995789
1784246551.271466,0.009812003,-0.108843543,-2.358290195,0.001611674,-0.000449747,-0.002150350,1.064556003,0.102923237,9.744656563
1784246551.273469,0.009812003,-0.108843543,-2.358290195,0.000745798,-0.000278909,-0.002104777,1.063373804,0.076775275,9.706378937
1784246551.275471,0.009812003,-0.108843543,-2.358290195,-0.000070741,-0.000497646,-0.001550282,1.065795898,0.091935888,9.712306976
1784246551.277474,0.009811273,-0.108843826,-2.358290195,-0.000100875,-0.000302214,-0.001287879,1.051588655,0.105876289,9.730765343
1784246551.279479,0.009811273,-0.108843826,-2.358290195,0.000095576,-0.000070985,-0.001294449,1.054618955,0.098884515,9.763450623
1784246551.281493,0.009811217,-0.108843945,-2.358290195,0.000051244,-0.000425038,-0.000887252,1.069336414,0.090691894,9.754894257
1784246551.283481,0.009811217,-0.108843945,-2.358290195,-0.000125667,-0.000593842,-0.000193207,1.079434872,0.109783232,9.761302948
1784246551.285482,0.009811217,-0.108843945,-2.358290195,-0.000286609,-0.000338485,0.000314454,1.051133037,0.144228026,9.757013321
1784246551.287478,0.009813203,-0.108843759,-2.358290195,-0.000223277,-0.000154961,0.000774812,1.031257272,0.131274253,9.724182129
1784246551.289483,0.009813203,-0.108843759,-2.358290195,-0.000684856,-0.000142117,0.001162854,1.052517414,0.109759703,9.750069618
1784246551.291481,0.009813747,-0.108843364,-2.358290195,-0.001453647,-0.000142111,0.000794933,1.087424636,0.100482412,9.731660843
1784246551.293491,0.009813747,-0.108843364,-2.358290195,-0.001797420,-0.000303665,0.000075055,1.091040611,0.102266423,9.726295471
1784246551.295511,0.009813747,-0.108843364,-2.358290195,-0.002177054,-0.000601724,-0.000161749,1.057328701,0.097773232,9.725786209
1784246551.297497,0.009814108,-0.108843036,-2.358290195,-0.002329201,-0.001088195,-0.000660495,1.031853437,0.106596291,9.728060722
1784246551.299497,0.009814108,-0.108843036,-2.358290195,-0.001771297,-0.001502795,-0.001185565,1.018281698,0.099410608,9.754901886
1784246551.301496,0.009814149,-0.108841233,-2.358290195,-0.001234421,-0.001236236,-0.000589900,1.019333363,0.111154199,9.739734650
1784246551.303489,0.009814149,-0.108841233,-2.358290195,-0.000913119,-0.000754860,0.000098251,1.070980072,0.113692366,9.730834007
1784246551.305490,0.009814149,-0.108841233,-2.358290195,-0.000678465,-0.000490199,-0.000050783,1.057344079,0.100730889,9.750911713
1784246551.307491,0.009814649,-0.108840413,-2.358290195,-0.000938761,-0.000058425,-0.000212861,1.069895983,0.099261008,9.745983124
1784246551.309507,0.009814649,-0.108840413,-2.358290195,-0.001382039,0.000309973,0.000138310,1.035367250,0.137462184,9.728710175
1784246551.311491,0.009816283,-0.108839065,-2.358290195,-0.001113652,0.000155887,0.000735705,1.047365785,0.125850737,9.701745987
1784246551.313500,0.009816283,-0.108839065,-2.358290195,-0.000246230,0.000201484,0.000667398,1.059946299,0.093096964,9.748622894
1784246551.315499,0.009816283,-0.108839065,-2.358290195,-0.000009811,0.000349728,0.000166354,1.058586955,0.091792569,9.745474815
1784246551.317504,0.009815888,-0.108838700,-2.358290195,-0.000619609,0.000051841,-0.000148000,1.053078413,0.117124841,9.721423149
1784246551.319503,0.009815888,-0.108838700,-2.358290195,-0.001204228,0.000197217,-0.000519622,1.055582762,0.103044562,9.743751526
1784246551.321515,0.009816339,-0.108837947,-2.358290195,-0.001281173,0.000820783,-0.000696648,1.035313606,0.096612491,9.739655495
1784246551.323500,0.009816339,-0.108837947,-2.358290195,-0.001017820,0.000696179,-0.000918585,1.059956670,0.091962919,9.719027519
1784246551.325506,0.009816339,-0.108837947,-2.358290195,-0.000976887,0.000065951,-0.000902992,1.070386291,0.100799456,9.717748642
1784246551.327514,0.009816704,-0.108839191,-2.358290195,-0.001684424,0.000079777,-0.000402770,1.042626023,0.107297003,9.736145973
1784246551.329549,0.009816704,-0.108839191,-2.358290195,-0.002178141,0.000518939,0.000397305,1.029991746,0.101227857,9.730265617
1784246551.331523,0.009817353,-0.108837336,-2.358290434,-0.001871777,0.000614254,0.001214632,1.034707308,0.119994260,9.729044914
1784246551.333517,0.009817353,-0.108837336,-2.358290434,-0.001492895,-0.000105968,0.001156028,1.051910758,0.095954977,9.739218712
1784246551.335515,0.009817353,-0.108837336,-2.358290434,-0.001221885,-0.001115902,0.001002314,1.040359735,0.106741048,9.755416870
1784246551.337519,0.009817956,-0.108836375,-2.358290434,-0.000564742,-0.001119282,0.001003456,1.041856289,0.117233604,9.726345062
1784246551.339516,0.009817956,-0.108836375,-2.358290434,-0.000115743,-0.000632457,0.000519568,1.044237733,0.131666407,9.771720886
1784246551.341520,0.009819475,-0.108835578,-2.358290434,-0.000713730,-0.000555601,0.000127939,1.059583068,0.100260541,9.750014305
1784246551.343517,0.009819475,-0.108835578,-2.358290434,-0.001045281,-0.000774486,0.000455038,1.069166780,0.077599280,9.769156456
1784246551.345518,0.009819475,-0.108835578,-2.358290434,-0.000655769,-0.001085181,0.000765693,1.050768495,0.075392060,9.734601974
1784246551.347523,0.009818676,-0.108835235,-2.358290434,-0.000385997,-0.001038392,0.000506102,1.065636039,0.080136277,9.733751297
1784246551.349532,0.009818676,-0.108835235,-2.358290434,0.000049633,-0.000646458,0.000247159,1.042861462,0.090208307,9.744554520
1784246551.351527,0.009818776,-0.108834617,-2.358290434,0.000583613,-0.000416607,-0.000049754,1.029842615,0.126697436,9.740292549
1784246551.353524,0.009818776,-0.108834617,-2.358290434,0.000302636,-0.000314600,-0.000159171,1.081384897,0.119901538,9.721019745
1784246551.355534,0.009818776,-0.108834617,-2.358290434,-0.000281159,-0.000024749,0.000501842,1.057200432,0.125028282,9.736721039
1784246551.357530,0.009820257,-0.108834706,-2.358290434,-0.000057258,-0.000017369,0.000784710,1.048478842,0.108188130,9.726293564
1784246551.359531,0.009820257,-0.108834706,-2.358290434,0.000935728,-0.000340499,0.000268192,1.063474655,0.088107489,9.750836372
1784246551.361531,0.009819506,-0.108835332,-2.358290434,0.001354163,-0.000303949,0.000109567,1.079337001,0.098879918,9.719538689
1784246551.363530,0.009819506,-0.108835332,-2.358290434,0.000628833,-0.000212770,0.000082992,1.045456767,0.081303626,9.731946945
1784246551.365533,0.009819506,-0.108835332,-2.358290434,0.000080799,-0.000290130,0.000062800,1.070015430,0.071125910,9.732800484
1784246551.367534,0.009817729,-0.108835600,-2.358290195,0.000118063,-0.000064533,0.000266976,1.055075288,0.097722486,9.736991882
1784246551.369537,0.009817729,-0.108835600,-2.358290195,0.000035956,-0.000041011,0.000089826,1.056267500,0.122733206,9.746120453
1784246551.371538,0.009818988,-0.108836249,-2.358290195,-0.000102867,-0.000687666,-0.000259671,1.073339105,0.086306803,9.734246254
1784246551.373543,0.009818988,-0.108836249,-2.358290195,0.000175472,-0.001110835,-0.000188474,1.059943557,0.093074702,9.751762390
1784246551.375540,0.009818988,-0.108836249,-2.358290195,0.000531903,-0.000505130,0.000247816,1.051589966,0.107102513,9.747361183
1784246551.377544,0.009819413,-0.108836330,-2.358290195,0.000360040,0.000121871,0.000385481,1.076327682,0.074120745,9.741344452
1784246551.379574,0.009819413,-0.108836330,-2.358290195,-0.000133654,-0.000187595,-0.000132849,1.064706564,0.079489954,9.763336182
1784246551.381556,0.009818403,-0.108835854,-2.358290195,-0.000404165,-0.000487212,-0.000312147,1.055755377,0.115349367,9.714240074
1784246551.383552,0.009818403,-0.108835854,-2.358290195,-0.000366614,-0.000621556,0.000135733,1.063168406,0.098155975,9.724449158
1784246551.385598,0.009818403,-0.108835854,-2.358290195,-0.000375135,-0.000700817,0.000425953,1.073551059,0.105000354,9.751402855
1784246551.387564,0.009819007,-0.108836278,-2.358290195,-0.000558711,-0.000537888,0.000187027,1.057518959,0.115484983,9.755042076
1784246551.389561,0.009819007,-0.108836278,-2.358290195,-0.000186352,-0.000459987,-0.000094762,1.065347791,0.093161516,9.729799271
1784246551.391557,0.009818198,-0.108836509,-2.358290434,0.000483043,-0.000371531,-0.000299233,1.061557055,0.076219954,9.724756241
1784246551.393577,0.009818198,-0.108836509,-2.358290434,0.000686121,0.000110511,-0.000536572,1.063728809,0.108758219,9.744692802
1784246551.395562,0.009818198,-0.108836509,-2.358290434,0.000669266,0.000318128,-0.000493911,1.073309302,0.084044747,9.737371445
1784246551.397573,0.009818347,-0.108837329,-2.358290434,0.000430590,-0.000322362,-0.000106568,1.077747703,0.079955608,9.737347603
1784246551.399575,0.009818347,-0.108837329,-2.358290434,0.000327107,-0.000952147,0.000247017,1.040750504,0.101820454,9.753592491
1784246551.401571,0.009818600,-0.108836383,-2.358290434,0.000549871,-0.000656416,0.000220449,1.033987164,0.098812290,9.747738838
1784246551.403571,0.009818600,-0.108836383,-2.358290434,0.000050412,0.000144566,-0.000193834,1.068024278,0.092192918,9.735176086
1784246551.405572,0.009818600,-0.108836383,-2.358290434,-0.000934396,0.000141237,-0.000572099,1.056873083,0.097318284,9.727576256
1784246551.407572,0.009818954,-0.108836129,-2.358290434,-0.001113380,-0.000227088,-0.000830792,1.059045553,0.091459692,9.728438377
1784246551.409581,0.009818954,-0.108836129,-2.358290434,-0.000536900,-0.000288479,-0.000782298,1.081666589,0.106418803,9.726313591
1784246551.411574,0.009818977,-0.108836964,-2.358290434,-0.000044581,-0.000263867,-0.000439588,1.095585823,0.107126951,9.727675438
1784246551.413589,0.009818977,-0.108836964,-2.358290434,-0.000192413,-0.000276143,-0.000245056,1.066702366,0.095237806,9.750437737
1784246551.415585,0.009818977,-0.108836964,-2.358290434,-0.000477931,-0.000048072,-0.000282822,1.046572089,0.100033350,9.742379189
1784246551.417589,0.009819059,-0.108835943,-2.358290195,-0.000143484,0.000129894,-0.000255251,1.044909358,0.110419884,9.733925819
1784246551.419582,0.009819059,-0.108835943,-2.358290195,-0.000155639,0.000010421,-0.000255012,1.040756941,0.100654639,9.728478432
1784246551.421584,0.009819059,-0.108834684,-2.358290195,-0.000993824,0.000095760,-0.000489868,1.048285484,0.092477702,9.730675697
1784246551.423584,0.009819059,-0.108834684,-2.358290195,-0.001877660,0.000015664,-0.000463616,1.074654698,0.121611103,9.744786263
1784246551.425590,0.009819059,-0.108834684,-2.358290195,-0.002178734,-0.000065709,-0.000227453,1.071570635,0.088563249,9.735157013
1784246551.427586,0.009818693,-0.108835280,-2.358290195,-0.001562037,0.000192197,-0.000413351,1.078370333,0.094290972,9.736543655
1784246551.429592,0.009818693,-0.108835280,-2.358290195,-0.000950107,0.000273207,-0.001018460,1.056557178,0.110124134,9.754558563
1784246551.431590,0.009820158,-0.108833775,-2.358290195,-0.000540199,0.000385832,-0.001332672,1.056066394,0.107772432,9.771130562
1784246551.433590,0.009820158,-0.108833775,-2.358290195,-0.000475255,0.000701399,-0.001073243,1.052001834,0.101537190,9.710113525
1784246551.435629,0.009820158,-0.108833775,-2.358290195,-0.000451090,0.000428555,-0.001049556,1.052665710,0.083877146,9.735108376
1784246551.437601,0.009819480,-0.108833060,-2.358290195,0.000160576,-0.000063163,-0.001267661,1.058650017,0.096748769,9.741473198
1784246551.439602,0.009819480,-0.108833060,-2.358290195,0.000718844,0.000078179,-0.000900085,1.053102732,0.081348971,9.711777687
1784246551.441601,0.009818932,-0.108832724,-2.358290195,0.000767240,0.000543443,-0.000378134,1.072240353,0.069327578,9.729652405
1784246551.443604,0.009818932,-0.108832724,-2.358290195,0.000428226,0.001302724,-0.000375239,1.059197545,0.068849221,9.757434845
