time_sec,roll_rad,pitch_rad,yaw_rad,gyro_x,gyro_y,gyro_z,acc_x,acc_y,acc_z
1784246674.586760,0.007219608,-0.106617473,-0.995565295,0.001173439,0.000579269,0.000763708,1.048390746,0.065444835,9.751573563
1784246674.588628,0.007219608,-0.106617473,-0.995565295,0.000717193,0.000205013,0.000974281,1.044128656,0.083894171,9.748101234
1784246674.590585,0.007219892,-0.106617272,-0.995565236,0.000496768,0.000150033,0.000659724,1.082761765,0.086589508,9.740533829
1784246674.592530,0.007219892,-0.106617272,-0.995565236,0.000885135,0.000628363,0.000055245,1.074557304,0.075957842,9.738216400
1784246674.594527,0.007219892,-0.106618874,-0.995565236,0.001454553,0.000721632,-0.000368026,1.060805798,0.089543097,9.742773056
1784246674.596553,0.007219892,-0.106618874,-0.995565236,0.001441366,-0.000181971,0.000003501,1.047693729,0.082034066,9.751231194
1784246674.598524,0.007219892,-0.106618874,-0.995565236,0.000509259,-0.000848953,0.000380951,1.055225730,0.073072508,9.737730980
1784246674.600531,0.007220383,-0.106620729,-0.995565236,-0.000072418,-0.000810596,0.000117441,1.047920346,0.063658737,9.751562119
1784246674.602517,0.007220383,-0.106620729,-0.995565236,0.000880661,-0.000632850,-0.000504745,1.070751548,0.057681940,9.731819153
1784246674.604522,0.007219604,-0.106621668,-0.995565176,0.002007636,-0.000528685,-0.000524211,1.056597233,0.074472278,9.727429390
1784246674.606518,0.007219604,-0.106621668,-0.995565176,0.002029510,-0.000505931,0.000723670,1.059752107,0.076163471,9.735960960
1784246674.608530,0.007219604,-0.106621668,-0.995565176,0.001718959,-0.000681059,0.001179855,1.050296664,0.073999874,9.742215157
1784246674.610541,0.007220212,-0.106622398,-0.995565176,0.001662551,-0.000407292,0.000341320,1.069244266,0.083480000,9.761123657
1784246674.612573,0.007220212,-0.106622398,-0.995565176,0.001573025,0.000367533,-0.000085897,1.065641880,0.080994040,9.739136696
1784246674.614533,0.007220424,-0.106622688,-0.995565176,0.001647586,0.000568059,-0.000001786,1.041882396,0.083090588,9.739128113
1784246674.616536,0.007220424,-0.106622688,-0.995565176,0.001839734,0.000170243,0.000453816,1.071461082,0.080404550,9.748554230
1784246674.618530,0.007220424,-0.106622688,-0.995565176,0.001618385,-0.000080000,0.000839520,1.060786247,0.088173784,9.746351242
1784246674.620532,0.007220640,-0.106623754,-0.995565176,0.001008576,-0.000003703,0.000832400,1.043158293,0.077249855,9.739090919
1784246674.622525,0.007220640,-0.106623754,-0.995565176,0.000149141,0.000075461,0.000646166,1.054454088,0.084613346,9.754392624
1784246674.624538,0.007221914,-0.106624991,-0.995565176,-0.000585577,0.000186418,0.000817502,1.065267563,0.086855076,9.734691620
1784246674.626535,0.007221914,-0.106624991,-0.995565176,-0.000778451,0.000103114,0.000689223,1.058676243,0.060582172,9.723754883
1784246674.628534,0.007221914,-0.106624991,-0.995565176,-0.000743445,-0.000603010,-0.000129617,1.079933286,0.073795304,9.717583656
1784246674.630532,0.007221274,-0.106628209,-0.995565116,-0.000175195,-0.001139827,-0.000960069,1.030405402,0.061328735,9.732700348
1784246674.632534,0.007221274,-0.106628209,-0.995565116,0.000519728,-0.000616406,-0.001487296,1.066852212,0.068151273,9.715742111
1784246674.634533,0.007220622,-0.106630467,-0.995565057,0.000498787,-0.000359284,-0.001241092,1.071468711,0.080868423,9.746315002
1784246674.636545,0.007220622,-0.106630467,-0.995565057,0.000601269,-0.000913314,-0.000722693,1.025824666,0.094588429,9.789399147
1784246674.638539,0.007220622,-0.106630467,-0.995565057,0.000839701,-0.001228468,-0.000380396,1.049915433,0.081426993,9.769610405
1784246674.640538,0.007220943,-0.106630623,-0.995565057,0.000926877,-0.001079691,-0.000038806,1.057593822,0.085780255,9.773681641
1784246674.642541,0.007220943,-0.106630623,-0.995565057,0.000974882,-0.000737041,0.000193267,1.072786093,0.080625415,9.778144836
1784246674.644546,0.007221993,-0.106631480,-0.995565057,0.000489151,-0.000227608,0.000001914,1.068860769,0.087647766,9.742769241
1784246674.646552,0.007221993,-0.106631480,-0.995565057,-0.000264936,-0.000051053,0.000005210,1.063566446,0.094102681,9.726665497
1784246674.648548,0.007221993,-0.106631480,-0.995565057,-0.000491733,-0.000160788,0.000151210,1.063514590,0.092475802,9.766556740
1784246674.650548,0.007223345,-0.106632754,-0.995565057,-0.000073906,0.000079516,-0.000154912,1.051697969,0.040475182,9.728551865
1784246674.652548,0.007223345,-0.106632754,-0.995565057,0.000452390,0.000667381,-0.000573836,1.037197232,0.066589415,9.736775398
1784246674.654548,0.007223285,-0.106632181,-0.995565176,0.000405155,0.001476158,-0.000534597,1.053473234,0.078699596,9.768701553
1784246674.656551,0.007223285,-0.106632181,-0.995565176,0.000458152,0.001846751,-0.000236314,1.045278788,0.065714024,9.719292641
1784246674.658549,0.007223285,-0.106632181,-0.995565176,0.000815173,0.001360312,-0.000510125,1.088250637,0.094234437,9.726690292
1784246674.660554,0.007224716,-0.106633246,-0.995565116,0.000043589,0.000926632,-0.000639468,1.063952684,0.089550555,9.736051559
1784246674.662550,0.007224716,-0.106633246,-0.995565116,-0.001454599,0.001016112,-0.000624610,1.045526385,0.086310692,9.720769882
1784246674.664558,0.007225167,-0.106633253,-0.995565116,-0.001386159,0.001180881,-0.001279306,1.052563071,0.074555807,9.722943306
1784246674.666563,0.007225167,-0.106633253,-0.995565116,-0.000215885,0.001375066,-0.001140290,1.067004204,0.081103966,9.721205711
1784246674.668566,0.007225167,-0.106633253,-0.995565116,-0.000088501,0.001536811,-0.000137467,1.055064321,0.096419930,9.731155396
1784246674.670568,0.007225900,-0.106633559,-0.995565116,-0.000321043,0.001623368,0.000393818,1.019233704,0.066291936,9.747963905
1784246674.672564,0.007225900,-0.106633559,-0.995565116,-0.000053727,0.001898923,0.000584161,1.014890909,0.077214964,9.731890678
1784246674.674565,0.007226425,-0.106632859,-0.995565116,0.000141057,0.001959763,0.000054128,1.037449241,0.087221071,9.733321190
1784246674.676567,0.007226425,-0.106632859,-0.995565116,0.000135812,0.001614227,-0.001074526,1.037515998,0.092205882,9.725283623
1784246674.678565,0.007226425,-0.106632859,-0.995565116,0.000201946,0.001233213,-0.001482155,1.051248312,0.077657923,9.730135918
1784246674.680573,0.007226630,-0.106633075,-0.995565116,0.000192372,0.000807297,-0.000967696,1.050878644,0.085177258,9.744527817
1784246674.682568,0.007226630,-0.106633075,-0.995565116,-0.000009771,0.000841110,-0.000591311,1.049088597,0.085238405,9.739148140
1784246674.684587,0.007227006,-0.106632575,-0.995565116,-0.000476782,0.001373722,-0.000405056,1.028329253,0.076457798,9.751176834
1784246674.686579,0.007227006,-0.106632575,-0.995565116,-0.000981918,0.001547844,-0.000324980,1.005122781,0.088289276,9.767370224
1784246674.688578,0.007227006,-0.106632575,-0.995565116,-0.000791827,0.001417570,-0.000411606,1.044664741,0.092278853,9.765192986
1784246674.690609,0.007227833,-0.106631503,-0.995565116,-0.000311466,0.001262327,-0.000041261,1.062792420,0.068844542,9.751609802
1784246674.692588,0.007227833,-0.106631503,-0.995565116,-0.000089926,0.000988404,0.000263534,1.056159139,0.074967317,9.721603394
1784246674.694582,0.007227930,-0.106632188,-0.995565176,-0.000162784,0.000758370,-0.000002366,1.023845196,0.076134093,9.741755486
1784246674.696586,0.007227930,-0.106632188,-0.995565176,-0.000178403,0.000733717,-0.000086905,1.033705711,0.074705072,9.735928535
1784246674.698586,0.007227930,-0.106632188,-0.995565176,0.000154722,0.000819597,-0.000075158,1.024221063,0.069069088,9.726467133
1784246674.700586,0.007227803,-0.106630601,-0.995565176,0.000830893,0.000788929,-0.000301104,1.023347974,0.072918274,9.753839493
1784246674.702588,0.007227803,-0.106630601,-0.995565176,0.001141274,0.000712451,-0.000123310,1.058438182,0.080081992,9.754367828
1784246674.704594,0.007228008,-0.106630988,-0.995565176,0.000825932,0.000857468,0.000511919,1.049301863,0.067568213,9.766382217
1784246674.706588,0.007228008,-0.106630988,-0.995565176,0.000760072,0.001016781,0.000740563,1.030903578,0.102950960,9.738347054
1784246674.708616,0.007228008,-0.106630988,-0.995565176,0.000747474,0.001025459,0.000744119,1.036203980,0.096140295,9.741447449
1784246674.710635,0.007230154,-0.106630169,-0.995565236,0.000375974,0.000998803,0.000890365,1.047710061,0.083377957,9.751239777
1784246674.712600,0.007230154,-0.106630169,-0.995565236,0.000047894,0.000761801,0.001356636,1.031539202,0.080204733,9.722510338
1784246674.714601,0.007230203,-0.106629074,-0.995565355,-0.000119356,0.000586934,0.001931085,1.029804111,0.048782036,9.733963966
1784246674.716612,0.007230203,-0.106629074,-0.995565355,-0.000232875,0.001110749,0.001811652,1.047026634,0.062888786,9.735416412
1784246674.718605,0.007230203,-0.106629074,-0.995565355,-0.000202545,0.001782763,0.001130734,1.044762969,0.062758550,9.757829666
1784246674.720608,0.007229823,-0.106628023,-0.995565474,-0.000114414,0.001695522,0.000649636,1.027271032,0.063446626,9.755575180
1784246674.722607,0.007229823,-0.106628023,-0.995565474,0.000394513,0.001066098,0.000802166,1.005042553,0.079549469,9.736379623
1784246674.724606,0.007230389,-0.106626377,-0.995565355,0.000820776,0.000732745,0.000950171,1.036490440,0.083505794,9.753471375
1784246674.726605,0.007230389,-0.106626377,-0.995565355,0.000162216,0.001043757,0.000499931,1.050948858,0.089784048,9.726625443
1784246674.728604,0.007230389,-0.106626377,-0.995565355,-0.000713310,0.001367135,-0.000243345,1.051193237,0.073575392,9.737280846
1784246674.730612,0.007230493,-0.106627099,-0.995565474,-0.001046634,0.001382111,-0.000568937,1.016106844,0.067660168,9.750212669
1784246674.732608,0.007230493,-0.106627099,-0.995565474,-0.001203482,0.001135788,-0.000103404,1.039453626,0.067472495,9.734541893
1784246674.734612,0.007230080,-0.106626004,-0.995565474,-0.001067407,0.000701546,0.000252762,1.032481909,0.047012933,9.725884438
1784246674.736614,0.007230080,-0.106626004,-0.995565474,-0.000424271,0.000435994,0.000080130,1.025509357,0.066973813,9.766804695
1784246674.738614,0.007230080,-0.106626004,-0.995565474,0.000317711,0.000472920,0.000064397,1.017136574,0.078418821,9.747591972
1784246674.740616,0.007230717,-0.106623866,-0.995565593,0.000405148,0.000449380,0.000268557,1.030824184,0.060681075,9.760044098
1784246674.742625,0.007230717,-0.106623866,-0.995565593,-0.000020795,0.000416192,0.000957973,1.020783067,0.081657976,9.726544380
1784246674.744620,0.007231246,-0.106623285,-0.995565593,-0.000313857,0.000407172,0.001893560,1.046718121,0.073728263,9.723829269
1784246674.746621,0.007231246,-0.106623285,-0.995565593,-0.000490017,0.000333182,0.001762477,1.054519176,0.087965295,9.723927498
1784246674.748662,0.007231246,-0.106623285,-0.995565593,-0.000472106,0.000281800,0.000999315,1.053119659,0.085129440,9.747221947
1784246674.750643,0.007232170,-0.106623694,-0.995565534,-0.000168555,0.000436903,0.000823981,1.041347980,0.077152021,9.756125450
1784246674.752623,0.007232170,-0.106623694,-0.995565534,0.000071480,0.000621797,0.000678631,1.044345856,0.100198835,9.723100662
1784246674.754625,0.007233459,-0.106624380,-0.995565593,0.000024930,0.000362453,0.000642405,1.018899798,0.075714417,9.746679306
1784246674.756625,0.007233459,-0.106624380,-0.995565593,-0.000336164,0.000015058,0.000614612,1.033208609,0.070275724,9.729621887
1784246674.758632,0.007233459,-0.106624380,-0.995565593,-0.000702731,0.000143298,0.000235289,0.993747056,0.036625937,9.744162560
1784246674.760632,0.007231279,-0.106622100,-0.995565712,-0.000655926,0.000844978,0.000016999,1.006051779,0.052152526,9.743825912
1784246674.762633,0.007231279,-0.106622100,-0.995565712,-0.000587987,0.001087340,-0.000396192,0.996045172,0.078669950,9.750264168
1784246674.764631,0.007231790,-0.106619611,-0.995565832,-0.000549258,0.000273949,-0.000684678,1.017965078,0.072189912,9.739930153
1784246674.766635,0.007231790,-0.106619611,-0.995565832,-0.000391828,0.000019339,-0.000459506,1.050035834,0.087241329,9.707778931
1784246674.768633,0.007231790,-0.106619611,-0.995565832,-0.000253474,0.000337912,-0.000346780,1.032650232,0.062526226,9.749298096
1784246674.770639,0.007231216,-0.106619224,-0.995565832,-0.000246674,0.000141789,-0.000718490,1.017305374,0.056345318,9.764038086
1784246674.772638,0.007231216,-0.106619224,-0.995565832,-0.000422729,-0.000104692,-0.001387282,0.997696936,0.066170812,9.740770340
1784246674.774661,0.007230717,-0.106617548,-0.995565832,-0.000477412,-0.000036819,-0.001259233,0.998780370,0.045032620,9.750050545
1784246674.776649,0.007230717,-0.106617548,-0.995565832,0.000044419,0.000254686,-0.000531896,1.009747267,0.060236596,9.734466553
1784246674.778649,0.007230717,-0.106617548,-0.995565832,0.000460491,0.000343540,-0.000472016,1.018157005,0.051920973,9.754596710
1784246674.780648,0.007229663,-0.106615774,-0.995565891,0.000109231,0.000056338,-0.000593862,1.021838188,0.058677074,9.742986679
1784246674.782653,0.007229663,-0.106615774,-0.995565891,-0.000234783,0.000116393,-0.000410487,1.016701341,0.078936122,9.738628387
1784246674.784653,0.007230140,-0.106614478,-0.995565891,-0.000279028,0.000947115,0.000179107,1.030015588,0.068689100,9.769510269
1784246674.786670,0.007230140,-0.106614478,-0.995565891,0.000050739,0.001566937,0.000519017,1.037869573,0.048186071,9.740243912
1784246674.788656,0.007230140,-0.106614478,-0.995565891,0.000340749,0.001481500,0.000186068,1.032548547,0.055644643,9.772118568
1784246674.790694,0.007229048,-0.106613800,-0.995565832,0.000328436,0.000879703,0.000265090,1.027275681,0.064294852,9.762306213
1784246674.792671,0.007229048,-0.106613800,-0.995565832,0.000203863,-0.000188200,0.000445328,1.014767051,0.067321666,9.737207413
1784246674.794668,0.007229364,-0.106612504,-0.995565891,-0.000410035,-0.001010085,-0.000146519,1.028095007,0.057182755,9.752845764
1784246674.796663,0.007229364,-0.106612504,-0.995565891,-0.000363477,-0.001179727,-0.000971638,1.046200275,0.069540210,9.746665955
1784246674.798667,0.007229364,-0.106612504,-0.995565891,0.000378303,-0.000988838,-0.001262971,1.026288748,0.056710090,9.759566307
1784246674.800664,0.007228318,-0.106611453,-0.995565832,0.000793144,-0.000688312,-0.001167623,1.020199418,0.034904696,9.749558449
1784246674.802670,0.007228318,-0.106611453,-0.995565832,0.001078094,-0.000397089,-0.001115839,1.022076607,0.040800568,9.736146927
1784246674.804668,0.007226775,-0.106610261,-0.995565832,0.001065951,-0.000364661,-0.000736482,1.024743199,0.037725747,9.722680092
1784246674.806677,0.007226775,-0.106610261,-0.995565832,0.000711820,-0.000481861,-0.000371198,1.004468799,0.069652356,9.743041039
1784246674.808670,0.007226775,-0.106610261,-0.995565832,0.000435915,-0.000689166,-0.000737613,1.019320488,0.072245792,9.729620934
1784246674.810688,0.007227717,-0.106608048,-0.995565832,0.000559960,-0.000879688,-0.001004247,1.019198775,0.061964948,9.726417542
1784246674.812672,0.007227717,-0.106608048,-0.995565832,0.000182580,-0.000780002,-0.001107642,1.005194902,0.093315430,9.753504753
1784246674.814676,0.007230519,-0.106606647,-0.995565891,-0.000778353,-0.000662436,-0.001436529,1.039400816,0.099782318,9.727574348
1784246674.816681,0.007230519,-0.106606647,-0.995565891,-0.000970472,-0.000367936,-0.001403373,1.026781201,0.095044345,9.723498344
1784246674.818686,0.007230519,-0.106606647,-0.995565891,-0.000351617,-0.000197909,-0.001324105,1.044104815,0.081679799,9.744501114
1784246674.820681,0.007230951,-0.106606238,-0.995565832,0.000367868,-0.000310932,-0.001267253,1.046710610,0.073667862,9.732346535
1784246674.822683,0.007230951,-0.106606238,-0.995565832,0.000731522,-0.000158322,-0.001098420,1.045734048,0.031412646,9.753594398
1784246674.824681,0.007229536,-0.106606491,-0.995565891,0.000726960,0.000117640,-0.000956885,1.056210279,0.043454845,9.742473602
1784246674.826685,0.007229536,-0.106606491,-0.995565891,0.000848111,0.000172011,-0.000637776,1.025834203,0.055048008,9.742070198
1784246674.828682,0.007229536,-0.106606491,-0.995565891,0.001094423,-0.000134504,-0.000009845,1.039775610,0.056741111,9.730885506
1784246674.830695,0.007228787,-0.106605828,-0.995565891,0.001255956,-0.000462167,-0.000112621,1.050538540,0.056555439,9.737620354
1784246674.832685,0.007228787,-0.106605828,-0.995565891,0.001574152,-0.000663821,-0.000710469,1.033611774,0.067883909,9.750229836
1784246674.834693,0.007228553,-0.106604539,-0.995566070,0.001824011,-0.000758469,-0.000892950,1.064548612,0.064869404,9.740376472
1784246674.836691,0.007228553,-0.106604539,-0.995566070,0.001701563,-0.000589261,-0.001169457,1.046732426,0.077083021,9.756130219
1784246674.838700,0.007228553,-0.106604539,-0.995566070,0.001464822,-0.000646831,-0.000974992,1.043445468,0.063811623,9.738108635
1784246674.840700,0.007227129,-0.106604099,-0.995566010,0.001324009,-0.001050644,-0.000582566,1.054864168,0.079845361,9.731048584
1784246674.842696,0.007227129,-0.106604099,-0.995566010,0.001473196,-0.001455971,-0.000224700,1.026710510,0.054464534,9.759552002
1784246674.844695,0.007225967,-0.106603958,-0.995566070,0.001310057,-0.001732420,0.000378659,1.049638033,0.058164824,9.764977455
1784246674.846730,0.007225967,-0.106603958,-0.995566070,0.001030948,-0.001803321,0.000367377,1.045642138,0.061387256,9.760063171
1784246674.848699,0.007225967,-0.106603958,-0.995566070,0.001013225,-0.001564668,-0.000342950,1.018778682,0.065033294,9.736746788
1784246674.850729,0.007225859,-0.106602095,-0.995566130,0.000926847,-0.001410453,-0.000463503,1.036957264,0.083643131,9.733297348
1784246674.852713,0.007225859,-0.106602095,-0.995566130,0.000992206,-0.001015047,0.000028115,1.038486958,0.062480111,9.745268822
1784246674.854712,0.007225688,-0.106603131,-0.995566130,0.001078361,-0.000511313,0.000369465,1.041997075,0.054107267,9.719216347
1784246674.856706,0.007225688,-0.106603131,-0.995566130,0.000738830,-0.000571659,0.000560959,1.059624076,0.064211592,9.715710640
1784246674.858712,0.007225688,-0.106603131,-0.995566130,-0.000322085,-0.000606848,0.000699217,1.036339402,0.070155986,9.740832329
1784246674.860711,0.007224883,-0.106601812,-0.995566070,-0.001127428,-0.000237699,0.001054809,1.056847095,0.058308132,9.731808662
1784246674.862714,0.007224883,-0.106601812,-0.995566070,-0.001283112,-0.000190855,0.001547976,1.047847152,0.056596294,9.736721039
1784246674.864713,0.007224731,-0.106601886,-0.995566070,-0.001274561,-0.000659808,0.001543597,1.044664383,0.054685704,9.759122849
1784246674.866719,0.007224731,-0.106601886,-0.995566070,-0.000777241,-0.000859195,0.000964322,1.042574406,0.064843044,9.720630646
1784246674.868721,0.007224731,-0.106601886,-0.995566070,-0.000139208,-0.000645776,0.000273986,1.037167549,0.064733990,9.745730400
1784246674.870726,0.007224470,-0.106601521,-0.995566070,0.000291338,-0.000275049,-0.000047254,1.043920040,0.066442765,9.745299339
1784246674.872719,0.007224470,-0.106601521,-0.995566070,0.000526817,-0.000404102,0.000366243,1.059782505,0.043675575,9.768033981
1784246674.874731,0.007223736,-0.106602602,-0.995566070,0.000927782,-0.000987454,0.000809524,1.039534688,0.076218672,9.764636040
1784246674.876721,0.007223736,-0.106602602,-0.995566070,0.001565080,-0.001411826,0.000428981,1.048463821,0.071290590,9.748472214
1784246674.878725,0.007223736,-0.106602602,-0.995566070,0.001920349,-0.001756131,0.000205546,1.034473300,0.063942499,9.735858917
1784246674.880729,0.007223330,-0.106602490,-0.995566070,0.001817697,-0.001792711,0.000964037,1.058019400,0.082349807,9.751243591
1784246674.882730,0.007223330,-0.106602490,-0.995566070,0.001496261,-0.001240172,0.001429166,1.055245876,0.076068319,9.757476807
1784246674.884731,0.007223870,-0.106603406,-0.995566010,0.001663445,-0.000727787,0.000758356,1.054522753,0.088803984,9.732003212
1784246674.886745,0.007223870,-0.106603406,-0.995566010,0.001563954,-0.000818233,-0.000040138,1.058180690,0.056975614,9.727766991
1784246674.888732,0.007223870,-0.106603406,-0.995566010,0.000929324,-0.000882376,0.000081305,1.052975655,0.072643757,9.739069939
1784246674.890759,0.007223960,-0.106603883,-0.995566070,0.000937625,-0.000757729,0.000749135,1.055247545,0.074460909,9.731463432
1784246674.892743,0.007223960,-0.106603883,-0.995566070,0.001373872,-0.001013548,0.001234395,1.035002947,0.071869694,9.754292488
1784246674.894747,0.007224090,-0.106603637,-0.995566010,0.001763842,-0.001323583,0.001081876,1.034410477,0.057772800,9.721472740
1784246674.896815,0.007224090,-0.106603637,-0.995566010,0.001994258,-0.001547422,0.000736021,1.069045901,0.065298013,9.735004425
1784246674.898746,0.007224090,-0.106603637,-0.995566010,0.001655241,-0.001706682,0.000754061,1.052521944,0.072611347,9.744450569
1784246674.900754,0.007223855,-0.106603466,-0.995566010,0.001066213,-0.001657794,0.000893942,1.064292192,0.079765975,9.725228310
1784246674.902759,0.007223855,-0.106603466,-0.995566010,0.000766962,-0.001370153,0.000762780,1.067819834,0.076800093,9.757942200
1784246674.904753,0.007223784,-0.106604926,-0.995566010,0.000964961,-0.001234657,0.000270339,1.056583166,0.073550917,9.731009483
1784246674.906752,0.007223784,-0.106604926,-0.995566010,0.001450063,-0.001286386,0.000362599,1.044784665,0.064550392,9.757841110
1784246674.908764,0.007223784,-0.106604926,-0.995566010,0.001224782,-0.001178153,0.001133724,1.051806808,0.051060904,9.751933098
1784246674.910779,0.007222734,-0.106604747,-0.995566130,0.000645343,-0.001146059,0.001243265,1.061573267,0.041594010,9.742466927
1784246674.912757,0.007222734,-0.106604747,-0.995566130,0.000296764,-0.001260382,0.000167098,1.045825601,0.075398058,9.742668152
1784246674.914762,0.007223039,-0.106605522,-0.995566070,0.000390731,-0.000898654,-0.000415276,1.046980739,0.058879394,9.732252121
1784246674.916756,0.007223039,-0.106605522,-0.995566070,0.001057055,-0.000323356,0.000101852,1.042160988,0.071205743,9.771780014
1784246674.918790,0.007223039,-0.106605522,-0.995566070,0.001194624,-0.000261597,0.000656548,1.031060815,0.078355052,9.731464386
1784246674.920785,0.007223606,-0.106604293,-0.995566130,0.000988145,-0.000211638,0.000789402,1.042986274,0.062114552,9.725543976
1784246674.922781,0.007223606,-0.106604293,-0.995566130,0.001421293,0.000181325,0.000419751,1.073083162,0.066453442,9.754293442
1784246674.924794,0.007223881,-0.106606647,-0.995566130,0.001808397,0.000377380,0.000059817,1.072466612,0.088135593,9.730671883
1784246674.926841,0.007223881,-0.106606647,-0.995566130,0.001705229,0.000090273,0.000137585,1.042093754,0.063380912,9.738103867
1784246674.928794,0.007223881,-0.106606647,-0.995566130,0.001482663,-0.000299389,0.000535983,1.088152051,0.048571631,9.721465111
1784246674.930785,0.007222991,-0.106609091,-0.995566010,0.001088487,-0.000468108,0.000068309,1.061470747,0.067839056,9.706318855
1784246674.932779,0.007222991,-0.106609091,-0.995566010,0.001026217,0.000021850,-0.000810169,1.062299371,0.102036975,9.747338295
1784246674.934799,0.007224336,-0.106610149,-0.995566010,0.001452106,0.000569254,-0.001051182,1.073019266,0.096650645,9.729380608
1784246674.936802,0.007224336,-0.106610149,-0.995566010,0.001249317,0.000378594,-0.001068390,1.060602427,0.072943099,9.746253967
1784246674.938797,0.007224336,-0.106610149,-0.995566010,0.000270937,0.000251201,-0.001497373,1.059288502,0.075644940,9.746718407
1784246674.940797,0.007224362,-0.106611252,-0.995566070,-0.000002417,0.000605189,-0.002059420,1.073267579,0.080067150,9.729722977
1784246674.942796,0.007224362,-0.106611252,-0.995566070,-0.000025661,0.000638648,-0.001404780,1.056650043,0.081372559,9.765133858
1784246674.944809,0.007224347,-0.106611647,-0.995566070,-0.000897263,0.000309598,-0.000497965,1.059893608,0.087006740,9.723029137
1784246674.946818,0.007224347,-0.106611647,-0.995566070,-0.001438154,0.000235736,-0.000630566,1.045391202,0.077541873,9.757028580
1784246674.948804,0.007224347,-0.106611647,-0.995566070,-0.001376066,0.000520103,-0.000905074,1.033567429,0.063887231,9.745272636
1784246674.950805,0.007224030,-0.106611319,-0.995566070,-0.001257806,0.000850807,-0.000833469,1.050084949,0.093302935,9.737407684
1784246674.952805,0.007224030,-0.106611319,-0.995566070,-0.000538141,0.001121775,-0.000924545,1.035694957,0.091212109,9.742312431
1784246674.954801,0.007224515,-0.106611274,-0.995566010,0.000493737,0.001387245,-0.001242433,1.026494145,0.074136063,9.765954971
1784246674.956800,0.007224515,-0.106611274,-0.995566010,0.001042223,0.001169180,-0.001530782,1.032165766,0.058602076,9.734926224
1784246674.958829,0.007224515,-0.106611274,-0.995566010,0.000859093,0.000620954,-0.001798092,1.044338346,0.063765153,9.743041039
1784246674.960824,0.007224869,-0.106610157,-0.995566070,0.000385036,0.000512574,-0.001883433,1.059596419,0.027212305,9.752235413
1784246674.962813,0.007224869,-0.106610157,-0.995566070,0.000367671,0.000786636,-0.001383509,1.065102577,0.073800616,9.743573189
1784246674.964801,0.007225904,-0.106611587,-0.995566010,0.000644505,0.001088726,-0.000621150,1.071852088,0.076700650,9.764670372
1784246674.966810,0.007225904,-0.106611587,-0.995566010,0.000340257,0.001350027,-0.000030249,1.062875748,0.075176418,9.743132591
1784246674.968802,0.007225904,-0.106611587,-0.995566010,-0.000496687,0.001510465,0.000489330,1.028845072,0.080223329,9.724749565
1784246674.970809,0.007226157,-0.106610939,-0.995566130,-0.001034854,0.001484570,0.000542224,1.048747897,0.093796745,9.733374596
1784246674.972803,0.007226157,-0.106610939,-0.995566130,-0.000997568,0.001011872,0.000452548,1.062699199,0.098809637,9.759423256
1784246674.974808,0.007228064,-0.106611960,-0.995566070,-0.000736804,0.000591339,0.000657943,1.033528447,0.060741968,9.746597290
1784246674.976805,0.007228064,-0.106611960,-0.995566070,-0.000504075,0.000878941,0.000738741,1.051024318,0.060895760,9.756478310
1784246674.978812,0.007228064,-0.106611960,-0.995566070,0.000100629,0.001086973,0.000274783,1.052581191,0.075915597,9.720709801
1784246674.980812,0.007227308,-0.106611796,-0.995566130,0.000755328,0.000984113,-0.000046231,1.034746289,0.086359650,9.733313560
1784246674.982813,0.007227308,-0.106611796,-0.995566130,0.000976598,0.000870406,0.000621881,1.021840453,0.096689567,9.753094673
1784246674.984813,0.007228288,-0.106610641,-0.995566130,0.000789258,0.000393465,0.001412726,1.037741423,0.075847767,9.757010460
1784246674.986821,0.007228288,-0.106610641,-0.995566130,0.000490506,-0.000091133,0.001157442,1.005235434,0.057666741,9.725927353
1784246674.988822,0.007228288,-0.106610641,-0.995566130,0.000424049,-0.000009047,0.000197907,1.038702250,0.079578936,9.734617233
1784246674.990843,0.007228903,-0.106610782,-0.995566130,-0.000106527,0.000596258,-0.000552986,1.089588165,0.057370514,9.741698265
1784246674.992829,0.007228903,-0.106610782,-0.995566130,-0.000507121,0.001520137,-0.000573833,1.059280992,0.076397754,9.766898155
1784246674.994826,0.007229532,-0.106611036,-0.995566070,-0.000227605,0.001608603,-0.000194229,1.046334743,0.079112738,9.723415375
1784246674.996828,0.007229532,-0.106611036,-0.995566070,-0.000374113,0.000994847,-0.000246960,1.051407337,0.091881379,9.745918274
1784246674.998828,0.007229532,-0.106611036,-0.995566070,-0.000421189,0.001015954,-0.000427084,1.069881082,0.061553389,9.756052971
1784246675.000854,0.007229178,-0.106612615,-0.995566010,-0.000188324,0.000703134,-0.000343085,1.044043422,0.039146364,9.740192413
1784246675.002840,0.007229178,-0.106612615,-0.995566010,-0.000062143,-0.000155472,-0.000086906,1.043137431,0.076277606,9.749843597
1784246675.004835,0.007229845,-0.106612600,-0.995566010,0.000615271,-0.000191969,-0.000112692,1.055207372,0.071712717,9.739963531
1784246675.006841,0.007229845,-0.106612600,-0.995566010,0.001062125,0.000483915,-0.000127637,1.047049880,0.064693347,9.733633995
1784246675.008841,0.007229845,-0.106612600,-0.995566010,0.000520712,0.001092856,-0.000012890,1.087226152,0.084327199,9.735591888
1784246675.010841,0.007230393,-0.106615871,-0.995566010,-0.000214087,0.001723113,-0.000416197,1.057909489,0.072161160,9.735037804
1784246675.012833,0.007230393,-0.106615871,-0.995566010,-0.000339642,0.001584742,-0.000857095,1.026937723,0.071252130,9.729621887
1784246675.014838,0.007229972,-0.106613576,-0.995565832,0.000169877,0.000304857,-0.000750656,0.996208191,0.055335246,9.755044937
1784246675.016836,0.007229972,-0.106613576,-0.995565832,0.000361190,-0.000395692,-0.000004193,1.039323926,0.057128049,9.740303040
1784246675.018845,0.007229972,-0.106613576,-0.995565832,0.000512667,0.000227342,0.000618139,1.046730757,0.074636921,9.722041130
1784246675.020849,0.007230128,-0.106613725,-0.995565832,0.000631619,0.001350636,0.000497586,1.044361353,0.066783227,9.759648323
1784246675.022848,0.007230128,-0.106613725,-0.995565832,0.000318971,0.001994252,0.000245691,1.047614217,0.074517310,9.737285614
1784246675.024853,0.007230299,-0.106613532,-0.995565832,-0.000312409,0.002049949,0.000636903,1.039201975,0.046033952,9.725436211
1784246675.026855,0.007230299,-0.106613532,-0.995565832,-0.000975765,0.001783632,0.001425314,1.050160885,0.062391043,9.736760139
1784246675.028854,0.007230299,-0.106613532,-0.995565832,-0.001240800,0.001555477,0.001313851,1.012453675,0.060720019,9.724608421
1784246675.030856,0.007229245,-0.106612764,-0.995565891,-0.001087658,0.001479960,0.000511634,1.013649464,0.085352734,9.723871231
1784246675.032853,0.007229245,-0.106612764,-0.995565891,-0.001341193,0.001174901,0.000250187,1.017738700,0.090161785,9.733321190
1784246675.034871,0.007230773,-0.106612042,-0.995566010,-0.001999354,0.000721572,0.000418722,1.058320284,0.069019698,9.735017776
1784246675.036867,0.007230773,-0.106612042,-0.995566010,-0.002045067,0.000438765,0.000849332,1.036908150,0.079608299,9.733719826
1784246675.038864,0.007230773,-0.106612042,-0.995566010,-0.001734060,0.000283582,0.001073598,1.049623013,0.055207148,9.739852905
1784246675.040863,0.007230776,-0.106612869,-0.995565832,-0.001809856,0.000466539,0.000461915,1.039784551,0.058837835,9.751074791
1784246675.042868,0.007230776,-0.106612869,-0.995565832,-0.002345461,0.001324858,0.000037638,1.007728338,0.080680780,9.761496544
1784246675.044862,0.007231540,-0.106610924,-0.995565891,-0.002068032,0.001957062,0.000361469,1.013049603,0.074438915,9.747563362
1784246675.046864,0.007231540,-0.106610924,-0.995565891,-0.001006373,0.001634715,0.000540225,1.022819281,0.066620775,9.758281708
1784246675.048863,0.007231540,-0.106610924,-0.995565891,-0.000432896,0.001171819,0.000055097,1.017593980,0.080103152,9.761950493
1784246675.050870,0.007231454,-0.106610119,-0.995566010,-0.000863207,0.001022965,-0.000172249,1.043170452,0.078968562,9.749414444
1784246675.052871,0.007231454,-0.106610119,-0.995566010,-0.001702006,0.000970094,0.000329524,1.002665162,0.067985274,9.728681564
1784246675.055000,0.007231100,-0.106607318,-0.995566010,-0.001694141,0.001303220,0.000643959,1.017840862,0.060266670,9.715644836
1784246675.056960,0.007231100,-0.106607318,-0.995566010,-0.001287480,0.001742225,0.000441508,1.003148317,0.071493261,9.738566399
1784246675.058902,0.007231100,-0.106607318,-0.995566010,-0.001160097,0.001453101,0.000091795,1.029165506,0.069479235,9.722887993
1784246675.060896,0.007231447,-0.106607057,-0.995566010,-0.001146549,0.000665587,0.000122521,1.024846792,0.085050024,9.746297836
1784246675.062915,0.007231447,-0.106607057,-0.995566010,-0.000789188,0.000518354,0.000436662,0.999125361,0.072882526,9.739469528
1784246675.064894,0.007231041,-0.106604829,-0.995565891,-0.000105513,0.001038275,0.000380848,1.021170735,0.078738727,9.758358955
1784246675.066912,0.007231041,-0.106604829,-0.995565891,-0.000151119,0.001262120,0.000139891,1.034487605,0.102050386,9.732516289
1784246675.068908,0.007231041,-0.106604829,-0.995565891,-0.000445209,0.000778149,0.000267218,1.039619923,0.080943115,9.730144501
1784246675.070902,0.007232624,-0.106603891,-0.995565891,-0.000625869,0.000191119,0.000376773,1.036344171,0.069787510,9.729621887
1784246675.072902,0.007232624,-0.106603891,-0.995565891,-0.000299469,0.000158945,-0.000262558,1.026816487,0.061381087,9.731801033
1784246675.074906,0.007232095,-0.106602751,-0.995566010,0.000337680,0.000257860,-0.000835299,1.031995296,0.082282990,9.744491577
1784246675.076902,0.007232095,-0.106602751,-0.995566010,0.000348529,0.000313929,-0.000783997,1.023849010,0.077379413,9.755661964
1784246675.078907,0.007232095,-0.106602751,-0.995566010,0.000068398,0.000483543,-0.000692209,1.010770559,0.070944369,9.739020348
1784246675.080900,0.007232375,-0.106601775,-0.995566010,-0.000171335,0.000661267,-0.000588994,1.000820756,0.065590404,9.753769875
1784246675.082904,0.007232375,-0.106601775,-0.995566010,-0.000020810,0.000751564,-0.000567659,1.005313039,0.065574244,9.747946739
1784246675.084905,0.007232624,-0.106600240,-0.995566130,0.000233676,0.000798780,-0.000714457,1.034335613,0.054344550,9.762698174
1784246675.086905,0.007232624,-0.106600240,-0.995566130,-0.000160620,0.000748989,-0.000750581,1.040798187,0.067849152,9.742166519
1784246675.088903,0.007232624,-0.106600240,-0.995566130,-0.001081763,0.000611668,-0.000796518,1.035554886,0.042384967,9.741102219
1784246675.090938,0.007231126,-0.106599689,-0.995566010,-0.001900754,0.000137235,-0.001157237,1.026481748,0.034017310,9.737005234
1784246675.092921,0.007231126,-0.106599689,-0.995566010,-0.002101608,-0.000340195,-0.001167397,1.032803655,0.035468303,9.710568428
1784246675.094917,0.007228802,-0.106599919,-0.995566010,-0.001843840,0.000006404,-0.000646785,1.044559121,0.042508453,9.707486153
1784246675.096912,0.007228802,-0.106599919,-0.995566010,-0.001817908,0.000402865,0.000021850,1.012418151,0.058413446,9.734007835
1784246675.098912,0.007228802,-0.106599919,-0.995566010,-0.001640030,0.000365430,0.000597637,1.035026550,0.073677428,9.752061844
1784246675.100918,0.007229241,-0.106598660,-0.995566010,-0.001019443,0.000480179,0.000477109,1.055153370,0.069259897,9.769986153
1784246675.102918,0.007229241,-0.106598660,-0.995566010,-0.000639407,0.000495209,-0.000044434,1.063921928,0.086065434,9.722130775
1784246675.104915,0.007230426,-0.106600069,-0.995566130,-0.000745773,0.000221196,-0.000246052,1.042075872,0.098397575,9.728465080
1784246675.106918,0.007230426,-0.106600069,-0.995566130,-0.000804726,0.000110048,-0.000175784,1.052144885,0.078856744,9.748973846
1784246675.108926,0.007230426,-0.106600069,-0.995566130,-0.000521919,0.000008894,-0.000340811,1.032543540,0.089142933,9.723913193
1784246675.110928,0.007231812,-0.106599115,-0.995566070,-0.000211080,-0.000407799,-0.000480828,1.023261666,0.062510602,9.705352783
1784246675.112926,0.007231812,-0.106599115,-0.995566070,-0.000332371,-0.001015917,-0.000205990,1.011498928,0.056226462,9.728165627
1784246675.114926,0.007231685,-0.106597766,-0.995566130,-0.000420620,-0.001511152,-0.000294894,1.025808215,0.053627811,9.752820969
1784246675.116929,0.007231685,-0.106597766,-0.995566130,-0.000204034,-0.001062665,-0.000733792,1.026646137,0.047472041,9.734849930
1784246675.118934,0.007231685,-0.106597766,-0.995566130,-0.000311445,-0.000140220,-0.000870108,1.026363373,0.062161941,9.748840332
1784246675.120931,0.007230646,-0.106596969,-0.995566130,-0.000611997,0.000082971,-0.000773698,1.025573850,0.070726030,9.743067741
1784246675.122937,0.007230646,-0.106596969,-0.995566130,-0.000815726,0.000028080,-0.000488029,1.027177691,0.056631830,9.768981934
1784246675.124928,0.007229491,-0.106595941,-0.995566070,-0.001000040,-0.000010855,-0.000388285,1.046689272,0.037936144,9.779640198
1784246675.126934,0.007229491,-0.106595941,-0.995566070,-0.000423497,0.000422756,-0.000582696,1.047256589,0.045352135,9.743822098
1784246675.128941,0.007229491,-0.106595941,-0.995566070,0.001044178,0.000637455,-0.000741273,1.047703266,0.044923864,9.740233421
1784246675.130940,0.007228046,-0.106596254,-0.995566130,0.002175302,-0.000055868,-0.000355980,1.029302239,0.081094429,9.727446556
1784246675.132937,0.007228046,-0.106596254,-0.995566130,0.002345335,-0.000701873,0.000572743,1.003232002,0.079448447,9.753861427
1784246675.134943,0.007228329,-0.106594481,-0.995566189,0.001820318,-0.000967935,0.001321624,1.003697872,0.043609604,9.752286911
1784246675.136955,0.007228329,-0.106594481,-0.995566189,0.001024734,-0.000992876,0.001470320,1.037971735,0.019507634,9.740509987
1784246675.138949,0.007228329,-0.106594481,-0.995566189,0.000844594,-0.000906029,0.001363242,1.059162259,0.063302338,9.718393326
1784246675.140954,0.007227516,-0.106594823,-0.995566189,0.001288981,-0.001188961,0.000959290,1.062239766,0.094272546,9.705145836
1784246675.142948,0.007227516,-0.106594823,-0.995566189,0.001179613,-0.001475862,-0.000076247,1.054542422,0.091389999,9.746365547
1784246675.144948,0.007228176,-0.106594726,-0.995566130,0.000797118,-0.001232506,-0.000684172,1.047890544,0.098176561,9.749094009
1784246675.146999,0.007228176,-0.106594726,-0.995566130,0.000534231,-0.001078817,-0.000242606,1.040673018,0.056322992,9.725056648
1784246675.148961,0.007228176,-0.106594726,-0.995566130,0.000104418,-0.001200158,0.000384272,1.053892970,0.073601313,9.728767395
1784246675.150957,0.007228221,-0.106594890,-0.995566070,0.000046104,-0.001181977,0.000625323,1.078468561,0.065987349,9.747122765
1784246675.152963,0.007228221,-0.106594890,-0.995566070,0.000551268,-0.000758664,0.000479149,1.048729062,0.056057345,9.747927666
1784246675.154964,0.007227337,-0.106595442,-0.995566130,0.000938480,-0.000342608,0.000391344,1.035016179,0.036004800,9.757200241
1784246675.156997,0.007227337,-0.106595442,-0.995566130,0.001001032,-0.000341253,0.000018469,1.020928264,0.058183376,9.751051903
1784246675.158977,0.007227337,-0.106595442,-0.995566130,0.001175844,-0.000194788,-0.000721498,1.031992912,0.045080580,9.746495247
1784246675.160966,0.007227104,-0.106595144,-0.995566189,0.001124475,0.000234170,-0.000663335,1.024110436,0.060900856,9.741209030
1784246675.163016,0.007227104,-0.106595144,-0.995566189,0.000447341,0.000115823,0.000314314,1.038183689,0.072954297,9.722023010
1784246675.164976,0.007226969,-0.106594637,-0.995566130,-0.000085439,-0.000258506,0.001115112,1.020374537,0.048038643,9.729467392
1784246675.166971,0.007226969,-0.106594637,-0.995566130,-0.000072089,-0.000350999,0.000960002,1.019604564,0.058378685,9.725945473
1784246675.168970,0.007226969,-0.106594637,-0.995566130,0.000208244,-0.000580302,0.000359136,1.045073867,0.051128060,9.754617691
1784246675.170992,0.007226477,-0.106593952,-0.995566189,0.000360327,-0.000583905,-0.000222176,1.040254712,0.059407234,9.733144760
1784246675.172979,0.007226477,-0.106593952,-0.995566189,0.000149089,-0.000206846,-0.000355223,1.058325768,0.031067606,9.716393471
1784246675.174981,0.007224656,-0.106594764,-0.995566249,0.000155859,-0.000061660,-0.000163784,1.034520268,0.031991612,9.755380630
1784246675.176973,0.007224656,-0.106594764,-0.995566249,0.000699682,-0.000268134,0.000047002,1.043684840,0.085154764,9.760662079
1784246675.178975,0.007224656,-0.106594764,-0.995566249,0.001163447,-0.000851368,0.000216305,1.040592790,0.087606527,9.736464500
1784246675.180978,0.007225643,-0.106595047,-0.995566130,0.001050721,-0.001215290,-0.000003720,1.020635009,0.070763834,9.746648788
1784246675.182988,0.007225643,-0.106595047,-0.995566130,0.000897670,-0.001301085,0.000071553,1.043401599,0.096191391,9.721279144
1784246675.184978,0.007226991,-0.106595129,-0.995566189,0.000877607,-0.001151901,0.000669268,1.065714955,0.049653266,9.735797882
1784246675.186982,0.007226991,-0.106595129,-0.995566189,0.000620000,-0.000192206,0.000711913,1.072811127,0.080822557,9.750350952
1784246675.188984,0.007226991,-0.106595129,-0.995566189,0.000453365,0.000584227,-0.000159147,1.027415872,0.074721970,9.744888306
1784246675.191024,0.007226973,-0.106593937,-0.995566249,0.000577808,0.000428561,-0.001013955,1.030617714,0.042032048,9.736611366
1784246675.192996,0.007226973,-0.106593937,-0.995566249,0.000882140,0.000146989,-0.001005458,1.039747000,0.055298660,9.744774818
1784246675.195032,0.007225640,-0.106594972,-0.995566189,0.001175639,-0.000060237,-0.000782544,1.065174699,0.044883694,9.777460098
1784246675.196997,0.007225640,-0.106594972,-0.995566189,0.001134459,-0.000545785,-0.001380598,1.049635053,0.094109200,9.750862122
1784246675.199001,0.007225640,-0.106594972,-0.995566189,0.000852973,-0.000735130,-0.001761603,1.044778466,0.063286006,9.746623993
1784246675.201000,0.007226179,-0.106595203,-0.995566189,0.000543485,-0.000354058,-0.001368518,1.035153747,0.043575991,9.700310707
1784246675.203003,0.007226179,-0.106595203,-0.995566189,0.000461858,-0.000097550,-0.000829324,1.051182508,0.072276011,9.730998039
1784246675.205004,0.007226392,-0.106595173,-0.995566189,0.000832917,-0.000203981,-0.000329166,1.059717655,0.074269868,9.750296593
1784246675.207005,0.007226392,-0.106595173,-0.995566189,0.000669415,-0.000346620,-0.000326894,1.063255548,0.070573419,9.759690285
1784246675.209002,0.007226392,-0.106595173,-0.995566189,-0.000045768,-0.000460222,-0.000633121,1.054378510,0.077938437,9.748072624
1784246675.211008,0.007226950,-0.106596142,-0.995566130,-0.000300740,-0.000909042,-0.000334318,1.015798330,0.078093030,9.732793808
1784246675.213002,0.007226950,-0.106596142,-0.995566130,-0.000398887,-0.001296590,0.000803800,1.029923439,0.094203554,9.710045815
1784246675.215016,0.007228150,-0.106595956,-0.995566130,-0.000498897,-0.000911530,0.001456063,1.050727487,0.071420826,9.726059914
1784246675.217006,0.007228150,-0.106595956,-0.995566130,0.000192456,-0.000364289,0.001121597,1.093313098,0.068523563,9.741773605
1784246675.219016,0.007228150,-0.106595956,-0.995566130,0.001074641,-0.000112598,0.000697208,1.027945042,0.081835896,9.751659393
1784246675.221022,0.007228157,-0.106594950,-0.995566130,0.001014225,0.000205992,0.000116903,1.044114828,0.083379455,9.757513046
1784246675.223020,0.007228157,-0.106594950,-0.995566130,0.000379555,0.000897198,-0.000755518,1.044903755,0.074812151,9.763735771
1784246675.225019,0.007229044,-0.106594890,-0.995566130,0.000156004,0.001757811,-0.001334543,1.049564481,0.087879084,9.744994164
1784246675.227016,0.007229044,-0.106594890,-0.995566130,0.000420248,0.001907747,-0.001036264,1.046521425,0.058395851,9.738077164
1784246675.229016,0.007229044,-0.106594890,-0.995566130,0.000425670,0.001512911,-0.000479092,1.049999118,0.049362011,9.742056847
1784246675.231020,0.007228381,-0.106594302,-0.995566189,0.000143343,0.001376010,-0.000668523,1.050681114,0.068218328,9.735453606
1784246675.233025,0.007228381,-0.106594302,-0.995566189,0.000283998,0.001384746,-0.001491335,1.089987755,0.052113250,9.724180222
1784246675.235020,0.007227531,-0.106596388,-0.995566130,0.000489889,0.001044578,-0.001532906,1.066304803,0.098484203,9.735662460
1784246675.237039,0.007227531,-0.106596388,-0.995566130,0.000365956,0.000687742,-0.000914367,1.051013231,0.095966473,9.739218712
1784246675.239031,0.007227531,-0.106596388,-0.995566130,0.000534242,0.000858976,-0.000785887,1.051417589,0.055184156,9.739854813
1784246675.241027,0.007227062,-0.106596626,-0.995566130,0.000891066,0.000926641,-0.000601978,1.034890413,0.061255347,9.734945297
1784246675.243028,0.007227062,-0.106596626,-0.995566130,0.000856213,0.000597477,0.000125131,1.031757474,0.099759221,9.744605064
1784246675.245029,0.007229141,-0.106595874,-0.995566070,0.000271578,0.000436819,0.000473856,1.059430599,0.087711282,9.750830650
1784246675.247029,0.007229141,-0.106595874,-0.995566070,-0.000345673,0.000813579,-0.000208348,1.055626750,0.067827947,9.718420029
1784246675.249033,0.007229141,-0.106595874,-0.995566070,-0.000124386,0.001348474,-0.000323722,1.032737970,0.068893075,9.735890388
1784246675.251038,0.007228701,-0.106594607,-0.995566130,0.000515942,0.001184918,0.000907691,1.045595050,0.092931539,9.734710693
1784246675.253042,0.007228701,-0.106594607,-0.995566130,0.000547754,0.000946011,0.001550679,1.047979712,0.068989761,9.757872581
1784246675.255050,0.007228809,-0.106595278,-0.995566189,0.000435291,0.001338934,0.000794509,1.055150270,0.066804238,9.737241745
1784246675.257045,0.007228809,-0.106595278,-0.995566189,0.000313823,0.001336948,0.000350290,1.038061500,0.099853612,9.719952583
1784246675.259042,0.007228809,-0.106595278,-0.995566189,0.000059524,0.001101861,0.000259789,1.057159185,0.083870523,9.727938652
1784246675.261042,0.007230285,-0.106595732,-0.995566189,0.000005788,0.001274379,-0.000327519,1.062152863,0.087912068,9.717658043
1784246675.263048,0.007230285,-0.106595732,-0.995566189,0.000255350,0.001290498,-0.001008243,1.067175388,0.061076332,9.765013695
1784246675.265048,0.007229953,-0.106597811,-0.995566130,0.000341297,0.000834298,-0.001344436,1.044988394,0.080343500,9.741803169
1784246675.267048,0.007229953,-0.106597811,-0.995566130,0.000330462,0.000499875,-0.001120131,1.038104534,0.066250786,9.719737053
1784246675.269052,0.007229953,-0.106597811,-0.995566130,0.000487641,0.000558022,-0.000557643,1.057221174,0.052443907,9.736703873
1784246675.271058,0.007228351,-0.106598437,-0.995566130,0.000168741,0.000553824,-0.000600120,1.077878714,0.089906134,9.723962784
1784246675.273050,0.007228351,-0.106598437,-0.995566130,0.000007229,0.000301112,-0.001137794,1.060506225,0.066509485,9.769077301
1784246675.275058,0.007228120,-0.106598809,-0.995566189,0.000197913,0.000256245,-0.001293544,1.055053949,0.095527187,9.730701447
1784246675.277052,0.007228120,-0.106598809,-0.995566189,0.000140333,0.000476781,-0.001261493,1.071987629,0.085469447,9.728411674
1784246675.279055,0.007228120,-0.106598809,-0.995566189,0.000113995,0.000490953,-0.000859847,1.047951818,0.065933533,9.746644974
1784246675.281059,0.007228180,-0.106598459,-0.995566130,0.000200617,0.000370822,-0.000026257,1.051899552,0.057872530,9.738976479
1784246675.283061,0.007228180,-0.106598459,-0.995566130,-0.000024488,0.000376632,0.000544963,1.048224807,0.050760690,9.737581253
1784246675.285074,0.007227483,-0.106598943,-0.995566130,-0.000203236,0.000511999,0.000149466,1.031246901,0.094818339,9.747261047
1784246675.287064,0.007227483,-0.106598943,-0.995566130,0.000154626,0.000552680,-0.000354818,1.065409184,0.062541790,9.751122475
1784246675.289064,0.007227483,-0.106598943,-0.995566130,0.000650332,0.000702235,-0.000143484,1.022771835,0.060571890,9.726860046
1784246675.291086,0.007227315,-0.106598854,-0.995566130,0.000668481,0.000903771,0.000190959,1.027898192,0.075386755,9.713509560
1784246675.293069,0.007227315,-0.106598854,-0.995566130,0.000047281,0.000843209,0.000143606,1.048000455,0.069965184,9.746669769
1784246675.295069,0.007227352,-0.106599413,-0.995566130,-0.000869662,0.001221068,-0.000376677,1.040733933,0.062073346,9.735404015
1784246675.297068,0.007227352,-0.106599413,-0.995566130,-0.001331712,0.002142195,-0.000769823,1.036957741,0.084052935,9.738680840
1784246675.299078,0.007227352,-0.106599413,-0.995566130,-0.000716196,0.002349881,-0.000551845,1.023100615,0.088698044,9.740489960
1784246675.301079,0.007227893,-0.106598377,-0.995566130,-0.000063154,0.001557480,0.000504609,1.022202492,0.087083042,9.717165947
1784246675.303081,0.007227893,-0.106598377,-0.995566130,-0.000298992,0.000463817,0.001613200,1.044884443,0.072632760,9.755203247
1784246675.305074,0.007228102,-0.106599621,-0.995566070,-0.000753585,0.000054214,0.001429656,1.067403555,0.077466853,9.727907181
1784246675.307078,0.007228102,-0.106599621,-0.995566070,-0.000752453,0.000242313,0.000631267,1.061864018,0.066991068,9.761908531
1784246675.309079,0.007228102,-0.106599621,-0.995566070,-0.000684469,-0.000019579,0.000408569,1.041991949,0.056902777,9.767204285
1784246675.311094,0.007226835,-0.106599338,-0.995566189,-0.000550179,-0.000715699,0.000315863,1.057766795,0.060498275,9.737204552
1784246675.313084,0.007226835,-0.106599338,-0.995566189,0.000346044,-0.001013994,0.000016086,1.044451594,0.074789293,9.767769814
1784246675.315085,0.007227181,-0.106599748,-0.995566130,0.001096890,-0.000565500,-0.000342848,1.055815220,0.085120358,9.743637085
1784246675.317090,0.007227181,-0.106599748,-0.995566130,0.000616859,0.000166288,-0.000278770,1.032330990,0.072469793,9.737705231
1784246675.319091,0.007227181,-0.106599748,-0.995566130,-0.000363861,0.000903186,-0.000069491,1.022255301,0.092769817,9.736480713
1784246675.321097,0.007228712,-0.106598429,-0.995566189,-0.000808390,0.001206320,-0.000441409,1.056496739,0.067193612,9.743073463
1784246675.323091,0.007228712,-0.106598429,-0.995566189,-0.000456064,0.000499575,-0.000337353,1.045969248,0.051910747,9.768969536
1784246675.325099,0.007227878,-0.106598757,-0.995566189,-0.000060421,-0.000363745,0.000549062,1.063338518,0.040528830,9.763084412
1784246675.327094,0.007227878,-0.106598757,-0.995566189,-0.000270492,-0.000336997,0.000818579,1.062555313,0.047520477,9.726366043
1784246675.329095,0.007227878,-0.106598757,-0.995566189,-0.000544079,0.000136646,0.000547911,1.075431347,0.072925076,9.722058296
1784246675.331104,0.007227765,-0.106600642,-0.995566070,-0.000473448,0.000265555,-0.000101338,1.048621535,0.083477743,9.735549927
1784246675.333105,0.007227765,-0.106600642,-0.995566070,-0.000459970,0.000110210,-0.000954847,1.036518335,0.085751958,9.752589226
1784246675.335101,0.007228366,-0.106600545,-0.995566010,-0.000633569,-0.000095183,-0.000891455,1.024192333,0.067220002,9.734525681
1784246675.337098,0.007228366,-0.106600545,-0.995566010,-0.000971445,0.000401679,-0.000228247,1.044111729,0.080113724,9.712657928
1784246675.339104,0.007228366,-0.106600545,-0.995566010,-0.001319863,0.001305602,0.000113335,1.033954024,0.094901465,9.730677605
1784246675.341105,0.007229037,-0.106600612,-0.995566010,-0.001217313,0.001369383,-0.000146024,1.031062722,0.078774400,9.735502243
1784246675.343108,0.007229037,-0.106600612,-0.995566010,-0.000931544,0.000768477,-0.000807582,1.040220618,0.056300115,9.729090691
1784246675.345106,0.007228433,-0.106600724,-0.995566010,-0.001012807,0.000333402,-0.001217759,1.037779927,0.077773161,9.738192558
1784246675.347110,0.007228433,-0.106600724,-0.995566010,-0.000883093,0.000857724,-0.001078337,1.027401805,0.073800616,9.748469353
1784246675.349118,0.007228433,-0.106600724,-0.995566010,-0.000550513,0.001542442,-0.000866394,1.030057311,0.071449995,9.759217262
1784246675.351115,0.007228049,-0.106600083,-0.995566070,-0.000857999,0.001415769,-0.000481680,1.040557265,0.048520047,9.751457214
1784246675.353112,0.007228049,-0.106600083,-0.995566070,-0.001087091,0.000908013,0.000048982,1.032410502,0.041586526,9.733024597
1784246675.355114,0.007226515,-0.106599219,-0.995566070,-0.000693372,0.000514960,0.000291911,1.040553451,0.047274739,9.737551689
1784246675.357119,0.007226515,-0.106599219,-0.995566070,-0.000530855,0.000480736,0.000668659,1.033113837,0.064258263,9.756931305
1784246675.359121,0.007226515,-0.106599219,-0.995566070,-0.000591284,0.000585277,0.000690828,1.038827062,0.090695314,9.746347427
1784246675.361122,0.007227438,-0.106600024,-0.995566010,-0.000126289,0.000855596,0.000438092,1.031517744,0.081656367,9.770491600
1784246675.363125,0.007227438,-0.106600024,-0.995566010,0.000609721,0.001117024,0.000778469,1.015591025,0.062271308,9.752867699
1784246675.365128,0.007227029,-0.106598750,-0.995566070,0.000961962,0.001038914,0.001114901,1.003372192,0.090685628,9.748554230
1784246675.367126,0.007227029,-0.106598750,-0.995566070,0.000569683,0.001081551,0.000944319,1.005001187,0.075575039,9.728283882
1784246675.369124,0.007227029,-0.106598750,-0.995566070,0.000014565,0.001242728,0.000621780,1.020292401,0.078496218,9.731007576
1784246675.371129,0.007227568,-0.106598027,-0.995566070,-0.000194385,0.001104277,0.000674527,1.066496968,0.076595135,9.726108551
1784246675.373132,0.007227568,-0.106598027,-0.995566070,-0.000637281,0.000950450,0.001055181,1.061076164,0.037571289,9.741992950
1784246675.375131,0.007225394,-0.106599219,-0.995566070,-0.001211560,0.000809862,0.000555696,1.033894658,0.053600635,9.742069244
1784246675.377133,0.007225394,-0.106599219,-0.995566070,-0.001250767,0.000492016,-0.000566947,0.989152849,0.026110413,9.718985558
1784246675.379141,0.007225394,-0.106599219,-0.995566070,-0.000608709,0.000502570,-0.000949123,1.009761214,0.023567995,9.724369049
1784246675.381141,0.007222123,-0.106597863,-0.995566189,0.000350889,0.000899498,-0.000989910,0.999598026,0.038717870,9.754493713
1784246675.383140,0.007222123,-0.106597863,-0.995566189,0.000849341,0.001046384,-0.000948527,1.018452048,0.038543172,9.745095253
1784246675.385147,0.007219657,-0.106596753,-0.995566130,0.000594095,0.000958191,-0.000288637,1.019673586,0.063786022,9.721496582
1784246675.387148,0.007219657,-0.106596753,-0.995566130,0.000008367,0.000788046,0.000551897,1.054265857,0.066917479,9.722895622
1784246675.389149,0.007219657,-0.106596753,-0.995566130,-0.000508530,0.000648066,0.001001519,1.035990477,0.079864249,9.762414932
1784246675.391160,0.007219425,-0.106597431,-0.995566130,-0.000267549,0.000739195,0.001042292,1.012491703,0.102255784,9.743257523
1784246675.393153,0.007219425,-0.106597431,-0.995566130,0.000282688,0.000333784,0.001033857,1.025790095,0.090668067,9.773681641
1784246675.395151,0.007220182,-0.106596902,-0.995566130,0.000500720,-0.000052234,0.001460160,1.026142716,0.080178350,9.735955238
1784246675.397220,0.007220182,-0.106596902,-0.995566130,0.000519816,0.000065594,0.001519994,1.021203995,0.079812698,9.733258247
1784246675.399159,0.007220182,-0.106596902,-0.995566130,0.000551009,-0.000043316,0.001002918,1.051399350,0.091414347,9.748604774
1784246675.401152,0.007220841,-0.106597245,-0.995566130,0.000515857,-0.000516354,0.000353171,1.058182597,0.094984926,9.738323212
1784246675.403159,0.007220841,-0.106597245,-0.995566130,0.000437680,-0.000698619,-0.000083238,1.039091229,0.077075839,9.770917892
1784246675.405159,0.007221043,-0.106596701,-0.995566130,0.000655988,-0.000403933,-0.000145613,1.041550040,0.056555949,9.753750801
1784246675.407161,0.007221043,-0.106596701,-0.995566130,0.000977350,-0.000297011,-0.000516328,1.000120640,0.044564221,9.750496864
1784246675.409166,0.007221043,-0.106596701,-0.995566130,0.001370794,-0.000544491,-0.000842105,1.031967640,0.042853482,9.744688988
1784246675.411175,0.007219959,-0.106595919,-0.995566130,0.001438902,-0.000901416,-0.001243228,1.050411344,0.045419998,9.728581429
1784246675.413179,0.007219959,-0.106595919,-0.995566130,0.001125046,-0.001284836,-0.001320084,1.034871697,0.058675688,9.719685555
1784246675.415168,0.007219627,-0.106595583,-0.995566130,0.000728922,-0.001854541,-0.000691989,1.057020545,0.035056096,9.724936485
1784246675.417165,0.007219627,-0.106595583,-0.995566130,0.000173169,-0.001958926,-0.000521951,1.057558537,0.045480270,9.770285606
1784246675.419176,0.007219627,-0.106595583,-0.995566130,-0.000311084,-0.001025937,-0.000428688,1.035971999,0.077287778,9.746706009
1784246675.421172,0.007220044,-0.106595293,-0.995566070,-0.000621916,0.000175592,-0.000411928,1.039450407,0.069473818,9.768178940
1784246675.423180,0.007220044,-0.106595293,-0.995566070,-0.000669637,0.000798638,-0.000671618,1.039030671,0.070518583,9.748010635
1784246675.425177,0.007219806,-0.106595054,-0.995566130,-0.000223324,0.000669256,-0.000520299,1.021427512,0.061008487,9.730895996
1784246675.427177,0.007219806,-0.106595054,-0.995566130,0.000152062,0.000284260,-0.000050569,1.027365446,0.070270978,9.740824699
1784246675.429176,0.007219806,-0.106595054,-0.995566130,0.000370919,-0.000014059,0.000363645,1.034322500,0.050592702,9.723220825
1784246675.431181,0.007219828,-0.106595263,-0.995566130,0.000712340,-0.000142794,0.000575919,1.022479773,0.034355223,9.696654320
1784246675.433178,0.007219828,-0.106595263,-0.995566130,0.000875973,0.000180426,0.000389763,1.014739871,0.027085265,9.724843979
1784246675.435182,0.007217901,-0.106594235,-0.995566130,0.000927629,0.000743812,-0.000267633,1.046459198,0.053852636,9.747014046
1784246675.437182,0.007217901,-0.106594235,-0.995566130,0.001072825,0.001045743,-0.000855283,1.013674498,0.052823521,9.761771202
1784246675.439186,0.007217901,-0.106594235,-0.995566130,0.000992257,0.000868513,-0.000762387,1.033769846,0.044511035,9.760393143
1784246675.441187,0.007216449,-0.106593564,-0.995566070,0.000279890,0.000564247,-0.000335691,1.070896983,0.070177160,9.738623619
1784246675.443190,0.007216449,-0.106593564,-0.995566070,-0.000149056,0.000340625,0.000137751,1.076657772,0.064669654,9.746664047
1784246675.445189,0.007216076,-0.106594980,-0.995566010,0.000567553,0.000057962,0.000591927,1.060033560,0.025494199,9.741017342
1784246675.447227,0.007216076,-0.106594980,-0.995566010,0.001036616,-0.000144174,0.000399224,1.020586967,0.066331916,9.739896774
1784246675.449191,0.007216076,-0.106594980,-0.995566010,0.000401867,-0.000281342,0.000329554,1.055266976,0.077046923,9.745826721
1784246675.451198,0.007216605,-0.106595732,-0.995566010,-0.000080096,-0.000419822,0.000729849,1.040579915,0.050321430,9.750123978
1784246675.453200,0.007216605,-0.106595732,-0.995566010,0.000218421,-0.000688373,0.000804937,1.017750502,0.054690808,9.743853569
1784246675.455198,0.007216948,-0.106594689,-0.995566070,0.000183903,-0.000773408,0.000877904,1.023289323,0.030813720,9.752223969
1784246675.457204,0.007216948,-0.106594689,-0.995566070,-0.000449049,-0.000286168,0.000499911,1.014563084,0.051932007,9.759524345
1784246675.459200,0.007216948,-0.106594689,-0.995566070,-0.001002337,-0.000302341,-0.000734413,1.026443124,0.068465188,9.744398117
1784246675.461201,0.007216184,-0.106593490,-0.995566070,-0.000673313,-0.001132977,-0.001474538,1.022115350,0.081532650,9.741788864
1784246675.463208,0.007216184,-0.106593490,-0.995566070,0.000615190,-0.001538828,-0.001126395,1.014258504,0.063613355,9.755563736
1784246675.465204,0.007215700,-0.106592491,-0.995566130,0.001795097,-0.001208665,-0.000616182,1.031651020,0.053629387,9.742066383
1784246675.467208,0.007215700,-0.106592491,-0.995566130,0.002239170,-0.000962779,-0.000389542,1.016788960,0.050953276,9.767142296
1784246675.469229,0.007215700,-0.106592491,-0.995566130,0.001980885,-0.001100702,-0.000335438,1.024911284,0.054452557,9.764482498
1784246675.471216,0.007214977,-0.106591851,-0.995566130,0.001682041,-0.001380639,-0.000188889,1.039246559,0.053274095,9.778387070
1784246675.473211,0.007214977,-0.106591851,-0.995566130,0.001590826,-0.001568599,0.000026471,1.033786774,0.082234569,9.748080254
1784246675.475237,0.007215305,-0.106591679,-0.995566130,0.001508163,-0.001630588,-0.000267545,1.043455124,0.065508075,9.751569748
1784246675.477217,0.007215305,-0.106591679,-0.995566130,0.001340854,-0.001531040,-0.000408889,1.053955197,0.078954577,9.731938362
1784246675.479218,0.007215305,-0.106591679,-0.995566130,0.000837547,-0.001476392,0.000137302,1.030924320,0.067146488,9.732737541
1784246675.481224,0.007215126,-0.106591716,-0.995566130,0.000413665,-0.001688617,0.000642013,1.030796289,0.092781417,9.719452858
1784246675.483222,0.007215126,-0.106591716,-0.995566130,0.000468754,-0.001631264,0.001029501,1.054996371,0.089805432,9.716318130
1784246675.485226,0.007216151,-0.106592633,-0.995566130,0.000369276,-0.001085108,0.001494887,1.073013902,0.059422784,9.734970093
1784246675.487224,0.007216151,-0.106592633,-0.995566130,0.000457421,-0.000886851,0.001815008,1.059014559,0.052004747,9.732219696
1784246675.489221,0.007216151,-0.106592633,-0.995566130,0.001206397,-0.001035581,0.001686631,1.045783043,0.073037438,9.759690285
1784246675.491258,0.007215812,-0.106592618,-0.995566130,0.001611175,-0.000835206,0.001396036,1.022848845,0.068879649,9.755605698
1784246675.493241,0.007215812,-0.106592618,-0.995566130,0.001309910,-0.000611585,0.001310189,1.065584302,0.074865669,9.718921661
1784246675.495249,0.007215830,-0.106593847,-0.995566130,0.000888882,-0.000663382,0.001390548,1.061280727,0.052154060,9.707115173
1784246675.497232,0.007215830,-0.106593847,-0.995566130,0.000743907,-0.000827859,0.001286173,1.035450697,0.032240849,9.718620300
1784246675.499242,0.007215830,-0.106593847,-0.995566130,0.000695547,-0.000818095,0.000524982,1.034202218,0.041944712,9.742442131
1784246675.501238,0.007214732,-0.106593207,-0.995566130,0.000826844,-0.000488017,-0.000153837,1.055005908,0.054721992,9.735370636
1784246675.503242,0.007214732,-0.106593207,-0.995566130,0.001101699,-0.000201028,0.000254785,1.052502394,0.070025325,9.730087280
1784246675.505239,0.007215532,-0.106593616,-0.995566130,0.000678848,-0.000724204,0.000709859,1.038770914,0.086199783,9.748559952
1784246675.507249,0.007215532,-0.106593616,-0.995566130,-0.000158495,-0.001689947,0.000441567,1.063026071,0.087709792,9.744556427
1784246675.509249,0.007215532,-0.106593616,-0.995566130,-0.000093793,-0.001896004,0.000123601,1.086173296,0.070953913,9.727884293
1784246675.511248,0.007215305,-0.106596544,-0.995566070,0.000464740,-0.001600875,-0.000231104,1.075749278,0.064592123,9.759216309
1784246675.513245,0.007215305,-0.106596544,-0.995566070,0.000509843,-0.001364972,-0.000327495,1.056927204,0.064207926,9.721087456
1784246675.515252,0.007215950,-0.106596611,-0.995566070,0.000146167,-0.001045736,-0.000253109,1.054032564,0.085238755,9.730185509
1784246675.517246,0.007215950,-0.106596611,-0.995566070,-0.000100642,-0.000883265,-0.000542266,1.047730207,0.084753640,9.746765137
1784246675.519252,0.007215950,-0.106596611,-0.995566070,-0.000190563,-0.000802207,-0.000698823,1.044849873,0.067902334,9.727375031
1784246675.521250,0.007215290,-0.106597103,-0.995566010,-0.000254058,-0.000475514,-0.000432291,1.059743166,0.038906991,9.745585442
1784246675.523253,0.007215290,-0.106597103,-0.995566010,-0.000066560,-0.000365816,-0.000274572,1.062595367,0.051078729,9.729974747
1784246675.525252,0.007215108,-0.106598035,-0.995566010,0.000518548,-0.000614614,-0.000178846,1.057771564,0.060129806,9.725993156
1784246675.527259,0.007215108,-0.106598035,-0.995566010,0.000893869,-0.000489325,-0.000107484,1.045394063,0.076350622,9.735501289
1784246675.529256,0.007215108,-0.106598035,-0.995566010,0.000628764,-0.000102378,-0.000361586,1.070395231,0.102086112,9.725826263
1784246675.531261,0.007215983,-0.106599309,-0.995566010,0.000595038,-0.000128197,-0.000548158,1.060200334,0.076964609,9.748520851
1784246675.533260,0.007215983,-0.106599309,-0.995566010,0.001058221,-0.000188264,-0.000683529,1.039927006,0.070094086,9.743077278
1784246675.535267,0.007216251,-0.106598765,-0.995566010,0.001343637,0.000036756,-0.000491901,1.031913161,0.075150594,9.739514351
1784246675.537264,0.007216251,-0.106598765,-0.995566010,0.001095739,-0.000031714,0.000187233,1.068651438,0.070190005,9.740863800
1784246675.539274,0.007216251,-0.106598765,-0.995566010,0.000856168,-0.000530606,0.000625224,1.056133628,0.111140259,9.738424301
1784246675.541271,0.007219694,-0.106599465,-0.995566010,0.000610932,-0.000819181,0.000601616,1.059003830,0.087078638,9.714510918
1784246675.543273,0.007219694,-0.106599465,-0.995566010,0.000545285,-0.000686536,0.000243523,1.035378933,0.063591152,9.720614433
1784246675.545267,0.007219627,-0.106598809,-0.995566070,0.000861455,-0.000465180,-0.000449314,1.022699714,0.091512389,9.723471642
1784246675.547277,0.007219627,-0.106598809,-0.995566070,0.001069328,-0.000734887,-0.001082838,1.056516171,0.070589706,9.769546509
1784246675.549280,0.007219627,-0.106598809,-0.995566070,0.000660472,-0.000819875,-0.001129431,1.041147947,0.059767388,9.743907928
1784246675.551280,0.007218908,-0.106598116,-0.995566070,0.000099948,-0.000104658,-0.001213616,1.049656749,0.059121154,9.756465912
1784246675.553280,0.007218908,-0.106598116,-0.995566070,-0.000017756,0.000609235,-0.000948475,1.060135841,0.070782170,9.735928535
1784246675.555285,0.007219142,-0.106598802,-0.995566010,0.000015468,0.000583613,-0.000036102,1.023794889,0.071683109,9.737691879
1784246675.557281,0.007219142,-0.106598802,-0.995566010,0.000089864,0.000011522,-0.000204835,1.044938087,0.076299138,9.743570328
1784246675.559284,0.007219142,-0.106598802,-0.995566010,0.000168468,-0.000004320,-0.001173917,1.069210291,0.077132605,9.708628654
1784246675.561283,0.007217939,-0.106600679,-0.995566010,0.000174520,0.000447468,-0.001028948,1.054400444,0.079326846,9.741805077
1784246675.563291,0.007217939,-0.106600679,-0.995566010,0.000136788,0.000411749,-0.000058952,1.069538355,0.069689199,9.746689796
1784246675.565289,0.007218021,-0.106601760,-0.995565891,-0.000040660,-0.000221308,0.000102504,1.057750344,0.059557840,9.743474960
1784246675.567290,0.007218021,-0.106601760,-0.995565891,-0.000528914,-0.000531963,-0.000212851,1.044782758,0.062914357,9.735863686
1784246675.569287,0.007218021,-0.106601760,-0.995565891,-0.000679687,-0.000167504,-0.000276501,1.029183507,0.073269233,9.756985664
1784246675.571292,0.007217760,-0.106600389,-0.995566070,-0.000406284,0.000435522,-0.000266224,1.061335921,0.097070016,9.754477501
1784246675.573310,0.007217760,-0.106600389,-0.995566070,-0.000373403,0.000604965,0.000010271,1.083941817,0.109478101,9.733058929
1784246675.575300,0.007220059,-0.106602609,-0.995565832,-0.000555403,0.000064984,0.000153517,1.046181083,0.069794208,9.774016380
1784246675.577342,0.007220059,-0.106602609,-0.995565832,-0.000847948,-0.000162124,-0.000156650,1.044726253,0.058415662,9.738524437
1784246675.579308,0.007220059,-0.106602609,-0.995565832,-0.001072081,0.000250626,-0.000722384,1.033697128,0.074231669,9.739510536
1784246675.581316,0.007219466,-0.106602408,-0.995566010,-0.000835079,0.000745982,-0.001295261,1.042739749,0.080737546,9.753458977
1784246675.583312,0.007219466,-0.106602408,-0.995566010,-0.000482156,0.001208578,-0.001007722,1.052719235,0.088353582,9.735584259
1784246675.585305,0.007221058,-0.106602952,-0.995566010,-0.000153910,0.001541818,-0.000310761,1.028808832,0.078317031,9.740877151
1784246675.587365,0.007221058,-0.106602952,-0.995566010,0.000139066,0.001642995,-0.000291135,1.056810141,0.094388872,9.761631012
1784246675.589341,0.007221058,-0.106602952,-0.995566010,0.000170642,0.001593442,-0.000404176,1.028427243,0.083310753,9.732391357
1784246675.591341,0.007222153,-0.106602103,-0.995566010,0.000030995,0.001611767,-0.000269859,1.033434153,0.053107552,9.749238014
1784246675.593351,0.007222153,-0.106602103,-0.995566010,-0.000035898,0.001463855,-0.000353372,1.049963117,0.045835555,9.733963966
1784246675.595323,0.007221355,-0.106603801,-0.995566010,0.000256193,0.001065547,-0.000595805,1.057453632,0.073326379,9.761048317
1784246675.597318,0.007221355,-0.106603801,-0.995566010,0.000302819,0.000505858,-0.000557559,1.065879941,0.103134528,9.775593758
1784246675.599332,0.007221355,-0.106603801,-0.995566010,0.000208995,0.000008848,-0.000422087,1.057021499,0.073462501,9.742667198
1784246675.601334,0.007222481,-0.106605008,-0.995566010,0.000522218,-0.000177452,-0.000303760,1.054936409,0.048904866,9.734437943
1784246675.603328,0.007222481,-0.106605008,-0.995566010,0.000659827,-0.000312636,-0.000145493,1.016893625,0.056643598,9.722794533
1784246675.605339,0.007221989,-0.106602795,-0.995566010,0.000471627,-0.000300895,0.000114373,1.052734137,0.090901449,9.755328178
1784246675.607334,0.007221989,-0.106602795,-0.995566010,0.000304691,0.000284176,0.000270743,1.052047968,0.106359839,9.724940300
1784246675.609327,0.007221989,-0.106602795,-0.995566010,0.000566974,0.000979564,-0.000154787,1.039877534,0.101619296,9.720415115
1784246675.611336,0.007223631,-0.106602855,-0.995566010,0.000772961,0.001197888,-0.000448312,1.045514464,0.086621925,9.740050316
1784246675.613334,0.007223631,-0.106602855,-0.995566010,0.000326011,0.001397378,-0.000337933,1.057050824,0.076531455,9.752101898
1784246675.615334,0.007223919,-0.106603503,-0.995566010,0.000070888,0.001414732,-0.000059554,1.034759760,0.088897958,9.754401207
1784246675.617332,0.007223919,-0.106603503,-0.995566010,0.000368604,0.001042959,0.000340439,1.043396831,0.059779972,9.738082886
1784246675.619341,0.007223919,-0.106603503,-0.995566010,0.000476971,0.000633177,-0.000000930,1.034831762,0.055524062,9.721907616
1784246675.621335,0.007223334,-0.106602870,-0.995566010,0.000085595,0.000234056,-0.000630010,1.029670358,0.038405791,9.744209290
1784246675.623337,0.007223334,-0.106602870,-0.995566010,0.000216368,0.000061490,-0.000545415,1.027171731,0.054557350,9.745656013
1784246675.625344,0.007222615,-0.106602266,-0.995566130,0.000823119,0.000416241,-0.000480298,1.056076884,0.069048442,9.735015869
1784246675.627346,0.007222615,-0.106602266,-0.995566130,0.000472544,0.000865647,-0.000830196,1.030169725,0.078820869,9.730570793
1784246675.629344,0.007222615,-0.106602266,-0.995566130,-0.000314727,0.000514357,-0.001017513,1.053832650,0.069477446,9.741742134
1784246675.631352,0.007222894,-0.106602199,-0.995566010,-0.000695463,-0.000196712,-0.000650750,1.047612071,0.074904852,9.745805740
1784246675.633349,0.007222894,-0.106602199,-0.995566010,-0.001004891,-0.000266384,-0.000056187,1.063605785,0.061684746,9.748874664
1784246675.635352,0.007222842,-0.106602855,-0.995566130,-0.000974727,-0.000103574,0.000324386,1.051693797,0.078843430,9.751663208
1784246675.637351,0.007222842,-0.106602855,-0.995566130,-0.000912562,0.000304910,0.000224220,1.021568179,0.074275613,9.755190849
1784246675.639357,0.007222842,-0.106602855,-0.995566130,-0.001030097,0.000516460,-0.000210523,1.021217585,0.081540950,9.742236137
1784246675.641356,0.007222339,-0.106600255,-0.995566070,-0.000856576,-0.000308051,0.000099543,1.026840210,0.101588890,9.748197556
1784246675.643353,0.007222339,-0.106600255,-0.995566070,-0.000822106,-0.000929138,0.000884769,1.031330585,0.101963438,9.750447273
1784246675.645353,0.007224347,-0.106600083,-0.995566189,-0.000791188,-0.000911796,0.001152544,1.072087288,0.057178576,9.737196922
1784246675.647355,0.007224347,-0.106600083,-0.995566189,-0.000386029,-0.000668191,0.001168992,1.028725386,0.032368422,9.712785721
1784246675.649354,0.007224347,-0.106600083,-0.995566189,0.000183978,-0.000221821,0.000876029,1.016486168,0.061027210,9.737166405
1784246675.651359,0.007223945,-0.106598713,-0.995566130,0.000692198,0.000231447,0.000158018,1.030446529,0.064896546,9.734964371
1784246675.653359,0.007223945,-0.106598713,-0.995566130,0.000825711,0.000384872,-0.000474717,1.061954141,0.072160304,9.727868080
1784246675.655364,0.007224370,-0.106599599,-0.995566130,0.001140291,0.000652748,-0.000356784,1.021961570,0.068970643,9.744396210
1784246675.657360,0.007224370,-0.106599599,-0.995566130,0.002002688,0.000964734,0.000109873,1.039277196,0.089485571,9.726612091
1784246675.659368,0.007224370,-0.106599599,-0.995566130,0.002353815,0.000514795,-0.000168147,1.037401795,0.083198957,9.731950760
1784246675.661365,0.007225218,-0.106599137,-0.995566130,0.001919302,-0.000163972,-0.000626459,1.036653399,0.058954395,9.740311623
1784246675.663369,0.007225218,-0.106599137,-0.995566130,0.001601200,-0.000662414,-0.000310494,1.040341973,0.067794479,9.750684738
1784246675.665366,0.007225174,-0.106598802,-0.995566130,0.001318888,-0.000648102,0.000102224,1.039193749,0.046780430,9.746513367
1784246675.667369,0.007225174,-0.106598802,-0.995566130,0.000848494,-0.000128298,-0.000009890,1.028666735,0.068684094,9.772646904
1784246675.669389,0.007225174,-0.106598802,-0.995566130,0.000471392,0.000360179,-0.000325680,1.038391709,0.056052845,9.767195702
1784246675.671389,0.007224682,-0.106598221,-0.995566130,0.000037149,0.000953400,-0.000825438,1.017807961,0.096382380,9.740534782
1784246675.673385,0.007224682,-0.106598221,-0.995566130,-0.000279756,0.001349120,-0.001117503,1.032181263,0.099556334,9.772400856
1784246675.675380,0.007226053,-0.106597923,-0.995566249,-0.000063642,0.001322275,-0.000627295,1.053506613,0.080583647,9.755711555
1784246675.677387,0.007226053,-0.106597923,-0.995566249,0.000219178,0.001298379,0.000217391,1.063102841,0.055994194,9.730904579
1784246675.679384,0.007226053,-0.106597923,-0.995566249,-0.000135247,0.001182007,0.000343895,1.049146891,0.053376544,9.746116638
1784246675.681427,0.007224679,-0.106598288,-0.995566130,-0.000774536,0.000887674,0.000055191,1.047497392,0.102268025,9.741497040
1784246675.683397,0.007224679,-0.106598288,-0.995566130,-0.000786947,0.000794252,-0.000135681,1.028562784,0.059353217,9.761826515
1784246675.685386,0.007223706,-0.106597967,-0.995566249,-0.000485673,0.000992948,-0.000290801,1.019985795,0.054191843,9.746991158
1784246675.687394,0.007223706,-0.106597967,-0.995566249,-0.000465570,0.001156073,-0.000115191,1.033538103,0.060008202,9.723728180
1784246675.689396,0.007223706,-0.106597967,-0.995566249,-0.000434883,0.001094523,0.000047864,1.031737208,0.059983507,9.730450630
1784246675.691420,0.007222645,-0.106597327,-0.995566308,-0.000686186,0.000766308,-0.000106143,1.025925517,0.062253535,9.736737251
1784246675.693409,0.007222645,-0.106597327,-0.995566308,-0.001068627,0.000440578,-0.000417705,1.045756459,0.070394188,9.753396034
1784246675.695403,0.007223028,-0.106597275,-0.995566249,-0.001090265,0.000560390,-0.000624225,1.039146543,0.078728139,9.727439880
1784246675.697400,0.007223028,-0.106597275,-0.995566249,-0.000473404,0.000657964,-0.000629195,1.038199782,0.076728411,9.758361816
1784246675.699402,0.007223028,-0.106597275,-0.995566249,0.000311940,0.000076124,-0.000419298,1.021117687,0.037488747,9.762576103
1784246675.701404,0.007220730,-0.106595680,-0.995566308,0.000138707,-0.000682684,-0.000106975,1.028088570,0.054295029,9.717857361
1784246675.703402,0.007220730,-0.106595680,-0.995566308,-0.000671472,-0.001010331,-0.000168111,0.969875515,0.066917978,9.748818398
1784246675.705407,0.007220976,-0.106592514,-0.995566249,-0.001332891,-0.001157921,-0.000266410,0.992355168,0.071033828,9.759625435
1784246675.707406,0.007220976,-0.106592514,-0.995566249,-0.001757175,-0.000995074,-0.000498888,1.017713904,0.051564615,9.742487907
1784246675.709440,0.007220976,-0.106592514,-0.995566249,-0.002007256,-0.000514880,-0.001027174,1.029466033,0.058982790,9.749271393
1784246675.711423,0.007220667,-0.106591806,-0.995566308,-0.001827941,-0.000064176,-0.000887386,1.046480536,0.054831233,9.735363960
1784246675.713458,0.007220667,-0.106591806,-0.995566308,-0.001285256,-0.000064936,-0.000678419,1.026314259,0.057317045,9.737153053
1784246675.715415,0.007220115,-0.106591403,-0.995566308,-0.001054429,-0.000225819,-0.000509292,1.012594819,0.072370186,9.724235535
1784246675.717432,0.007220115,-0.106591403,-0.995566308,-0.000828375,-0.000001770,-0.000366040,1.023772359,0.069074839,9.726467133
1784246675.719420,0.007220115,-0.106591403,-0.995566308,-0.000302651,0.000068665,-0.000442144,1.016192079,0.074411377,9.745772362
1784246675.721427,0.007219824,-0.106589846,-0.995566308,0.000004721,-0.000062630,0.000060884,1.015967965,0.091995716,9.730641365
1784246675.723425,0.007219824,-0.106589846,-0.995566308,-0.000132168,-0.000117393,0.000264523,1.049547672,0.050155576,9.757304192
1784246675.725426,0.007218778,-0.106589988,-0.995566368,-0.000318926,-0.000025263,-0.000416914,1.024424314,0.050509326,9.752799988
1784246675.727422,0.007218778,-0.106589988,-0.995566368,-0.000511467,-0.000173307,-0.000950726,1.019463658,0.046728525,9.726319313
1784246675.729423,0.007218778,-0.106589988,-0.995566368,-0.001070720,-0.000494731,-0.000998474,1.048124433,0.079048403,9.729244232
1784246675.731425,0.007219418,-0.106589839,-0.995566249,-0.001586977,-0.000676149,-0.000635997,1.043773532,0.089907832,9.722136497
1784246675.733427,0.007219418,-0.106589839,-0.995566249,-0.001944964,-0.000755946,-0.000136942,1.035605550,0.046835959,9.745165825
1784246675.735433,0.007217708,-0.106589504,-0.995566249,-0.002513100,-0.000950773,-0.000424501,1.019966364,0.050795753,9.720518112
1784246675.737431,0.007217708,-0.106589504,-0.995566249,-0.002603955,-0.001434849,-0.001176932,1.038168788,0.072836667,9.738610268
1784246675.739429,0.007217708,-0.106589504,-0.995566249,-0.002237607,-0.001778142,-0.001074466,1.022291541,0.059923001,9.755996704
1784246675.741445,0.007216609,-0.106588311,-0.995566249,-0.002526921,-0.001503795,-0.000420124,1.032967806,0.051353242,9.744744301
1784246675.743443,0.007216609,-0.106588311,-0.995566249,-0.003164224,-0.000615478,0.000077767,1.028753757,0.037454601,9.753617287
1784246675.745439,0.007215380,-0.106587850,-0.995566189,-0.002963044,-0.000316955,0.000349332,1.029821754,0.049732018,9.726347923
1784246675.747514,0.007215380,-0.106587850,-0.995566189,-0.002156928,-0.001058118,0.000145731,1.025107980,0.067758225,9.720183372
1784246675.749478,0.007215380,-0.106587850,-0.995566189,-0.001496821,-0.001614951,-0.000309450,1.049276590,0.064937681,9.758296967
1784246675.751492,0.007215253,-0.106588453,-0.995566189,-0.001026113,-0.001317745,-0.000763507,1.034145236,0.074626192,9.746238708
1784246675.753482,0.007215253,-0.106588453,-0.995566189,-0.000229796,-0.000892456,-0.000713311,1.067590594,0.055943061,9.730011940
1784246675.755481,0.007214538,-0.106588997,-0.995566249,0.000329804,-0.000693622,-0.000153892,1.023387194,0.038880195,9.751827240
1784246675.757466,0.007214538,-0.106588997,-0.995566249,-0.000076192,-0.000505219,0.000451159,1.028599858,0.060052369,9.726413727
1784246675.759466,0.007214538,-0.106588997,-0.995566249,-0.000732998,-0.000380194,0.000584409,1.043545127,0.072704077,9.747580528
1784246675.761467,0.007213983,-0.106588349,-0.995566308,-0.001260708,0.000126726,0.000467097,1.044901729,0.071149349,9.711705208
1784246675.763467,0.007213983,-0.106588349,-0.995566308,-0.000901203,0.000809873,0.000727552,1.026700258,0.053168353,9.752818108
1784246675.765465,0.007213059,-0.106587835,-0.995566308,-0.000138090,0.000816820,0.000807042,1.030597210,0.076623023,9.723831177
1784246675.767465,0.007213059,-0.106587835,-0.995566308,0.000071532,0.000415950,0.000158118,1.028551221,0.056424160,9.732667923
1784246675.769474,0.007213059,-0.106587835,-0.995566308,0.000439394,-0.000040502,-0.000297140,1.040227056,0.059187837,9.764079094
1784246675.771476,0.007212810,-0.106586881,-0.995566308,0.001120860,-0.000488465,-0.000141377,1.047714591,0.083009489,9.740028381
1784246675.773476,0.007212810,-0.106586881,-0.995566308,0.001291308,-0.000812725,0.000206261,1.034710169,0.084453322,9.749441147
1784246675.775476,0.007213018,-0.106586941,-0.995566308,0.001233711,-0.001171983,0.000296072,1.032127500,0.057083312,9.759573936
1784246675.777478,0.007213018,-0.106586941,-0.995566308,0.001355746,-0.001414701,-0.000089431,1.015706182,0.034507856,9.750447273
1784246675.779482,0.007213018,-0.106586941,-0.995566308,0.001394025,-0.001179204,-0.000007013,1.023806691,0.035402045,9.736113548
1784246675.781501,0.007211908,-0.106586717,-0.995566428,0.001367430,-0.000885161,0.000721541,1.000336051,0.025289798,9.751270294
1784246675.783473,0.007211908,-0.106586717,-0.995566428,0.001235203,-0.001030938,0.001448669,1.017658353,0.047478918,9.750083923
1784246675.785480,0.007210507,-0.106585808,-0.995566368,0.000904563,-0.001185286,0.001436180,1.024944782,0.055123098,9.733102798
1784246675.787472,0.007210507,-0.106585808,-0.995566368,0.000685760,-0.000937758,0.001393019,1.032087922,0.053124793,9.749237061
1784246675.789480,0.007210507,-0.106585808,-0.995566368,0.000564168,-0.000543625,0.001651657,1.038312197,0.085315973,9.747656822
1784246675.791519,0.007211584,-0.106585175,-0.995566368,0.000312144,-0.000466636,0.001170724,1.058655858,0.059609935,9.734510422
1784246675.793496,0.007211584,-0.106585175,-0.995566368,0.000670146,-0.000488387,0.000820797,1.062807560,0.070585519,9.758793831
1784246675.795488,0.007210719,-0.106586374,-0.995566368,0.001416397,-0.000516329,0.001685794,1.046428084,0.049957711,9.727711678
1784246675.797485,0.007210719,-0.106586374,-0.995566368,0.001742476,-0.000675898,0.001917675,1.029859900,0.054491062,9.750139236
1784246675.799483,0.007210719,-0.106586374,-0.995566368,0.001771524,-0.000278279,0.000843554,1.016879320,0.056125686,9.732653618
1784246675.801509,0.007198113,-0.106592245,-0.995558977,0.001468877,0.000189926,-0.000202977,1.035412669,0.055244129,9.739241600
1784246675.803498,0.007198113,-0.106592245,-0.995558977,0.000918694,0.000280353,-0.000696272,1.024037004,0.054241855,9.732648849
1784246675.805491,0.007197670,-0.106591001,-0.995559096,0.000355385,0.000424353,-0.000790696,1.044078469,0.077419594,9.713538170
1784246675.807495,0.007197670,-0.106591001,-0.995559096,0.000339710,0.000289683,-0.000643569,1.034058571,0.067052193,9.740362167
1784246675.809494,0.007197670,-0.106591001,-0.995559096,0.000630048,-0.000210979,0.000003403,1.026141524,0.080978878,9.749410629
1784246675.811497,0.007198050,-0.106590241,-0.995559096,0.000552634,-0.000536703,0.000492525,1.059799910,0.080998830,9.748994827
1784246675.813495,0.007198050,-0.106590241,-0.995559096,0.000140330,-0.000335625,0.000435530,1.058075547,0.086035237,9.736920357
1784246675.815499,0.007199022,-0.106592268,-0.995559037,-0.000516437,0.000195451,-0.000055708,1.048524857,0.076230876,9.746710777
1784246675.817507,0.007199022,-0.106592268,-0.995559037,-0.000925339,0.000294481,-0.000559478,1.052253842,0.088632405,9.760244370
1784246675.819503,0.007199022,-0.106592268,-0.995559037,-0.000521808,0.000034632,-0.000854998,1.058602929,0.056356564,9.751076698
1784246675.821507,0.007199134,-0.106593914,-0.995558977,0.000535456,0.000179753,-0.001175515,1.035979033,0.040158499,9.738397598
1784246675.823506,0.007199134,-0.106593914,-0.995558977,0.001706569,0.000604249,-0.001262181,1.035169601,0.046943463,9.730818748
1784246675.825506,0.007197558,-0.106594294,-0.995559096,0.002246793,0.000535117,-0.000714160,1.055855513,0.049065065,9.710229874
1784246675.827510,0.007197558,-0.106594294,-0.995559096,0.001874531,-0.000101071,-0.000301361,1.036851168,0.038326528,9.742422104
1784246675.829510,0.007197558,-0.106594294,-0.995559096,0.001296083,-0.000666000,-0.000525198,1.027729034,0.062703945,9.733154297
1784246675.831514,0.007195752,-0.106593266,-0.995559037,0.000908421,-0.001259117,-0.000490648,1.055810928,0.083465241,9.724348068
1784246675.833516,0.007195752,-0.106593266,-0.995559037,0.000900191,-0.001371496,-0.000246641,1.065550685,0.072978437,9.732360840
1784246675.835511,0.007196582,-0.106595159,-0.995559037,0.001135705,-0.000931888,-0.000408579,1.053961396,0.077788770,9.706825256
1784246675.837512,0.007196582,-0.106595159,-0.995559037,0.001559151,-0.000740017,-0.000581020,1.064112544,0.065380342,9.732310295
1784246675.839517,0.007196582,-0.106595159,-0.995559037,0.001938035,-0.000640872,-0.000074943,1.042256117,0.076009676,9.726079941
1784246675.841519,0.007196903,-0.106595039,-0.995558977,0.001636049,-0.000438523,0.000636520,1.052468061,0.066511594,9.720200539
1784246675.843519,0.007196903,-0.106595039,-0.995558977,0.001094052,-0.000033882,0.000866906,1.023262143,0.066567324,9.765006065
1784246675.845519,0.007196500,-0.106594250,-0.995559096,0.001010504,0.000582632,0.000856509,1.028211355,0.065802127,9.737658501
1784246675.847520,0.007196500,-0.106594250,-0.995559096,0.001128268,0.000779279,0.000613138,1.053668976,0.056432519,9.749279022
1784246675.849523,0.007196500,-0.106594250,-0.995559096,0.001043027,0.000168081,0.000485526,1.051626444,0.073448807,9.754317284
1784246675.851531,0.007195949,-0.106594130,-0.995559096,0.000638029,-0.000236922,0.000301982,1.058190465,0.095858596,9.741465569
1784246675.853527,0.007195949,-0.106594130,-0.995559096,0.000255671,-0.000243144,0.000187794,1.037853956,0.084435336,9.746305466
1784246675.855528,0.007196303,-0.106594428,-0.995559096,0.000232294,0.000017347,0.000467527,1.053293586,0.061880574,9.739899635
1784246675.857526,0.007196303,-0.106594428,-0.995559096,-0.000101216,0.000950925,0.000277812,1.050069928,0.055188689,9.741646767
1784246675.859530,0.007196303,-0.106594428,-0.995559096,-0.000288179,0.001652407,-0.000510051,1.042018533,0.057112630,9.737616539
1784246675.861536,0.007195603,-0.106595285,-0.995559096,0.000217054,0.001274884,-0.001142088,1.024371982,0.082012266,9.733275414
1784246675.863536,0.007195603,-0.106595285,-0.995559096,0.000214035,0.000209575,-0.001228424,1.055224776,0.071849443,9.720687866
1784246675.865534,0.007195960,-0.106595986,-0.995559037,-0.000270500,-0.000056428,-0.001433659,1.070442796,0.068518244,9.720679283
1784246675.867536,0.007195960,-0.106595986,-0.995559037,-0.000922551,0.000474201,-0.001778179,1.049562693,0.086649671,9.728844643
1784246675.869548,0.007195960,-0.106595986,-0.995559037,-0.001600945,0.000571423,-0.001453435,1.038434625,0.057203144,9.731335640
1784246675.871539,0.007196053,-0.106595784,-0.995558977,-0.002097378,0.000409058,-0.001344529,1.057391405,0.064729638,9.709882736
1784246675.873545,0.007196053,-0.106595784,-0.995558977,-0.002095227,0.000397505,-0.001697262,1.082288742,0.083971091,9.731549263
1784246675.875541,0.007196005,-0.106597096,-0.995558918,-0.001462663,0.000377747,-0.001213161,1.060184360,0.076837428,9.766451836
1784246675.877555,0.007196005,-0.106597096,-0.995558918,-0.001075357,0.000308598,-0.000608195,1.043638229,0.082355715,9.776335716
1784246675.879556,0.007196005,-0.106597096,-0.995558918,-0.000788851,0.000531818,-0.000761662,1.043661475,0.082536966,9.750782013
1784246675.881558,0.007195908,-0.106597401,-0.995558977,-0.000506171,0.000802846,-0.001071310,1.069785953,0.089882433,9.741888046
1784246675.883554,0.007195908,-0.106597401,-0.995558977,-0.000305423,0.000724599,-0.000359735,1.035804987,0.100184053,9.740575790
1784246675.885554,0.007196929,-0.106596678,-0.995558977,0.000148622,0.000787949,0.000538888,1.037923574,0.090659097,9.753070831
1784246675.887564,0.007196929,-0.106596678,-0.995558977,0.000447242,0.001002194,0.000255716,1.058911324,0.082700424,9.763351440
1784246675.889559,0.007196929,-0.106596678,-0.995558977,0.000244847,0.000697252,-0.000350947,1.051023722,0.060485952,9.751095772
1784246675.891578,0.007196396,-0.106597580,-0.995558977,-0.000121651,0.000314589,-0.000649723,1.045788169,0.072265521,9.742199898
1784246675.893571,0.007196396,-0.106597580,-0.995558977,-0.000347327,0.000538580,-0.000738148,1.024377942,0.082870036,9.738661766
1784246675.895558,0.007197428,-0.106597297,-0.995558977,-0.000328728,0.000950443,-0.000584267,1.064560175,0.065771677,9.739487648
1784246675.897625,0.007197428,-0.106597297,-0.995558977,0.000004724,0.000830393,-0.000040755,1.028895855,0.084677503,9.728364944
1784246675.899571,0.007197428,-0.106597297,-0.995558977,-0.000133002,0.000692049,0.000516765,1.035483241,0.072518572,9.725155830
1784246675.901573,0.007197830,-0.106597766,-0.995558977,-0.000518702,0.000919325,0.000761821,1.039965749,0.074046262,9.754311562
1784246675.903582,0.007197830,-0.106597766,-0.995558977,-0.000477418,0.000863325,0.001282604,1.041013718,0.086571299,9.755289078
1784246675.905572,0.007198217,-0.106597617,-0.995558977,-0.000339449,0.000697364,0.001336530,1.032056212,0.088033356,9.754840851
1784246675.907574,0.007198217,-0.106597617,-0.995558977,0.000072528,0.000758631,0.000474734,1.046581388,0.100916557,9.744177818
1784246675.909584,0.007198217,-0.106597617,-0.995558977,0.000297234,0.000568648,0.000080171,1.043903589,0.101875596,9.740145683
1784246675.911583,0.007199060,-0.106598079,-0.995558858,-0.000213833,-0.000049895,0.000023663,1.042034745,0.094019718,9.714091301
1784246675.913579,0.007199060,-0.106598079,-0.995558858,-0.000672052,-0.000085588,-0.000015328,1.025539517,0.066805661,9.727351189
1784246675.915578,0.007198918,-0.106597610,-0.995558858,-0.000784470,0.000369898,0.000302286,1.050053239,0.091024965,9.742772102
1784246675.917584,0.007198918,-0.106597610,-0.995558858,-0.000955158,0.000776772,0.000190958,1.048489094,0.073921114,9.756559372
1784246675.919585,0.007198918,-0.106597610,-0.995558858,-0.000898058,0.001107881,0.000002027,1.044471860,0.074951455,9.744906425
1784246675.921590,0.007199298,-0.106597744,-0.995558858,-0.000647981,0.000677663,0.000384486,1.041152835,0.061022237,9.756470680
1784246675.923586,0.007199298,-0.106597744,-0.995558858,-0.000649282,0.000114354,0.000643367,1.021890998,0.062740520,9.738530159
1784246675.925588,0.007200039,-0.106596738,-0.995558858,-0.000822531,0.000462588,0.000709550,1.047979236,0.068986572,9.758320808
1784246675.927584,0.007200039,-0.106596738,-0.995558858,-0.000602288,0.001000082,0.000832102,1.041191339,0.062947631,9.737652779
1784246675.929590,0.007200039,-0.106596738,-0.995558858,-0.000137377,0.001153483,0.001064951,1.040902257,0.076369941,9.740877151
1784246675.931600,0.007200017,-0.106596887,-0.995558858,-0.000342655,0.001144552,0.001323302,1.055057645,0.096369043,9.738328934
1784246675.933596,0.007200017,-0.106596887,-0.995558858,-0.000872037,0.001106696,0.001420470,1.029399276,0.089561172,9.733777046
1784246675.935596,0.007200665,-0.106595635,-0.995558858,-0.001026186,0.000770083,0.001580162,1.042587042,0.067778461,9.748893738
1784246675.937595,0.007200665,-0.106595635,-0.995558858,-0.001175224,0.000436260,0.001533477,1.062551737,0.085891895,9.749029160
1784246675.939616,0.007200665,-0.106595635,-0.995558858,-0.001186617,0.000716880,0.001033193,1.045147061,0.092133574,9.721703529
1784246675.941615,0.007202069,-0.106596924,-0.995558918,-0.000796262,0.001024341,0.000778260,1.027395487,0.074966423,9.773581505
1784246675.943603,0.007202069,-0.106596924,-0.995558918,-0.000429599,0.000596698,0.001040339,1.038291097,0.083123870,9.740917206
1784246675.945607,0.007202683,-0.106596477,-0.995558977,-0.000543130,0.000199273,0.001230178,1.038897753,0.060148705,9.757358551
1784246675.947607,0.007202683,-0.106596477,-0.995558977,-0.001121092,0.000748147,0.000541974,1.024381280,0.083705537,9.747183800
1784246675.949612,0.007202683,-0.106596477,-0.995558977,-0.001375797,0.001382960,-0.000409097,1.032737255,0.067266569,9.712565422
1784246675.951610,0.007203373,-0.106596299,-0.995558977,-0.001355057,0.001080915,-0.000076921,1.077463508,0.055422667,9.722395897
1784246675.953612,0.007203373,-0.106596299,-0.995558977,-0.001581113,0.000410288,0.000685675,1.043088317,0.034246195,9.737918854
1784246675.955625,0.007201116,-0.106595919,-0.995558858,-0.001578528,0.000246583,0.000810050,1.013273478,0.056447938,9.756862640
1784246675.957618,0.007201116,-0.106595919,-0.995558858,-0.001698783,0.000559959,0.001011184,1.017727017,0.054099765,9.764025688
1784246675.959624,0.007201116,-0.106595919,-0.995558858,-0.001873407,0.001217849,0.001701517,1.040563822,0.086567506,9.756632805
1784246675.961631,0.007201890,-0.106595144,-0.995558858,-0.001421971,0.001638649,0.001916182,1.045317054,0.071689762,9.761025429
1784246675.963745,0.007201890,-0.106595144,-0.995558858,-0.000897889,0.001461210,0.001402260,1.057781100,0.061826263,9.739454269
1784246675.965655,0.007201708,-0.106595911,-0.995558858,-0.000844496,0.001065389,0.001043918,1.038134933,0.069732733,9.734107018
1784246675.967643,0.007201708,-0.106595911,-0.995558858,-0.000934560,0.000614775,0.001052538,1.027874589,0.073579006,9.715740204
1784246675.969666,0.007201708,-0.106595911,-0.995558858,-0.000690525,0.000394041,0.000590561,1.057484627,0.073571213,9.726528168
1784246675.971631,0.007201768,-0.106597133,-0.995558739,-0.000129613,0.000447975,-0.000213526,1.036575556,0.090256996,9.749032021
1784246675.973630,0.007201768,-0.106597133,-0.995558739,0.000456027,0.000230712,-0.000367199,1.054046631,0.084539980,9.702384949
1784246675.975696,0.007202419,-0.106598079,-0.995558739,0.000720096,0.000162083,-0.000135923,1.057914734,0.070582360,9.704988480
1784246675.977649,0.007202419,-0.106598079,-0.995558739,0.000681792,0.000458220,-0.000236656,1.026524663,0.075187787,9.743993759
1784246675.979651,0.007202419,-0.106598079,-0.995558739,0.000474979,0.000838206,-0.000363564,1.034686923,0.083055392,9.757052422
1784246675.981670,0.007202534,-0.106597789,-0.995558679,0.000413391,0.001058183,-0.000149309,1.042841911,0.089242436,9.754411697
1784246675.983644,0.007202534,-0.106597789,-0.995558679,0.000222595,0.000971671,-0.000590543,1.027598500,0.050326370,9.709762573
1784246675.985639,0.007201704,-0.106596984,-0.995558798,-0.000513835,0.000667971,-0.001708547,1.049084306,0.048020091,9.743392944
1784246675.987639,0.007201704,-0.106596984,-0.995558798,-0.001055863,-0.000022407,-0.002327054,1.053225160,0.094066389,9.750416756
1784246675.989655,0.007201704,-0.106596984,-0.995558798,-0.001123698,-0.000244754,-0.002143734,1.022241712,0.091851629,9.739612579
1784246675.991652,0.007202133,-0.106596418,-0.995558798,-0.001221874,0.000185334,-0.001609826,1.032909989,0.085245058,9.767376900
1784246675.993646,0.007202133,-0.106596418,-0.995558798,-0.001185288,0.000479041,-0.001148610,1.038481116,0.061622344,9.739883423
1784246675.995646,0.007201559,-0.106596194,-0.995558858,-0.001035523,0.000350355,-0.000922643,1.021661162,0.043903895,9.741547585
1784246675.997646,0.007201559,-0.106596194,-0.995558858,-0.001308425,0.000009735,-0.000922477,1.032372594,0.039260868,9.745113373
1784246675.999652,0.007201559,-0.106596194,-0.995558858,-0.001453232,-0.000292097,-0.001066984,1.011533618,0.060956903,9.755992889
1784246676.001652,0.007200796,-0.106595337,-0.995558918,-0.001286494,-0.000337246,-0.000791762,1.017910004,0.069324084,9.765019417
1784246676.003654,0.007200796,-0.106595337,-0.995558918,-0.001416168,-0.000169880,-0.000518342,1.026977062,0.075210653,9.739958763
1784246676.005654,0.007200758,-0.106594428,-0.995558918,-0.001891424,-0.000221738,-0.000663715,1.043128252,0.074987791,9.742215157
1784246676.007663,0.007200758,-0.106594428,-0.995558918,-0.002360451,0.000083903,-0.000785952,1.036969781,0.086578533,9.761561394
1784246676.009661,0.007200758,-0.106594428,-0.995558918,-0.002372090,0.000717315,-0.000926343,1.052910924,0.067271404,9.738589287
1784246676.011655,0.007200758,-0.106594428,-0.995558918,-0.002128216,0.001086584,-0.001118988,1.052910924,0.067271404,9.738589287
1784246676.013663,0.007201175,-0.106595092,-0.995558918,-0.001701848,0.001114163,-0.000484050,1.028089881,0.056331351,9.746563911
1784246676.015714,0.007201175,-0.106595092,-0.995558918,-0.001142533,0.000892823,0.000753774,1.028089881,0.056331351,9.746563911
1784246676.017674,0.007200595,-0.106594361,-0.995558918,-0.000754733,0.000360228,0.000606410,1.053716660,0.059241116,9.732261658
1784246676.019677,0.007200147,-0.106595643,-0.995558977,-0.000394490,0.000370259,0.000032052,1.027722359,0.061436366,9.722386360
1784246676.021676,0.007200147,-0.106595643,-0.995558977,0.000020481,0.001183672,-0.000020593,1.030426741,0.062713966,9.726881027
1784246676.023669,0.007199812,-0.106594980,-0.995558977,0.000265167,0.001453203,-0.000114991,1.021614194,0.077071488,9.739966393
1784246676.025699,0.007199812,-0.106594980,-0.995558977,0.000454350,0.000931128,-0.000458521,1.039612770,0.080482446,9.731935501
1784246676.027679,0.007199812,-0.106594980,-0.995558977,0.000426899,0.000301038,-0.000782640,1.046803117,0.044913106,9.743370056
1784246676.029678,0.007198549,-0.106595017,-0.995558977,0.000099980,0.000056454,-0.000223771,1.048346162,0.061851609,9.752896309
1784246676.031684,0.007198549,-0.106595017,-0.995558977,0.000386708,-0.000038383,0.000347124,1.042322755,0.047454860,9.772075653
1784246676.033685,0.007197219,-0.106594697,-0.995558918,0.000774193,-0.000377503,0.000454913,1.028486848,0.051458430,9.738014221
1784246676.035684,0.007197219,-0.106594697,-0.995558918,0.000660720,-0.000475181,0.000353122,1.026764750,0.056513932,9.723251343
1784246676.037683,0.007197219,-0.106594697,-0.995558918,0.000639335,0.000013523,-0.000133007,1.040599704,0.051693924,9.746097565
1784246676.039685,0.007196489,-0.106594510,-0.995558977,0.000782896,0.000061171,-0.000380301,1.030570626,0.076006524,9.747590065
1784246676.041690,0.007196489,-0.106594510,-0.995558977,0.000485724,-0.000172540,-0.000111291,1.013651013,0.086175531,9.734187126
1784246676.043685,0.007197152,-0.106593132,-0.995559037,-0.000050687,0.000094738,-0.000256375,1.041663289,0.065556511,9.747981071
1784246676.045689,0.007197152,-0.106593132,-0.995559037,-0.000079371,0.000304317,-0.000487771,1.053661823,0.053945072,9.721017838
1784246676.047729,0.007197152,-0.106593132,-0.995559037,-0.000179995,-0.000156113,-0.000334951,1.045945764,0.047672782,9.734869003
1784246676.049693,0.007195551,-0.106594138,-0.995559096,-0.000671183,-0.000614791,0.000063855,1.026797771,0.096391402,9.723057747
1784246676.051695,0.007195551,-0.106594138,-0.995559096,-0.000879044,-0.000481907,0.000248911,1.028317332,0.073932193,9.728295326
1784246676.053691,0.007195431,-0.106593765,-0.995559037,-0.000429992,-0.000171712,-0.000245949,1.049738646,0.066253558,9.761444092
1784246676.055693,0.007195431,-0.106593765,-0.995559037,0.000384347,-0.000005875,-0.000461595,1.053273082,0.059288200,9.726432800
1784246676.057699,0.007195431,-0.106593765,-0.995559037,0.001122432,0.000253936,-0.000058080,1.042215705,0.036885042,9.746452332
1784246676.059696,0.007193524,-0.106593594,-0.995558977,0.001460097,0.000389926,0.000469935,1.032750249,0.070205159,9.740381241
1784246676.061707,0.007193524,-0.106593594,-0.995558977,0.001361795,0.000420709,0.000853661,1.031050563,0.076652236,9.718900681
1784246676.063704,0.007193117,-0.106593385,-0.995558977,0.000897855,0.000846225,0.000665476,1.075019002,0.076460458,9.729701996
1784246676.065702,0.007193117,-0.106593385,-0.995558977,0.000357109,0.000763409,0.000363409,1.030424833,0.063508138,9.741231918
1784246676.067699,0.007193117,-0.106593385,-0.995558977,0.000117402,0.000014680,0.000591062,1.014136791,0.054546025,9.770749092
1784246676.069704,0.007192398,-0.106590234,-0.995559096,0.000302976,-0.000573188,0.001172431,1.039415479,0.065956913,9.758742332
1784246676.071715,0.007192398,-0.106590234,-0.995559096,0.000695391,-0.000678683,0.001345435,1.059376359,0.083635122,9.757080078
1784246676.073712,0.007192518,-0.106591910,-0.995558977,0.000787115,-0.000461359,0.000804879,1.042076588,0.062434111,9.745271683
1784246676.075711,0.007192518,-0.106591910,-0.995558977,0.000398900,-0.000673462,-0.000024940,1.048686624,0.052480005,9.747007370
1784246676.077714,0.007192518,-0.106591910,-0.995558977,0.000135080,-0.000755852,-0.000683178,1.054100871,0.092263050,9.750405312
1784246676.079715,0.007194231,-0.106592171,-0.995559096,0.000303108,-0.000805743,-0.000512203,1.051696897,0.078462236,9.742244720
1784246676.081722,0.007194231,-0.106592171,-0.995559096,0.000527990,-0.001331052,-0.000083331,1.045510173,0.049403612,9.744294167
1784246676.083715,0.007192648,-0.106591620,-0.995559037,0.000354849,-0.001168354,-0.000057227,1.035141230,0.044287488,9.726319313
1784246676.085723,0.007192648,-0.106591620,-0.995559037,-0.000038466,-0.000704190,-0.000163073,1.029911995,0.058144711,9.740301132
1784246676.087723,0.007192648,-0.106591620,-0.995559037,0.000160681,-0.000552607,-0.000023826,1.028100729,0.056417197,9.734458923
1784246676.089731,0.007192357,-0.106591068,-0.995559096,0.000595542,-0.000268966,0.000674749,1.032446504,0.045923050,9.753226280
1784246676.091744,0.007192357,-0.106591068,-0.995559096,0.000621074,-0.000309304,0.000874934,1.038876414,0.057143345,9.738957405
1784246676.093735,0.007192112,-0.106591284,-0.995559096,0.000259774,-0.000527714,0.000224830,1.034851909,0.059329953,9.753762245
1784246676.095727,0.007192112,-0.106591284,-0.995559096,-0.000272952,-0.000522146,-0.000212171,1.018872261,0.072254717,9.729173660
1784246676.097729,0.007192112,-0.106591284,-0.995559096,-0.000375602,-0.000863484,-0.000477836,1.061055064,0.073779218,9.753880501
1784246676.099730,0.007192808,-0.106590457,-0.995559096,-0.000288102,-0.001079999,-0.000327950,1.099430084,0.091358423,9.732957840
1784246676.101733,0.007192808,-0.106590457,-0.995559096,-0.000563168,-0.000749535,0.000018096,1.081377625,0.082254343,9.722571373
1784246676.103736,0.007193773,-0.106593311,-0.995559096,-0.000455312,-0.000492350,-0.000018061,1.064038396,0.060741749,9.754697800
1784246676.105731,0.007193773,-0.106593311,-0.995559096,-0.000032560,-0.000254487,-0.000079676,1.049985051,0.047223952,9.727698326
1784246676.107737,0.007193773,-0.106593311,-0.995559096,-0.000359491,-0.000254796,-0.000054331,1.053567529,0.046310656,9.723659515
1784246676.109737,0.007191974,-0.106594525,-0.995559096,-0.000820607,-0.000845484,-0.000220029,1.038925886,0.059154585,9.708035469
1784246676.111806,0.007191974,-0.106594525,-0.995559096,-0.000073826,-0.001415233,-0.000050966,1.035902739,0.069850504,9.721552849
1784246676.113778,0.007191705,-0.106594130,-0.995559096,0.000922416,-0.001712049,0.000542919,1.059569478,0.061752386,9.746629715
1784246676.115748,0.007191705,-0.106594130,-0.995559096,0.000927356,-0.001756962,0.000722642,1.071040154,0.080629706,9.717619896
1784246676.117766,0.007191705,-0.106594130,-0.995559096,0.000572100,-0.001638829,0.000366439,1.051470160,0.058840979,9.729566574
1784246676.119765,0.007190666,-0.106595226,-0.995559096,0.000477792,-0.001480002,-0.000307575,1.033810973,0.083235405,9.733292580
1784246676.121758,0.007190666,-0.106595226,-0.995559096,0.000716479,-0.001262495,-0.000328185,1.045251489,0.065904424,9.755608559
1784246676.123750,0.007189642,-0.106595114,-0.995559096,0.000636054,-0.001086845,0.000234151,1.058285236,0.066716284,9.743969917
1784246676.125757,0.007189642,-0.106595114,-0.995559096,-0.000129249,-0.001252934,-0.000062976,1.052161336,0.042207226,9.736185074
1784246676.127754,0.007189642,-0.106595114,-0.995559096,-0.000088086,-0.001322624,-0.000891953,1.042311549,0.045745701,9.760408401
1784246676.129763,0.007188710,-0.106595621,-0.995559096,0.000797192,-0.000720849,-0.000804891,1.034629941,0.077336825,9.742220879
1784246676.131771,0.007188710,-0.106595621,-0.995559096,0.000954785,-0.000065092,-0.000109218,1.048573494,0.080262527,9.746736526
1784246676.133764,0.007189016,-0.106595889,-0.995559096,0.000940589,0.000110238,0.000034648,1.050387263,0.044419151,9.743371010
1784246676.135761,0.007189016,-0.106595889,-0.995559096,0.000996352,-0.000461176,-0.000441996,1.031938553,0.040597785,9.746915817
1784246676.137783,0.007189016,-0.106595889,-0.995559096,0.000998714,-0.001004908,-0.000483117,1.042880535,0.090764396,9.729314804
1784246676.139770,0.007190029,-0.106595770,-0.995559096,0.001364942,-0.001029946,-0.000023027,1.046121836,0.099622943,9.737892151
1784246676.141773,0.007190029,-0.106595770,-0.995559096,0.001633795,-0.000885441,0.000186691,1.074621558,0.081733629,9.744978905
1784246676.143781,0.007190688,-0.106597096,-0.995559037,0.001545970,-0.000272803,0.000287689,1.042881131,0.091174178,9.734697342
1784246676.145778,0.007190688,-0.106597096,-0.995559037,0.001696757,-0.000096925,0.000053218,1.024396062,0.085039876,9.748538971
1784246676.147781,0.007190688,-0.106597096,-0.995559037,0.002037847,-0.000418506,-0.000571024,1.026862979,0.065800294,9.740346909
1784246676.149827,0.007190960,-0.106595956,-0.995559037,0.002035771,-0.000328521,-0.000627230,1.062078953,0.083276652,9.739595413
1784246676.151792,0.007190960,-0.106595956,-0.995559037,0.001850515,-0.000373521,0.000071041,1.074871778,0.063545898,9.718858719
1784246676.153785,0.007189794,-0.106597647,-0.995558977,0.001697217,-0.000336764,0.001013326,1.050985098,0.056127168,9.734030724
1784246676.155787,0.007189794,-0.106597647,-0.995558977,0.002027067,0.000404776,0.001776661,1.050936460,0.051285435,9.721895218
1784246676.157781,0.007189794,-0.106597647,-0.995558977,0.002305058,0.001001006,0.001935976,1.029272437,0.041649029,9.729883194
1784246676.159814,0.007187958,-0.106596991,-0.995559096,0.001615038,0.000675440,0.001324310,1.020601392,0.066446379,9.723756790
1784246676.161843,0.007187958,-0.106596991,-0.995559096,0.000544371,-0.000309913,0.000602870,1.047884464,0.097318806,9.743707657
1784246676.163805,0.007189493,-0.106597386,-0.995559037,0.000195855,-0.001161147,0.000528546,1.040554643,0.084874250,9.742725372
1784246676.165796,0.007189493,-0.106597386,-0.995559037,0.000490627,-0.001246095,0.000297737,1.080647230,0.097362965,9.741497040
1784246676.167795,0.007189493,-0.106597386,-0.995559037,0.000581283,-0.001160323,-0.000248867,1.050066948,0.092349775,9.745471954
1784246676.169805,0.007190785,-0.106597848,-0.995559096,0.000138029,-0.001415226,-0.000830159,1.041425705,0.081412613,9.723873138
1784246676.171795,0.007190785,-0.106597848,-0.995559096,-0.000076770,-0.001620528,-0.001181353,1.049109936,0.048627034,9.720979691
1784246676.173803,0.007189433,-0.106598467,-0.995559096,0.000438542,-0.001385002,-0.000838272,1.058300972,0.066840298,9.726486206
1784246676.175802,0.007189433,-0.106598467,-0.995559096,0.000490051,-0.001048493,-0.000497678,1.027910352,0.041945715,9.753644943
1784246676.177806,0.007189433,-0.106598467,-0.995559096,0.000273080,-0.001014160,-0.000648278,1.019544601,0.092251435,9.751270294
1784246676.179803,0.007190789,-0.106596917,-0.995559037,0.000280852,-0.000702949,-0.000756130,1.039011240,0.069959328,9.763698578
1784246676.181824,0.007190789,-0.106596917,-0.995559037,-0.000234820,-0.000130511,-0.000526720,1.052837133,0.061419286,9.742585182
1784246676.183819,0.007190487,-0.106597878,-0.995559096,-0.000885312,0.000000152,-0.000145008,1.068685651,0.111697167,9.763545990
1784246676.185817,0.007190487,-0.106597878,-0.995559096,-0.001268857,0.000076697,0.000078949,1.063017964,0.087239571,9.747693062
1784246676.187812,0.007190487,-0.106597878,-0.995559096,-0.001004304,0.000253142,0.000153378,1.053865075,0.070948519,9.723817825
1784246676.189820,0.007190517,-0.106597938,-0.995559096,-0.000418556,-0.000089652,0.000061182,1.067755461,0.071427740,9.757459641
1784246676.191825,0.007190517,-0.106597938,-0.995559096,-0.000316578,-0.000334101,-0.000295297,1.058901429,0.081407405,9.756169319
1784246676.193819,0.007190986,-0.106598854,-0.995558977,-0.000163865,0.000167624,-0.000009522,1.059388399,0.120103762,9.732208252
1784246676.195817,0.007190986,-0.106598854,-0.995558977,0.000476061,0.000923628,0.000165574,1.055081487,0.063020229,9.765461922
1784246676.197818,0.007190986,-0.106598854,-0.995558977,0.000791738,0.000848455,-0.000107737,1.036224842,0.059525747,9.723728180
1784246676.199818,0.007190908,-0.106598899,-0.995558977,0.000578355,0.000039296,0.000211754,1.046629071,0.066541821,9.726472855
1784246676.201829,0.007190908,-0.106598899,-0.995558977,0.000734133,-0.000176093,0.000537338,1.058424592,0.076326974,9.715337753
1784246676.203823,0.007190804,-0.106600523,-0.995559037,0.001390363,-0.000320413,0.000703248,1.039630651,0.080622345,9.712209702
1784246676.205824,0.007190804,-0.106600523,-0.995559037,0.001343817,-0.000455670,0.000787006,1.030832171,0.096307866,9.727545738
1784246676.207832,0.007190804,-0.106600523,-0.995559037,0.000612441,0.000102839,0.000597850,1.024343848,0.080169544,9.740436554
1784246676.209828,0.007191456,-0.106599785,-0.995558977,0.000007734,0.000599039,0.000695109,1.032428622,0.080939718,9.743587494
1784246676.211864,0.007191456,-0.106599785,-0.995558977,-0.000253078,0.000850804,0.000729532,1.058529735,0.087694146,9.754864693
1784246676.213836,0.007191925,-0.106600091,-0.995558977,-0.000046609,0.000904164,0.000718410,1.076877356,0.083423607,9.755302429
1784246676.215835,0.007191925,-0.106600091,-0.995558977,0.000464693,0.000937374,0.000999679,1.048735023,0.055294957,9.729093552
1784246676.217831,0.007191925,-0.106600091,-0.995558977,0.000947339,0.001034700,0.000826075,1.059330463,0.079219081,9.748085976
1784246676.219833,0.007192261,-0.106601439,-0.995558918,0.000969572,0.000749057,0.000715148,1.040021658,0.078135133,9.746267319
1784246676.221841,0.007192261,-0.106601439,-0.995558918,0.000909484,0.000304150,0.001228608,1.038675070,0.078959271,9.758824348
1784246676.223833,0.007192823,-0.106601663,-0.995558858,0.000995950,0.000233059,0.001207136,1.048635125,0.084395923,9.732418060
1784246676.225836,0.007192823,-0.106601663,-0.995558858,0.000611661,0.000460618,0.000452214,1.017665505,0.049156301,9.766235352
1784246676.227833,0.007192823,-0.106601663,-0.995558858,-0.000046895,0.000755696,0.000028744,1.030545473,0.037002724,9.750926018
1784246676.229840,0.007190904,-0.106600568,-0.995558858,-0.000238658,0.000946785,0.000171869,1.032493711,0.085911803,9.737342834
1784246676.231836,0.007190904,-0.106600568,-0.995558858,-0.000394876,0.001230163,0.000276912,1.069715858,0.082845427,9.723461151
1784246676.233841,0.007191195,-0.106601663,-0.995558858,-0.000997316,0.001318089,-0.000009038,1.073834419,0.050700076,9.699944496
1784246676.235838,0.007191195,-0.106601663,-0.995558858,-0.001477762,0.000878723,-0.000238273,1.052127719,0.038699847,9.725401878
1784246676.237841,0.007191195,-0.106601663,-0.995558858,-0.001323231,0.000478889,-0.000025822,1.045702457,0.065511130,9.747087479
1784246676.239841,0.007190744,-0.106601708,-0.995558858,-0.000790090,0.000632726,0.000186249,1.031014085,0.075149380,9.741307259
1784246676.241843,0.007190744,-0.106601708,-0.995558858,-0.000177686,0.001285455,-0.000161341,1.029861093,0.090063803,9.725262642
1784246676.243845,0.007191601,-0.106601439,-0.995558858,-0.000125573,0.001984742,-0.000991595,1.037890673,0.086751461,9.735560417
1784246676.245844,0.007191601,-0.106601439,-0.995558858,-0.000562763,0.002118760,-0.001184080,1.027606010,0.088786818,9.719872475
1784246676.247848,0.007191601,-0.106601439,-0.995558858,-0.000803445,0.001255838,-0.000390838,1.044950962,0.076400891,9.729225159
1784246676.249846,0.007192234,-0.106601469,-0.995558858,-0.000926013,0.000482868,0.000150206,1.025567293,0.069051825,9.726469040
1784246676.251848,0.007192234,-0.106601469,-0.995558858,-0.000704206,0.000223506,0.000366020,1.026226044,0.052567154,9.775232315
1784246676.253859,0.007191668,-0.106600709,-0.995558798,0.000329085,0.000350146,0.000363915,1.062824368,0.071122520,9.746244431
1784246676.255849,0.007191668,-0.106600709,-0.995558798,0.001251537,0.001070987,0.000293946,1.056308031,0.051521320,9.742077827
1784246676.257851,0.007191668,-0.106600709,-0.995558798,0.001108945,0.001549791,0.000421941,1.039819360,0.060327988,9.730460167
1784246676.259850,0.007190946,-0.106600083,-0.995558858,0.000293453,0.001347076,0.000709549,1.049865007,0.073329106,9.711276054
1784246676.261855,0.007190946,-0.106600083,-0.995558858,-0.000358869,0.000822266,0.000880772,1.053419948,0.073009655,9.749833107
1784246676.263852,0.007190655,-0.106601171,-0.995558858,-0.000357536,0.000853882,0.000178186,1.062190413,0.054671351,9.729549408
1784246676.265860,0.007190655,-0.106601171,-0.995558858,-0.000205819,0.001345923,-0.000764031,1.057193875,0.049797475,9.730858803
1784246676.267868,0.007190655,-0.106601171,-0.995558858,-0.000152807,0.001539123,-0.000819625,1.068618774,0.067095608,9.735014915
1784246676.269992,0.007190621,-0.106603049,-0.995558798,0.000154721,0.001688657,0.000169305,1.043203831,0.080852620,9.736424446
1784246676.271882,0.007190621,-0.106603049,-0.995558798,0.000231257,0.001581863,0.001104915,1.035160542,0.085676990,9.765588760
1784246676.273878,0.007191292,-0.106602542,-0.995558798,-0.000183628,0.001245128,0.000809509,1.030539751,0.073331490,9.745778084
1784246676.275910,0.007191292,-0.106602542,-0.995558798,-0.000179187,0.000767284,-0.000182727,1.031878352,0.072040297,9.735908508
1784246676.277874,0.007191292,-0.106602542,-0.995558798,-0.000124769,0.000183309,-0.000690172,1.041941285,0.052045163,9.757309914
1784246676.279871,0.007190159,-0.106602348,-0.995558858,-0.000461915,0.000171839,-0.000390215,1.040776014,0.068890974,9.784764290
1784246676.281891,0.007190159,-0.106602348,-0.995558858,-0.000413772,0.000679305,0.000319039,1.037924528,0.052672047,9.739377022
1784246676.283889,0.007189321,-0.106602415,-0.995558918,0.000125421,0.000775667,0.000492018,1.025811195,0.054056689,9.755515099
1784246676.285879,0.007189321,-0.106602415,-0.995558918,0.000478056,0.000293526,-0.000233546,1.035149097,0.084371261,9.760200500
1784246676.287876,0.007189321,-0.106602415,-0.995558918,0.000208654,-0.000232137,-0.000745867,1.045774937,0.109347112,9.757231712
1784246676.289879,0.007191116,-0.106602892,-0.995558918,-0.000442447,-0.000757487,-0.000579050,1.032756090,0.107436210,9.734344482
1784246676.291885,0.007191116,-0.106602892,-0.995558918,-0.000932744,-0.000977148,-0.000601057,1.026460290,0.069005355,9.731401443
1784246676.293885,0.007191102,-0.106602393,-0.995558918,-0.000399744,-0.000785787,-0.000776183,1.034008980,0.062204104,9.729123116
1784246676.295911,0.007191102,-0.106602393,-0.995558918,0.000641366,-0.000420871,-0.000666793,1.058200479,0.059968259,9.747961044
1784246676.297909,0.007191102,-0.106602393,-0.995558918,0.000787771,0.000085887,-0.000640889,1.059997082,0.059554540,9.739891052
1784246676.299913,0.007191326,-0.106603689,-0.995558858,0.000692761,0.000152571,-0.000840646,1.043799639,0.056981526,9.752860069
1784246676.301898,0.007191326,-0.106603689,-0.995558858,0.000656695,-0.000104419,-0.001114179,1.019705772,0.067687295,9.739904404
1784246676.303890,0.007190640,-0.106602132,-0.995558858,-0.000017034,0.000056557,-0.001186171,1.014380455,0.071870610,9.728268623
1784246676.305888,0.007190640,-0.106602132,-0.995558858,-0.000652498,0.000262838,-0.000823159,1.042369246,0.085817121,9.732869148
1784246676.307902,0.007190640,-0.106602132,-0.995558858,-0.000408574,0.000427473,-0.001207371,1.046934366,0.092050150,9.730222702
1784246676.309945,0.007191881,-0.106602348,-0.995558739,0.000132312,0.000652594,-0.001666620,1.049972534,0.082688585,9.718061447
1784246676.311932,0.007191881,-0.106602348,-0.995558739,0.000251814,0.000636019,-0.001424962,1.034434795,0.059990346,9.724625587
1784246676.313953,0.007191478,-0.106602058,-0.995558739,0.000121334,0.000502287,-0.001574873,1.033494115,0.057634849,9.742544174
1784246676.315930,0.007191478,-0.106602058,-0.995558739,0.000440936,0.000292399,-0.001684049,1.000555038,0.043633942,9.754526138
1784246676.317928,0.007191478,-0.106602058,-0.995558739,0.000710462,0.000227992,-0.001582514,1.018824935,0.069045864,9.739462852
1784246676.319913,0.007191057,-0.106600620,-0.995558858,-0.000083569,0.000551956,-0.001544157,1.038104057,0.067867756,9.744405746
1784246676.321912,0.007191057,-0.106600620,-0.995558858,-0.001133872,0.000595943,-0.001662449,1.050115228,0.056761503,9.709376335
1784246676.323940,0.007190460,-0.106602207,-0.995558858,-0.000999027,0.000293080,-0.001550489,1.045905590,0.044924602,9.743370056
1784246676.325923,0.007190460,-0.106602207,-0.995558858,0.000077197,0.000363792,-0.000797833,1.021689773,0.046563044,9.745598793
1784246676.327922,0.007190460,-0.106602207,-0.995558858,0.000322320,0.000832552,0.000167129,1.038370728,0.053457297,9.754177094
1784246676.329926,0.007188755,-0.106601164,-0.995558798,-0.000383743,0.001326796,0.000995902,1.045395732,0.077580027,9.751648903
1784246676.331923,0.007188755,-0.106601164,-0.995558798,-0.001241629,0.001602992,0.001201501,1.030826449,0.059483450,9.739413261
1784246676.333923,0.007187526,-0.106600396,-0.995558798,-0.001272025,0.001390003,0.000339014,1.025367022,0.054504044,9.756413460
1784246676.335926,0.007187526,-0.106600396,-0.995558798,-0.000717446,0.000908956,-0.000994219,1.041149855,0.060593352,9.753777504
1784246676.337929,0.007187526,-0.106600396,-0.995558798,-0.001053744,0.000778949,-0.001387755,1.030334353,0.055498879,9.733559608
1784246676.339949,0.007186584,-0.106599644,-0.995558858,-0.001495578,0.001181597,-0.000245891,1.034069061,0.068351559,9.746646881
1784246676.341938,0.007186584,-0.106599644,-0.995558858,-0.001564948,0.001540654,0.001164371,1.056877613,0.063006759,9.764119148
1784246676.343934,0.007185272,-0.106600203,-0.995558858,-0.001871972,0.001411330,0.001810058,1.053354859,0.029637523,9.737450600
1784246676.345933,0.007185272,-0.106600203,-0.995558858,-0.002022317,0.001213868,0.001377385,1.025020480,0.063014694,9.757364273
1784246676.348037,0.007185272,-0.106600203,-0.995558858,-0.001844240,0.000870144,0.000862961,1.039719105,0.053052489,9.745657921
1784246676.349991,0.007183718,-0.106599413,-0.995558858,-0.001500139,0.000383333,0.000505284,1.043612957,0.040918522,9.743789673
1784246676.351944,0.007183718,-0.106599413,-0.995558858,-0.001066764,0.000101602,-0.000223931,1.023609281,0.053602867,9.697225571
1784246676.353965,0.007183644,-0.106598020,-0.995558858,-0.000496930,0.000158741,0.000040989,1.026615977,0.080366552,9.708608627
1784246676.355950,0.007183644,-0.106598020,-0.995558858,-0.000368615,0.000559791,0.000831237,1.019395709,0.080134213,9.754329681
1784246676.357939,0.007183644,-0.106598020,-0.995558858,-0.000692260,0.000608114,0.000809194,1.007985592,0.062547110,9.727754593
1784246676.359940,0.007183726,-0.106597103,-0.995558918,-0.001019964,0.000412864,0.000376513,1.040035367,0.041869979,9.742447853
1784246676.361956,0.007183726,-0.106597103,-0.995558918,-0.001456072,0.000434083,0.000170218,1.041300297,0.035943389,9.754516602
1784246676.364039,0.007181997,-0.106596485,-0.995558918,-0.001542166,0.000228287,0.000470365,1.012712717,0.008252561,9.730549812
1784246676.366001,0.007181997,-0.106596485,-0.995558918,-0.000849885,-0.000325867,0.000706018,1.035369635,0.027548198,9.748627663
1784246676.367961,0.007181997,-0.106596485,-0.995558918,-0.000400408,-0.000905532,0.000317015,1.036465168,0.042068593,9.720925331
1784246676.369954,0.007181111,-0.106596783,-0.995558918,-0.000322570,-0.001001135,0.000035054,1.017982244,0.036356810,9.738355637
1784246676.371954,0.007181111,-0.106596783,-0.995558918,0.000154786,-0.000555443,0.000176173,1.041569233,0.058328718,9.756453514
1784246676.373955,0.007181085,-0.106596567,-0.995558918,0.000358487,-0.000210212,0.000116395,1.056596756,0.038499266,9.745580673
1784246676.375955,0.007181085,-0.106596567,-0.995558918,-0.000130750,-0.000314259,0.000466994,1.047840357,0.056542240,9.744341850
1784246676.377960,0.007181085,-0.106596567,-0.995558918,-0.000959429,-0.000495615,0.001154306,1.009297132,0.059826184,9.729980469
1784246676.379967,0.007180526,-0.106595874,-0.995558918,-0.001251800,-0.000288438,0.001549080,1.001448154,0.078747220,9.729645729
1784246676.381969,0.007180526,-0.106595874,-0.995558918,-0.001174178,0.000037796,0.002090833,1.027882934,0.075672559,9.736376762
1784246676.383962,0.007180690,-0.106594786,-0.995558977,-0.001157597,-0.000258888,0.001634018,1.018813252,0.066926882,9.722413063
1784246676.385958,0.007180690,-0.106594786,-0.995558977,-0.000746597,-0.000616340,0.000163816,1.036687016,0.099241652,9.745502472
1784246676.387963,0.007180690,-0.106594786,-0.995558977,-0.000156818,-0.000649535,-0.000309774,1.018363833,0.068953045,9.753361702
1784246676.389972,0.007180224,-0.106594652,-0.995558977,0.000432399,-0.000805969,0.000084862,1.013115048,0.080224238,9.752980232
1784246676.391979,0.007180224,-0.106594652,-0.995558977,0.001149348,-0.001102028,0.000209326,1.039394617,0.062954731,9.739892006
1784246676.393966,0.007180302,-0.106594406,-0.995558977,0.001206475,-0.001020163,-0.000439209,1.047957540,0.065978028,9.740368843
1784246676.395971,0.007180302,-0.106594406,-0.995558977,0.000492141,-0.000733727,-0.001344841,1.045466065,0.046623621,9.757279396
1784246676.398053,0.007180302,-0.106594406,-0.995558977,0.000203470,-0.000728540,-0.001517950,1.043506861,0.031975199,9.741489410
1784246676.399975,0.007177769,-0.106593758,-0.995559037,0.000260504,-0.000877503,-0.000687739,1.049974084,0.047138102,9.739800453
1784246676.401974,0.007177769,-0.106593758,-0.995559037,0.000245561,-0.001131176,0.000204991,1.018491864,0.078068070,9.731451035
1784246676.403974,0.007177951,-0.106591456,-0.995559096,0.000095328,-0.000950945,0.000279491,1.045990229,0.052076086,9.745658875
1784246676.405975,0.007177951,-0.106591456,-0.995559096,-0.000318494,-0.000616272,-0.000008572,1.034814239,0.054170638,9.723243713
1784246676.407976,0.007177951,-0.106591456,-0.995559096,-0.000390711,-0.000897246,-0.000166827,1.026434064,0.066771917,9.730488777
1784246676.409985,0.007178011,-0.106590956,-0.995559096,0.000081671,-0.000965814,0.000080514,1.030228376,0.046962183,9.737091064
1784246676.411995,0.007178011,-0.106590956,-0.995559096,0.000651175,-0.000279121,0.000084644,1.046266079,0.074518651,9.739524841
1784246676.413991,0.007179464,-0.106592275,-0.995559096,0.000721423,0.000011952,-0.000419511,1.046444297,0.090108261,9.752178192
1784246676.415992,0.007179464,-0.106592275,-0.995559096,0.000385394,-0.000456132,-0.000737032,1.031253695,0.057282414,9.733123779
1784246676.417990,0.007179464,-0.106592275,-0.995559096,-0.000060224,-0.000869946,-0.000481668,1.047306895,0.049396507,9.742054939
1784246676.419987,0.007178369,-0.106592596,-0.995559096,-0.000620665,-0.001205857,-0.000133739,1.064620495,0.070298985,9.732789993
1784246676.421995,0.007178369,-0.106592596,-0.995559096,-0.000717040,-0.001127285,-0.000311223,1.052745223,0.090583853,9.736943245
1784246676.423996,0.007180083,-0.106592529,-0.995559275,-0.000620031,-0.000570308,-0.000040328,1.014690161,0.061850742,9.750621796
