time_sec,roll_rad,pitch_rad,yaw_rad,gyro_x,gyro_y,gyro_z,acc_x,acc_y,acc_z
1784246780.569007,0.003426426,-0.116719171,0.279151917,0.003693617,-0.004123072,0.000857628,1.114057183,0.075563200,9.722559929
1784246780.570567,0.003429111,-0.116732575,0.279149622,0.003108789,-0.004717142,0.000424653,1.101818681,0.067448445,9.751638412
1784246780.572607,0.003438424,-0.116743602,0.279148072,0.002971781,-0.005206143,-0.000035034,1.080944896,0.084817499,9.740968704
1784246780.574520,0.003450253,-0.116753355,0.279143721,0.003471840,-0.005315527,-0.000584205,1.122645020,0.119210444,9.743919373
1784246780.576481,0.003468943,-0.116757698,0.279150367,0.004274861,-0.004845066,-0.000475057,1.135041952,0.141545489,9.731073380
1784246780.578471,0.003478842,-0.116760433,0.279160649,0.004844652,-0.004022285,0.000599956,1.111285090,0.106477760,9.727687836
1784246780.580461,0.003481023,-0.116766751,0.279167712,0.004480659,-0.003541266,0.001507557,1.129700184,0.108008467,9.731301308
1784246780.582454,0.003483054,-0.116783708,0.279177845,0.003480799,-0.004227433,0.002252050,1.157128334,0.112162821,9.727767944
1784246780.584461,0.003489074,-0.116797373,0.279174626,0.002929484,-0.005228758,0.002069822,1.134010196,0.092367731,9.717756271
1784246780.586461,0.003491329,-0.116802640,0.279173672,0.002484215,-0.005143129,0.001183365,1.134486079,0.097035192,9.753651619
1784246780.588459,0.003497370,-0.116806336,0.279180229,0.002238005,-0.004401606,0.001191364,1.142935395,0.126621127,9.736365318
1784246780.590452,0.003496834,-0.116817541,0.279176027,0.002019108,-0.004219644,0.000978511,1.136109591,0.117446460,9.715675354
1784246780.592492,0.003494207,-0.116830744,0.279169351,0.000859548,-0.004773511,0.000041808,1.159136176,0.128816128,9.713529587
1784246780.594449,0.003495326,-0.116845444,0.279166698,0.000138625,-0.005412875,-0.000551429,1.164973617,0.129989877,9.726992607
1784246780.596477,0.003505734,-0.116860673,0.279169291,0.000552307,-0.005891979,-0.000458676,1.147244453,0.112190709,9.741657257
1784246780.598469,0.003507299,-0.116871417,0.279167712,0.000892582,-0.005971876,-0.000317338,1.154550314,0.121607661,9.727376938
1784246780.600474,0.003511844,-0.116880029,0.279163867,0.001018857,-0.005666128,-0.000645784,1.168269992,0.106151067,9.734015465
1784246780.602475,0.003521058,-0.116887845,0.279158890,0.001259210,-0.005155457,-0.001135939,1.167247415,0.095853090,9.734846115
1784246780.604481,0.003524167,-0.116896965,0.279153556,0.001325656,-0.004817713,-0.001583635,1.175899625,0.105255991,9.720119476
1784246780.606475,0.003528969,-0.116910502,0.279146314,0.001136607,-0.004820324,-0.002037902,1.123196006,0.090122826,9.737905502
1784246780.608452,0.003526790,-0.116915643,0.279145122,0.000675603,-0.004550746,-0.002042899,1.166048050,0.070785135,9.733787537
1784246780.610433,0.003526792,-0.116925046,0.279145509,0.000339095,-0.004303566,-0.001522756,1.168553472,0.091467537,9.719128609
1784246780.612438,0.003525652,-0.116934255,0.279145867,-0.000196831,-0.004229245,-0.001000474,1.167080641,0.117942497,9.716158867
1784246780.614466,0.003519669,-0.116935976,0.279149860,-0.000961956,-0.003650856,-0.000328842,1.165413499,0.091920763,9.724060059
1784246780.616453,0.003526667,-0.116947480,0.279143661,-0.000941100,-0.003376526,-0.000362969,1.185457230,0.117141157,9.732760429
1784246780.618473,0.003522819,-0.116956957,0.279129118,-0.000928714,-0.003708878,-0.001654426,1.170520782,0.107396252,9.743890762
1784246780.620460,0.003516696,-0.116963565,0.279122651,-0.001514878,-0.003800914,-0.002541194,1.168424368,0.080316201,9.712331772
1784246780.622442,0.003517346,-0.116973370,0.279122710,-0.001762077,-0.003749884,-0.002211454,1.152494907,0.100122176,9.728135109
1784246780.624479,0.003519055,-0.116977237,0.279122800,-0.001362388,-0.003523293,-0.001590177,1.180967093,0.082016647,9.765706062
1784246780.626437,0.003519421,-0.116979852,0.279119164,-0.001083621,-0.002888562,-0.001387711,1.183900476,0.100501165,9.744307518
1784246780.628436,0.003516406,-0.116979875,0.279112041,-0.001256391,-0.002167359,-0.001690668,1.199056983,0.091009818,9.728568077
1784246780.630430,0.003510023,-0.116979137,0.279110640,-0.001616546,-0.001532558,-0.001730614,1.212171197,0.098537922,9.717422485
1784246780.632448,0.003515299,-0.116988041,0.279110432,-0.001539762,-0.001382413,-0.001327672,1.193194985,0.088832036,9.730343819
1784246780.634443,0.003509920,-0.116992287,0.279102474,-0.001468365,-0.001612418,-0.001487294,1.200480342,0.060496841,9.732410431
1784246780.636440,0.003501460,-0.117000051,0.279097646,-0.002228621,-0.001697893,-0.001821033,1.191635013,0.071353361,9.733815193
1784246780.638428,0.003492155,-0.117003538,0.279095680,-0.002999867,-0.001706476,-0.001630961,1.209550858,0.068438806,9.733366013
1784246780.640435,0.003484609,-0.117010690,0.279089957,-0.003383430,-0.001966089,-0.001583883,1.220123649,0.052164685,9.734617233
1784246780.642441,0.003477654,-0.117019713,0.279081672,-0.003644119,-0.002188761,-0.001982988,1.202120543,0.048312128,9.741748810
1784246780.644440,0.003467680,-0.117023692,0.279078454,-0.003976801,-0.002134662,-0.002074183,1.217227459,0.072372712,9.733398438
1784246780.646437,0.003456677,-0.117031977,0.279074311,-0.004544585,-0.002021741,-0.001815793,1.190213203,0.063075557,9.703274727
1784246780.648438,0.003442682,-0.117036104,0.279066622,-0.005265100,-0.001952511,-0.001898896,1.173378468,0.081209294,9.703824043
1784246780.650434,0.003429813,-0.117039122,0.279051870,-0.005824603,-0.001915276,-0.002681637,1.169252872,0.076114073,9.734721184
1784246780.652450,0.003420569,-0.117044605,0.279047012,-0.006106658,-0.001944609,-0.003071453,1.168634057,0.061807327,9.731490135
1784246780.654439,0.003412120,-0.117049433,0.279046744,-0.005899734,-0.002084175,-0.002416739,1.166244030,0.050548013,9.743968964
1784246780.656443,0.003408846,-0.117053479,0.279036015,-0.005239888,-0.002026467,-0.002407436,1.173587203,0.062287427,9.718048096
1784246780.658443,0.003402415,-0.117055900,0.279032528,-0.004648401,-0.001822190,-0.002634253,1.206402302,0.029208520,9.711142540
1784246780.660459,0.003392171,-0.117057040,0.279036313,-0.004508084,-0.001568559,-0.001770412,1.210157752,0.005850087,9.712789536
1784246780.662452,0.003383812,-0.117060907,0.279030323,-0.004458348,-0.001256237,-0.001302951,1.215112209,0.007959872,9.722223282
1784246780.664469,0.003377821,-0.117059574,0.279021263,-0.004237397,-0.000863178,-0.001863786,1.202976346,0.008356389,9.751355171
1784246780.666451,0.003365117,-0.117061369,0.279020160,-0.004346545,-0.000396150,-0.001910734,1.210092902,0.038064517,9.719274521
1784246780.668472,0.003346841,-0.117057689,0.279026449,-0.005132134,0.000106706,-0.000807887,1.183709145,0.008816638,9.721302032
1784246780.670516,0.003332307,-0.117055818,0.279025972,-0.005903668,0.000456736,0.000067325,1.205915689,0.025671914,9.705292702
1784246780.672515,0.003323355,-0.117059462,0.279023141,-0.005869361,0.000529622,0.000000821,1.215260267,0.057257243,9.720297813
1784246780.674471,0.003312597,-0.117057934,0.279024720,-0.005573634,0.000561135,0.000060993,1.191715717,0.041292883,9.739451408
1784246780.676477,0.003301585,-0.117059864,0.279024065,-0.005593275,0.000621518,0.000285182,1.205758929,0.050677639,9.717556953
1784246780.678465,0.003287781,-0.117060609,0.279021829,-0.005843804,0.000507497,0.000212571,1.204308987,0.043797400,9.742617607
1784246780.680503,0.003280612,-0.117055647,0.279020667,-0.005698175,0.000655328,0.000089276,1.190931201,0.013115237,9.733889580
1784246780.682474,0.003276577,-0.117049307,0.279016912,-0.004969937,0.001405389,-0.000176494,1.192079425,-0.003054052,9.737373352
1784246780.684468,0.003276577,-0.117049307,0.279016912,-0.004273502,0.002203219,-0.000567011,1.192079425,-0.003054052,9.737373352
1784246780.686475,0.003256402,-0.117044404,0.279007077,-0.004114127,0.002391755,-0.000782031,1.183293819,0.012733211,9.738364220
1784246780.688471,0.003256402,-0.117044404,0.279007077,-0.004345994,0.002136428,-0.000869204,1.183293819,0.012733211,9.738364220
1784246780.690472,0.003246358,-0.117036030,0.279000163,-0.003898457,0.002105770,-0.000930864,1.163659692,-0.015234759,9.737269402
1784246780.692484,0.003229127,-0.117011048,0.279008687,-0.003675583,0.002728203,-0.000268333,1.161116004,-0.002679608,9.740484238
1784246780.694483,0.003214186,-0.117014065,0.279013723,-0.004297525,0.002682464,0.000805996,1.155236840,0.028135685,9.702120781
1784246780.696482,0.003200450,-0.117017478,0.279010624,-0.004923452,0.001575041,0.000932509,1.171445012,-0.002741889,9.730631828
1784246780.698485,0.003195384,-0.117012762,0.279007614,-0.004902826,0.001234897,0.000414268,1.157583952,0.000657913,9.718534470
1784246780.700493,0.003189752,-0.117008008,0.279007792,-0.004230664,0.001591107,0.000185559,1.178571224,-0.009737344,9.693380356
1784246780.702483,0.003181081,-0.117002562,0.279014766,-0.003904824,0.001902050,0.000722994,1.197684765,-0.022352962,9.731875420
1784246780.704487,0.003173137,-0.116999201,0.279021144,-0.003631514,0.002197630,0.001530143,1.188497663,-0.000514249,9.764735222
1784246780.706482,0.003174255,-0.116990626,0.279022843,-0.002814333,0.002624938,0.001687063,1.208599806,-0.010799442,9.725683212
1784246780.708490,0.003177490,-0.116976984,0.279022992,-0.001742529,0.003420056,0.001317431,1.146196127,-0.013107412,9.721574783
1784246780.710495,0.003174562,-0.116967760,0.279027432,-0.001033552,0.004088843,0.001247113,1.140674472,-0.023846719,9.729570389
1784246780.712496,0.003170947,-0.116959430,0.279035002,-0.000920059,0.004216978,0.001752852,1.154464841,0.004516772,9.748594284
1784246780.714486,0.003161142,-0.116950765,0.279030859,-0.001414857,0.004301759,0.001596810,1.166566372,0.001419771,9.721239090
1784246780.716501,0.003150345,-0.116942503,0.279024482,-0.002369997,0.004357358,0.000597618,1.139059186,-0.010248166,9.710376740
1784246780.718501,0.003146681,-0.116937272,0.279023230,-0.002762164,0.004087603,0.000030936,1.160452962,-0.020576406,9.738127708
1784246780.720496,0.003144261,-0.116929285,0.279025674,-0.002216447,0.003969021,0.000125321,1.163808823,-0.039894268,9.739352226
1784246780.722491,0.003142160,-0.116921455,0.279027313,-0.001690827,0.004060139,0.000375790,1.144333005,-0.018485384,9.725125313
1784246780.724495,0.003136874,-0.116915531,0.279034764,-0.001564086,0.003928964,0.000935834,1.137029648,-0.029099945,9.718772888
1784246780.726520,0.003132166,-0.116907477,0.279042482,-0.001599159,0.003850121,0.001776955,1.130810261,-0.022852933,9.733601570
1784246780.728510,0.003120185,-0.116899565,0.279043704,-0.002219486,0.003891308,0.002028271,1.121690512,-0.036856487,9.703017235
1784246780.730507,0.003109719,-0.116886891,0.279042959,-0.002884851,0.004125036,0.001652542,1.170930266,-0.009741363,9.707719803
1784246780.732508,0.003112759,-0.116879418,0.279048681,-0.002321590,0.004264900,0.001560841,1.156928658,-0.015151704,9.737710953
1784246780.734501,0.003111863,-0.116874136,0.279054224,-0.001264979,0.004015621,0.001854145,1.135159612,-0.035345227,9.718282700
1784246780.736509,0.003106510,-0.116861701,0.279049784,-0.001141120,0.004168736,0.001454891,1.107429743,-0.026985882,9.726827621
1784246780.738520,0.003099754,-0.116851687,0.279047817,-0.001697781,0.004559899,0.000731325,1.128679037,-0.013833165,9.729174614
1784246780.740523,0.003095560,-0.116842039,0.279050797,-0.001799423,0.004622712,0.000672807,1.095514894,-0.046629369,9.738347054
1784246780.742518,0.003094250,-0.116832659,0.279054940,-0.001458902,0.004625788,0.000991635,1.152464151,-0.016942920,9.682550430
1784246780.744517,0.003092238,-0.116828494,0.279049546,-0.001158134,0.004361015,0.000644836,1.095385909,-0.021810872,9.713848114
1784246780.746520,0.003091248,-0.116823509,0.279041618,-0.001012706,0.003867918,-0.000421925,1.142578006,-0.014500687,9.735011101
1784246780.748521,0.003090001,-0.116812296,0.279047579,-0.000904147,0.003917895,-0.000420537,1.150052309,-0.027970489,9.725517273
1784246780.750515,0.003091754,-0.116800964,0.279048443,-0.000350457,0.004485840,0.000125744,1.102386832,-0.035062253,9.737531662
1784246780.752524,0.003094822,-0.116797678,0.279048979,0.000301118,0.004359365,0.000123949,1.084840059,-0.001270180,9.742661476
1784246780.754529,0.003097469,-0.116792142,0.279050857,0.000768397,0.003600897,0.000191125,1.120254993,-0.006438908,9.712625504
1784246780.756529,0.003102067,-0.116783082,0.279054791,0.001239126,0.003441610,0.000459081,1.106011033,-0.034024723,9.711089134
1784246780.758522,0.003106688,-0.116777740,0.279058248,0.001583540,0.003486885,0.000763497,1.123583198,-0.026786234,9.732671738
1784246780.760528,0.003102690,-0.116772652,0.279058456,0.001360957,0.003166206,0.000783968,1.136119008,-0.029193375,9.733565331
1784246780.762525,0.003095850,-0.116766579,0.279054701,0.000368504,0.002979981,0.000400686,1.114329219,-0.011149021,9.755628586
1784246780.764564,0.003099491,-0.116760075,0.279054672,0.000224852,0.002892623,0.000032399,1.126295090,-0.027474992,9.698596954
1784246780.766546,0.003113664,-0.116751589,0.279052645,0.001550547,0.002993886,-0.000286857,1.116292953,-0.036485799,9.723636627
1784246780.768581,0.003121441,-0.116743565,0.279052496,0.002591196,0.003300948,-0.000536065,1.089064717,-0.022852069,9.745666504
1784246780.770543,0.003127581,-0.116741225,0.279055923,0.003071454,0.003003113,-0.000305766,1.065100789,-0.000178525,9.750720024
1784246780.772571,0.003134060,-0.116743229,0.279054433,0.003323687,0.002103669,-0.000214160,1.058461905,0.005899732,9.726990700
1784246780.774544,0.003140058,-0.116735324,0.279051691,0.003257229,0.001633561,-0.000543932,1.084299088,-0.010909718,9.713009834
1784246780.776557,0.003143939,-0.116728581,0.279050291,0.003034411,0.001886837,-0.000763073,1.099567533,-0.007763159,9.747117996
1784246780.778547,0.003151635,-0.116721638,0.279050648,0.002982622,0.002302927,-0.000722680,1.076226234,-0.008344221,9.744851112
1784246780.780552,0.003158533,-0.116712376,0.279053748,0.003323908,0.002600298,-0.000421906,1.078395844,-0.015035150,9.736740112
1784246780.782558,0.003165342,-0.116709694,0.279056638,0.003532819,0.002528265,-0.000023949,1.071546316,0.011165770,9.718967438
1784246780.784560,0.003171249,-0.116711296,0.279053926,0.003514434,0.001669990,-0.000117889,1.082230568,0.003469682,9.710858345
1784246780.786557,0.003177384,-0.116710879,0.279046535,0.003374380,0.000888326,-0.000873366,1.067111254,-0.020282853,9.738937378
1784246780.788557,0.003188597,-0.116706818,0.279041857,0.003532674,0.000947055,-0.001582275,1.067718267,-0.007691637,9.731396675
1784246780.790563,0.003193937,-0.116705380,0.279039770,0.003807539,0.000770026,-0.001756695,1.068118334,-0.011729032,9.731369972
1784246780.792579,0.003199428,-0.116706602,0.279037684,0.003641768,0.000283697,-0.001669708,1.103662848,-0.004933175,9.719792366
1784246780.794569,0.003207545,-0.116703473,0.279037148,0.003668542,0.000215255,-0.001514253,1.075965881,-0.030256161,9.739329338
1784246780.796570,0.003222377,-0.116707422,0.279032975,0.004301314,-0.000019880,-0.001617686,1.046349764,0.004050446,9.693791389
1784246780.798597,0.003227202,-0.116711885,0.279036105,0.004449949,-0.000585557,-0.001406900,1.054535031,0.014936130,9.723459244
1784246780.800570,0.003231355,-0.116710477,0.279041141,0.003978385,-0.000959711,-0.000550033,1.080091476,0.014049181,9.739170074
1784246780.802563,0.003240547,-0.116712309,0.279041618,0.003908516,-0.001053908,-0.000141009,1.081628561,0.028103137,9.713257790
1784246780.804564,0.003248323,-0.116715916,0.279043049,0.004036528,-0.001356788,-0.000114836,1.112059355,0.021399405,9.719073296
1784246780.806567,0.003258871,-0.116721191,0.279043138,0.004217731,-0.001812147,-0.000133041,1.114194155,0.012811702,9.725743294
1784246780.808561,0.003271569,-0.116723038,0.279043496,0.004642969,-0.001804383,-0.000252257,1.093706489,0.025628613,9.724462509
1784246780.810562,0.003283145,-0.116724446,0.279044837,0.005098381,-0.001692745,-0.000266075,1.066650987,0.015600515,9.734233856
1784246780.812565,0.003291661,-0.116728902,0.279046267,0.005156744,-0.001789125,-0.000169256,1.058999777,0.012676986,9.718069077
1784246780.814569,0.003293321,-0.116728134,0.279050052,0.004601492,-0.001908326,0.000134728,1.087815046,0.021595398,9.735190392
1784246780.816577,0.003298175,-0.116731837,0.279057533,0.003997666,-0.001941670,0.000789401,1.093088865,0.050138071,9.744345665
1784246780.818582,0.003303218,-0.116730489,0.279065996,0.003705970,-0.001573457,0.001575627,1.117219567,0.041344967,9.740277290
1784246780.820580,0.003307830,-0.116725773,0.279070258,0.003444435,-0.000871379,0.001934102,1.080759764,0.034014083,9.765749931
1784246780.822578,0.003314422,-0.116731010,0.279071957,0.003304402,-0.000807570,0.001723486,1.073054314,0.025394240,9.731614113
1784246780.824575,0.003322444,-0.116733342,0.279074699,0.003413212,-0.001356555,0.001440709,1.095856190,0.053938456,9.708952904
1784246780.826581,0.003326739,-0.116734609,0.279078037,0.003350465,-0.001485739,0.001362355,1.088759422,0.061976098,9.725586891
1784246780.828576,0.003333873,-0.116740718,0.279084176,0.003286110,-0.001581086,0.001539911,1.112119913,0.027550030,9.736148834
1784246780.830624,0.003341408,-0.116749346,0.279093534,0.003503268,-0.002231690,0.002045529,1.092061162,0.040205393,9.756833076
1784246780.832619,0.003348135,-0.116756231,0.279098511,0.003624896,-0.002758809,0.002341305,1.101055026,0.039842766,9.728595734
1784246780.834635,0.003353351,-0.116761819,0.279101074,0.003463187,-0.002975460,0.002124066,1.095943332,0.063542418,9.744432449
1784246780.836593,0.003362677,-0.116766617,0.279106885,0.003527649,-0.002991481,0.002002993,1.115691423,0.061304010,9.708571434
1784246780.838587,0.003377380,-0.116769105,0.279112935,0.004283060,-0.002669691,0.002062190,1.093786120,0.069925286,9.732815742
1784246780.840593,0.003389893,-0.116768740,0.279118717,0.004962307,-0.002220558,0.002088664,1.119615555,0.053055428,9.727352142
1784246780.842590,0.003394793,-0.116773352,0.279112220,0.004697869,-0.002042527,0.001347736,1.124454260,0.082118586,9.727094650
1784246780.844587,0.003405789,-0.116780467,0.279115468,0.004283752,-0.002359539,0.000660723,1.112356305,0.083217420,9.720365524
1784246780.846596,0.003418531,-0.116785601,0.279124111,0.004630432,-0.002621334,0.001117845,1.103864193,0.084804088,9.701538086
1784246780.848588,0.003430455,-0.116792008,0.279130548,0.005155107,-0.002690096,0.001632484,1.134385586,0.085299537,9.702914238
1784246780.850591,0.003442335,-0.116798572,0.279135883,0.005319683,-0.002844619,0.001807895,1.120708585,0.069583513,9.732391357
1784246780.852594,0.003450564,-0.116800711,0.279142171,0.005189541,-0.002666615,0.001954954,1.116278648,0.074549504,9.735109329
1784246780.854591,0.003462515,-0.116806410,0.279143512,0.005059422,-0.002516900,0.001791363,1.132581949,0.086469263,9.730717659
1784246780.856602,0.003475561,-0.116813660,0.279151678,0.005304218,-0.002754034,0.001761058,1.114682913,0.089924000,9.718170166
1784246780.858602,0.003481573,-0.116820522,0.279153645,0.005228877,-0.002960488,0.001810597,1.131002545,0.067624457,9.737320900
1784246780.860600,0.003489800,-0.116827123,0.279160231,0.004722139,-0.003105684,0.001791842,1.098724723,0.071101002,9.747623444
1784246780.862605,0.003497148,-0.116827622,0.279165030,0.004465706,-0.002781799,0.001961270,1.139419317,0.058146190,9.731886864
1784246780.864628,0.003506422,-0.116829783,0.279163867,0.004320064,-0.002200991,0.001545129,1.135005713,0.064052619,9.728333473
1784246780.866613,0.003512688,-0.116836108,0.279168218,0.004137402,-0.002172924,0.001221600,1.153518200,0.110019870,9.720577240
1784246780.868644,0.003516262,-0.116845086,0.279174626,0.003762891,-0.002621286,0.001542523,1.172495723,0.085388795,9.747785568
1784246780.870615,0.003522292,-0.116853394,0.279170334,0.003219831,-0.002977566,0.001216111,1.141008019,0.079497531,9.750855446
1784246780.872647,0.003521777,-0.116860695,0.279170722,0.002500871,-0.003123306,0.000599356,1.116804481,0.079204597,9.709585190
1784246780.874620,0.003523340,-0.116863079,0.279170483,0.001725218,-0.003048650,0.000457544,1.113018632,0.102324568,9.741560936
1784246780.876614,0.003529295,-0.116863288,0.279173523,0.001617106,-0.002513985,0.000484000,1.161569118,0.109712876,9.749277115
1784246780.878615,0.003539870,-0.116868563,0.279173434,0.002315198,-0.002204308,0.000413803,1.163820028,0.106907718,9.698598862
1784246780.880615,0.003548610,-0.116881676,0.279167145,0.002708370,-0.002747670,-0.000255563,1.163730383,0.101335041,9.726360321
1784246780.882627,0.003549342,-0.116892844,0.279159129,0.002268220,-0.003546884,-0.001197887,1.173326850,0.079585604,9.743265152
1784246780.884626,0.003548465,-0.116902605,0.279160231,0.001442544,-0.003893099,-0.001324242,1.146009803,0.082792595,9.719498634
1784246780.886634,0.003543216,-0.116908818,0.279162198,0.000517588,-0.003804269,-0.000692831,1.158273339,0.095561467,9.729007721
1784246780.888621,0.003536975,-0.116912298,0.279159158,-0.000405420,-0.003429334,-0.000484248,1.133152843,0.096344106,9.727195740
1784246780.890624,0.003542816,-0.116916366,0.279161483,-0.000552264,-0.003053647,-0.000366995,1.140478253,0.072783872,9.750812531
1784246780.892657,0.003550097,-0.116922095,0.279157400,0.000243603,-0.002932585,-0.000461512,1.151020885,0.088187546,9.707881927
1784246780.894642,0.003551415,-0.116929315,0.279153645,0.000497700,-0.002946552,-0.000910541,1.166237354,0.123243682,9.728295326
1784246780.896645,0.003551102,-0.116937406,0.279154539,0.000210036,-0.003116057,-0.000842153,1.155723214,0.107255660,9.727286339
1784246780.898643,0.003553088,-0.116940692,0.279150099,0.000237826,-0.003043665,-0.000863072,1.163497448,0.082069539,9.726684570
1784246780.900637,0.003549057,-0.116947040,0.279146314,-0.000209975,-0.002858227,-0.001149093,1.172400832,0.076127887,9.727103233
1784246780.902637,0.003543293,-0.116950758,0.279139370,-0.001078702,-0.002752622,-0.001466793,1.165787578,0.084436409,9.704732895
1784246780.904638,0.003541476,-0.116954565,0.279132336,-0.001581321,-0.002387668,-0.001931097,1.167964935,0.082262859,9.754486084
1784246780.906639,0.003537118,-0.116953567,0.279131979,-0.001800371,-0.001802061,-0.001834078,1.148491263,0.066910930,9.743161201
1784246780.908636,0.003531902,-0.116955772,0.279131830,-0.001961268,-0.001396315,-0.001294173,1.165643215,0.111970901,9.739430428
1784246780.910647,0.003528865,-0.116967000,0.279132426,-0.002304029,-0.001872821,-0.000815259,1.169123054,0.102952965,9.741169930
1784246780.912646,0.003525661,-0.116975337,0.279130578,-0.002431351,-0.002634476,-0.000594853,1.147639990,0.108118355,9.746562958
1784246780.914648,0.003527183,-0.116979703,0.279121816,-0.002265097,-0.002792049,-0.001099581,1.173930407,0.091338128,9.727649689
1784246780.916644,0.003525421,-0.116983443,0.279115081,-0.002085603,-0.002599379,-0.001808450,1.201288819,0.091295488,9.747403145
1784246780.918649,0.003519511,-0.116989039,0.279109269,-0.002136937,-0.002530383,-0.002108918,1.190513611,0.053792622,9.748049736
1784246780.920648,0.003513329,-0.116990179,0.279101342,-0.002585976,-0.002097479,-0.002362432,1.164690375,0.033526838,9.746100426
1784246780.922653,0.003508475,-0.116989695,0.279096127,-0.002836382,-0.001369180,-0.002508588,1.204778910,0.045173705,9.737246513
1784246780.924647,0.003505928,-0.116999492,0.279086828,-0.002735270,-0.001398880,-0.002744095,1.223842502,0.062459953,9.729307175
1784246780.926651,0.003501438,-0.117003985,0.279078186,-0.002664750,-0.001761030,-0.003152235,1.175054312,0.036578029,9.739404678
1784246780.928649,0.003495379,-0.117007703,0.279071450,-0.002774618,-0.001844340,-0.003250242,1.156235814,0.041086070,9.769453049
1784246780.930650,0.003491369,-0.117013320,0.279072165,-0.002784443,-0.001963658,-0.002690040,1.176679492,0.060242306,9.748076439
1784246780.932652,0.003481009,-0.117019355,0.279063106,-0.003100400,-0.002208469,-0.002409672,1.197361708,0.060308531,9.701470375
1784246780.934663,0.003469414,-0.117029689,0.279055536,-0.003963734,-0.002520991,-0.002694579,1.157227993,0.081438519,9.700671196
1784246780.936671,0.003461252,-0.117037468,0.279059321,-0.004342762,-0.002864552,-0.002053945,1.155159831,0.060661361,9.727883339
1784246780.938664,0.003449983,-0.117040366,0.279053599,-0.004489272,-0.002810908,-0.001477040,1.166177988,0.044352863,9.733170509
1784246780.940657,0.003440592,-0.117043741,0.279041648,-0.004843670,-0.002492751,-0.002102614,1.178307176,0.045122176,9.729151726
1784246780.942661,0.003434849,-0.117048264,0.279034406,-0.004741082,-0.002371976,-0.002702798,1.163951159,0.046945374,9.750669479
1784246780.944660,0.003423474,-0.117054135,0.279030412,-0.004740985,-0.002376616,-0.002581054,1.152472615,0.062357325,9.746273994
1784246780.946672,0.003409259,-0.117050394,0.279029757,-0.005260387,-0.001819519,-0.001984617,1.165177345,0.037066616,9.751503944
1784246780.948663,0.003395954,-0.117046900,0.279025972,-0.005722967,-0.000836909,-0.001528987,1.185554862,0.052054483,9.749378204
1784246780.950680,0.003386356,-0.117047012,0.279023826,-0.005825590,-0.000212838,-0.001323567,1.193239808,0.056458622,9.746274948
1784246780.952667,0.003377088,-0.117044352,0.279017597,-0.005647347,0.000186284,-0.001372398,1.178450465,0.056788247,9.726535797
1784246780.954674,0.003364351,-0.117049515,0.279010475,-0.005792434,0.000067904,-0.001717568,1.153849244,0.063388631,9.724761009
1784246780.956673,0.003360740,-0.117050380,0.279006004,-0.005503090,-0.000257027,-0.001897516,1.187098742,0.028165914,9.703496933
1784246780.958672,0.003361103,-0.117044650,0.279002547,-0.004291228,0.000142666,-0.001897107,1.168453813,0.046605263,9.727358818
1784246780.960677,0.003358458,-0.117037743,0.278998822,-0.003402292,0.001009414,-0.001839438,1.173174977,0.027019326,9.700785637
1784246780.962678,0.003354524,-0.117035210,0.279001832,-0.002993210,0.001424535,-0.001329663,1.148775935,0.015457043,9.732519150
1784246780.964711,0.003354569,-0.117034838,0.279008538,-0.002304324,0.001232657,-0.000292513,1.177362323,0.004331669,9.733371735
1784246780.966691,0.003349901,-0.117036007,0.279010564,-0.001859315,0.000841833,0.000407395,1.173321962,0.002747370,9.711390495
1784246780.968686,0.003343222,-0.117031023,0.279007614,-0.002127002,0.000873141,0.000322382,1.178933740,0.021492749,9.711515427
1784246780.970684,0.003335602,-0.117029570,0.279004902,-0.002498360,0.001241715,-0.000044784,1.151570320,0.023524005,9.727193832
1784246780.972705,0.003326754,-0.117029585,0.279001594,-0.002917229,0.001169833,-0.000314393,1.136821747,0.027418239,9.710166931
1784246780.974696,0.003309199,-0.117022805,0.279000312,-0.003943834,0.001322130,-0.000330288,1.149739981,0.020833798,9.730761528
1784246780.976691,0.003293037,-0.117015317,0.278998405,-0.005174735,0.001941378,-0.000195389,1.179312229,0.016070129,9.717308998
1784246780.978689,0.003285900,-0.117009863,0.279001504,-0.005331677,0.002293191,0.000120128,1.175857663,0.026908522,9.711546898
1784246780.980756,0.003283426,-0.117009878,0.279011309,-0.004438529,0.002228427,0.001035760,1.160357475,0.008559531,9.736521721
1784246780.982786,0.003269004,-0.117005587,0.279007971,-0.004330323,0.002099424,0.001322382,1.165944934,-0.012502602,9.726976395
1784246780.984702,0.003254312,-0.116998881,0.278999805,-0.005040353,0.002380909,0.000394757,1.170976758,-0.005728786,9.710436821
1784246780.986699,0.003248249,-0.116990201,0.279000938,-0.004958236,0.002884052,-0.000043720,1.146534920,-0.022491723,9.717479706
1784246780.988708,0.003241670,-0.116985016,0.279003888,-0.004432191,0.003043250,0.000340460,1.169583917,-0.006890447,9.750329018
1784246780.990700,0.003232877,-0.116986006,0.279003680,-0.004073269,0.002566066,0.000526728,1.156462431,0.020683968,9.739733696
1784246780.992709,0.003222457,-0.116979733,0.279009670,-0.004046614,0.002291532,0.000897131,1.167693973,-0.016938442,9.717534065
1784246780.994721,0.003211723,-0.116971925,0.279019505,-0.004003750,0.002735049,0.001856557,1.174599051,-0.001463689,9.734229088
1784246780.996717,0.003215156,-0.116961762,0.279019922,-0.003082542,0.003321525,0.002070971,1.183651209,0.005521929,9.743698120
1784246780.998712,0.003216953,-0.116953954,0.279020339,-0.001886628,0.003639429,0.001523374,1.138195753,-0.005916038,9.732820511
1784246781.000712,0.003219569,-0.116950221,0.279020995,-0.001019945,0.003456975,0.001140193,1.122698545,0.011727050,9.736953735
1784246781.002711,0.003222092,-0.116945699,0.279028535,-0.000283567,0.003104059,0.001329338,1.148419023,-0.015325088,9.714388847
1784246781.004708,0.003219960,-0.116939880,0.279042482,0.000180487,0.003040090,0.002388731,1.160588264,-0.010594079,9.720258713
1784246781.006714,0.003221710,-0.116932049,0.279041052,0.000395762,0.003214455,0.002565815,1.155292630,-0.038091756,9.753253937
1784246781.008715,0.003223366,-0.116923980,0.279040366,0.000501516,0.003420113,0.001702326,1.163282275,-0.044555735,9.765773773
1784246781.010715,0.003220649,-0.116920121,0.279050589,0.000609489,0.003258743,0.001865878,1.175893068,-0.041507844,9.755494118
1784246781.012715,0.003208199,-0.116919883,0.279052764,-0.000240486,0.002609342,0.002287467,1.138084888,-0.052487485,9.729383469
1784246781.014721,0.003195593,-0.116914220,0.279048711,-0.001633409,0.002294020,0.001709700,1.134094477,-0.011630557,9.724709511
1784246781.016725,0.003193965,-0.116908789,0.279050648,-0.001920808,0.002417117,0.001183614,1.151190042,-0.008252617,9.722955704
1784246781.018730,0.003188433,-0.116905481,0.279055804,-0.001825820,0.002355864,0.001395719,1.123504281,0.003696769,9.730627060
1784246781.020726,0.003185140,-0.116900712,0.279066116,-0.001759571,0.002163739,0.002127066,1.121821880,-0.025282629,9.713402748
1784246781.022730,0.003185212,-0.116895892,0.279071689,-0.001330431,0.002127777,0.002642978,1.140394211,-0.008327675,9.752981186
1784246781.024723,0.003186593,-0.116891988,0.279073924,-0.000672477,0.002137506,0.002423853,1.100812912,-0.017895913,9.720603943
1784246781.026731,0.003187628,-0.116886824,0.279073775,-0.000173936,0.002164821,0.001867227,1.144491196,-0.043074939,9.717345238
1784246781.028731,0.003187845,-0.116880856,0.279073805,-0.000043923,0.002332001,0.001335818,1.135944963,-0.006351147,9.735057831
1784246781.030738,0.003190020,-0.116875440,0.279069632,0.000196119,0.002453995,0.000660095,1.140205860,-0.024403397,9.745705605
1784246781.032731,0.003190145,-0.116864972,0.279068589,0.000356395,0.002849452,0.000097316,1.135297656,-0.022097172,9.745266914
1784246781.034732,0.003179439,-0.116859801,0.279077768,-0.000216638,0.003102890,0.000678897,1.106163263,-0.019855319,9.734495163
1784246781.036763,0.003167775,-0.116859123,0.279084682,-0.001365994,0.002625565,0.001729536,1.112723231,0.002119216,9.719845772
1784246781.038759,0.003162449,-0.116856553,0.279085815,-0.002076947,0.002135915,0.001934720,1.098069906,0.017301148,9.753554344
1784246781.040860,0.003160958,-0.116849259,0.279088140,-0.001831464,0.002061402,0.001689839,1.112322092,0.006147084,9.721216202
1784246781.042759,0.003163606,-0.116842464,0.279083520,-0.001160285,0.002292565,0.001062524,1.121910214,-0.016479209,9.735426903
1784246781.044781,0.003161965,-0.116836421,0.279081196,-0.000669973,0.002516940,0.000280912,1.096584201,0.004057623,9.728361130
1784246781.046793,0.003165273,-0.116829112,0.279075742,-0.000276065,0.002716440,-0.000360431,1.111841679,0.003064790,9.714470863
1784246781.048776,0.003162954,-0.116825975,0.279069781,-0.000225568,0.002685661,-0.001045622,1.106373429,-0.002391190,9.735502243
1784246781.050756,0.003158439,-0.116822772,0.279074132,-0.000538314,0.002266598,-0.000825469,1.085274220,-0.003417166,9.728751183
1784246781.052746,0.003160870,-0.116824366,0.279081821,-0.000337684,0.001645285,0.000218369,1.097763658,-0.010243505,9.721097946
1784246781.054749,0.003160920,-0.116821691,0.279076278,0.000134856,0.001121578,0.000256845,1.117364883,-0.020126235,9.752436638
1784246781.056758,0.003158655,-0.116816975,0.279072225,0.000069578,0.001163109,-0.000471596,1.128483891,-0.029962946,9.729518890
1784246781.058758,0.003158501,-0.116810247,0.279075384,-0.000119410,0.001623106,-0.000386326,1.123872995,-0.003018856,9.729238510
1784246781.060774,0.003164940,-0.116806924,0.279074430,0.000500577,0.001823271,-0.000197393,1.084931254,0.004718652,9.719388008
1784246781.062765,0.003170370,-0.116807960,0.279079556,0.001344105,0.001442334,0.000028189,1.106921792,0.006088882,9.739144325
1784246781.064809,0.003166480,-0.116801180,0.279079139,0.001345012,0.001296772,0.000300595,1.093470335,0.006744300,9.734203339
1784246781.066796,0.003164649,-0.116797850,0.279078096,0.000807279,0.001486738,0.000138798,1.075661540,0.017395021,9.717666626
1784246781.068813,0.003169891,-0.116796143,0.279073834,0.000775725,0.001425135,-0.000286493,1.101324320,-0.012948651,9.717048645
1784246781.070778,0.003177962,-0.116790049,0.279067338,0.001513155,0.001374826,-0.001046430,1.110531211,-0.030984649,9.716493607
1784246781.072810,0.003179178,-0.116784923,0.279070169,0.001834732,0.001571392,-0.001093628,1.106052876,-0.029237064,9.730847359
1784246781.074784,0.003177067,-0.116777599,0.279069871,0.001616662,0.001788586,-0.000658971,1.111726761,-0.004731785,9.739976883
1784246781.076788,0.003185792,-0.116774581,0.279065818,0.001909481,0.001801156,-0.000865924,1.115420938,0.003342757,9.731962204
1784246781.078785,0.003192082,-0.116771564,0.279064029,0.002357156,0.001718566,-0.001143188,1.104658365,0.003124985,9.718949318
1784246781.080776,0.003193808,-0.116767369,0.279060483,0.002374784,0.001571289,-0.001273940,1.109473825,-0.006802940,9.720232964
1784246781.082821,0.003194244,-0.116767518,0.279062569,0.002022963,0.001250059,-0.001064083,1.108602762,-0.002937851,9.745364189
1784246781.084791,0.003195483,-0.116770461,0.279062599,0.001760596,0.000510586,-0.000661304,1.111454725,0.009637340,9.736033440
1784246781.086814,0.003211312,-0.116770647,0.279052585,0.002511847,-0.000032518,-0.001305105,1.096977472,-0.001653977,9.711736679
1784246781.088805,0.003226591,-0.116766684,0.279049873,0.003826365,0.000231306,-0.002058043,1.137613773,0.020089928,9.731192589
1784246781.090810,0.003232160,-0.116763003,0.279054731,0.004205563,0.000675083,-0.001522959,1.121155858,-0.004801644,9.732810974
1784246781.092793,0.003234859,-0.116763227,0.279060304,0.003699668,0.000714722,-0.000468062,1.078787923,0.016833674,9.727978706
1784246781.094802,0.003236773,-0.116762228,0.279059857,0.003199938,0.000243139,-0.000045562,1.084792972,0.032300852,9.747361183
1784246781.096797,0.003244906,-0.116765328,0.279055655,0.003124708,-0.000297190,-0.000442433,1.080754757,0.031542528,9.735247612
1784246781.098815,0.003255778,-0.116770037,0.279053032,0.003503699,-0.000748270,-0.000929750,1.100159407,0.004303788,9.750334740
1784246781.100862,0.003261254,-0.116766647,0.279060125,0.003761597,-0.000919446,-0.000507679,1.127150774,0.008962715,9.739630699
1784246781.102814,0.003272127,-0.116765156,0.279071599,0.004060371,-0.000619116,0.000741034,1.090139747,0.029502761,9.753176689
1784246781.104801,0.003282514,-0.116758801,0.279072881,0.004533930,-0.000238437,0.001218773,1.061304688,0.018401781,9.727971077
1784246781.106810,0.003291263,-0.116760314,0.279070318,0.004625678,-0.000168729,0.000644600,1.105430603,0.032420762,9.756348610
1784246781.108799,0.003293616,-0.116760783,0.279074252,0.004129888,-0.000257423,0.000477375,1.091234088,0.046850454,9.768980026
1784246781.110801,0.003299227,-0.116754241,0.279078484,0.003536406,0.000037466,0.000844586,1.072296619,0.037449818,9.738863945
1784246781.112799,0.003303993,-0.116752893,0.279084891,0.003285871,0.000375438,0.001257485,1.090060234,0.021579370,9.733398438
1784246781.114802,0.003308072,-0.116749592,0.279086560,0.003155691,0.000406200,0.001376642,1.111683369,0.027651168,9.722699165
1784246781.116813,0.003317034,-0.116749823,0.279089093,0.003313491,0.000319663,0.001174412,1.128514290,0.047888860,9.744812965
1784246781.118814,0.003321798,-0.116751671,0.279095232,0.003407876,0.000092970,0.001333026,1.109399438,0.060088307,9.701832771
1784246781.120804,0.003329407,-0.116752066,0.279096693,0.003294996,-0.000159879,0.001393642,1.119603992,0.051749691,9.721964836
1784246781.122810,0.003336855,-0.116752312,0.279100686,0.003377039,-0.000236857,0.001276192,1.120940447,0.050439440,9.714784622
1784246781.124803,0.003340443,-0.116761476,0.279109448,0.003266596,-0.000870282,0.001710647,1.122374296,0.058005728,9.719317436
1784246781.126806,0.003344462,-0.116771586,0.279121011,0.003014909,-0.001999171,0.002564706,1.119295955,0.064212501,9.734148979
1784246781.128808,0.003355286,-0.116778061,0.279132158,0.003376451,-0.002575993,0.003279372,1.099353671,0.047897272,9.733128548
1784246781.130812,0.003361986,-0.116779849,0.279133230,0.003700288,-0.002578444,0.003080350,1.138274550,0.038374271,9.742071152
1784246781.132845,0.003361591,-0.116785295,0.279132813,0.003088707,-0.002512887,0.002248424,1.130443811,0.058251634,9.733224869
1784246781.134819,0.003365121,-0.116790667,0.279136449,0.002405718,-0.002643779,0.001839572,1.101955771,0.077446684,9.731526375
1784246781.136812,0.003372437,-0.116795972,0.279143333,0.002485860,-0.002730017,0.001975940,1.078960538,0.069565296,9.747146606
1784246781.138821,0.003377097,-0.116800696,0.279147744,0.002708235,-0.002668835,0.002112337,1.091040611,0.065486528,9.731886864
1784246781.140817,0.003390096,-0.116800196,0.279148579,0.003145237,-0.002372474,0.001762246,1.147410750,0.087664761,9.724911690
1784246781.142821,0.003404446,-0.116804905,0.279141605,0.004026088,-0.002157440,0.000659662,1.122515798,0.070469148,9.730605125
1784246781.144820,0.003409822,-0.116810754,0.279140860,0.004103119,-0.002390462,-0.000182731,1.128242493,0.061044462,9.722480774
1784246781.146820,0.003406146,-0.116813362,0.279152423,0.003090772,-0.002413224,0.000592705,1.135757923,0.051142447,9.715250969
1784246781.148820,0.003407243,-0.116813786,0.279155642,0.002194948,-0.001961890,0.001448787,1.136695623,0.090659037,9.701158524
1784246781.150825,0.003418205,-0.116817117,0.279159814,0.002320805,-0.001673838,0.001477733,1.150722504,0.065163486,9.732840538
1784246781.152827,0.003429004,-0.116827726,0.279161841,0.003056329,-0.002153910,0.001333533,1.146996021,0.053187650,9.722447395
1784246781.154829,0.003440562,-0.116836868,0.279161245,0.003624998,-0.002879983,0.000901508,1.127964973,0.076179147,9.736924171
1784246781.156832,0.003439793,-0.116842814,0.279159456,0.003229403,-0.003093204,0.000424788,1.093263745,0.064082101,9.736365318
1784246781.158837,0.003445165,-0.116846517,0.279164761,0.002690767,-0.002906504,0.000512253,1.113331676,0.053526636,9.735420227
1784246781.160833,0.003449933,-0.116855584,0.279170185,0.002691723,-0.003083489,0.001026147,1.133327127,0.037128601,9.737127304
1784246781.162832,0.003459743,-0.116866499,0.279178172,0.003012236,-0.003702733,0.001542704,1.143532634,0.063956104,9.726549149
1784246781.164837,0.003463457,-0.116873994,0.279176921,0.003050821,-0.003879101,0.001486988,1.146591663,0.095590115,9.746032715
1784246781.166844,0.003454729,-0.116878711,0.279167771,0.001693543,-0.003590464,0.000435621,1.123363256,0.104006425,9.738444328
1784246781.168837,0.003460827,-0.116882347,0.279167056,0.000978115,-0.003185151,-0.000328768,1.149011493,0.070711441,9.711803436
1784246781.170837,0.003468417,-0.116881393,0.279181153,0.001543246,-0.002442585,0.000580797,1.135051727,0.067658573,9.725218773
1784246781.172859,0.003464217,-0.116886504,0.279178917,0.001248718,-0.002001903,0.001223674,1.147088170,0.098392941,9.729015350
1784246781.174845,0.003468920,-0.116888605,0.279171348,0.000546719,-0.001918859,0.000263808,1.158144712,0.084009871,9.715482712
1784246781.176848,0.003468315,-0.116895087,0.279170394,0.000287328,-0.001951408,-0.000381406,1.146620750,0.096225671,9.719585419
1784246781.178843,0.003465799,-0.116897851,0.279169977,-0.000012106,-0.002049025,-0.000346575,1.177428722,0.083276533,9.720876694
1784246781.180847,0.003467665,-0.116905712,0.279167295,-0.000301906,-0.002082703,-0.000429417,1.173931599,0.055784471,9.749838829
1784246781.182860,0.003464174,-0.116912432,0.279165715,-0.000588090,-0.002375973,-0.000563591,1.153969288,0.074063390,9.735589981
1784246781.184850,0.003464534,-0.116914503,0.279164016,-0.000811315,-0.002265916,-0.000587347,1.141093493,0.085035227,9.728026390
1784246781.186853,0.003468151,-0.116916485,0.279159486,-0.000517831,-0.001865123,-0.000854868,1.142109036,0.095682591,9.741098404
1784246781.188853,0.003465571,-0.116920501,0.279155076,-0.000378057,-0.001769236,-0.001231483,1.140943646,0.072505042,9.726153374
1784246781.190856,0.003459525,-0.116923250,0.279154599,-0.001018744,-0.001729589,-0.001146154,1.144092560,0.110928424,9.735817909
1784246781.192855,0.003458614,-0.116923422,0.279158920,-0.001303149,-0.001436227,-0.000504573,1.143096924,0.064063586,9.712203026
1784246781.194866,0.003464230,-0.116923682,0.279157221,-0.000694187,-0.001032218,-0.000215348,1.188817620,0.060674939,9.728364944
1784246781.196898,0.003458156,-0.116927706,0.279155076,-0.000650278,-0.001001145,-0.000403893,1.164238095,0.069473796,9.732433319
1784246781.198872,0.003453436,-0.116932012,0.279152781,-0.001236582,-0.001296049,-0.000507893,1.150855541,0.075939976,9.729322433
1784246781.200859,0.003453023,-0.116935700,0.279146224,-0.001463069,-0.001421059,-0.000907770,1.152114153,0.069152445,9.736454010
1784246781.202868,0.003444967,-0.116937824,0.279140711,-0.001879135,-0.001364209,-0.001397221,1.144761324,0.054906502,9.736803055
1784246781.204880,0.003439694,-0.116934560,0.279135585,-0.002431166,-0.000906903,-0.001625497,1.184322715,0.060265388,9.731047630
1784246781.206883,0.003435455,-0.116934605,0.279129654,-0.002578513,-0.000432182,-0.001844755,1.189075351,0.044977833,9.730058670
1784246781.208875,0.003431882,-0.116937011,0.279122502,-0.002508958,-0.000483249,-0.002168879,1.204475641,0.057674669,9.744051933
1784246781.210873,0.003432879,-0.116944782,0.279121518,-0.002172095,-0.000741410,-0.002098896,1.154033661,0.040629067,9.711613655
1784246781.212880,0.003428912,-0.116948813,0.279117405,-0.001928385,-0.001038783,-0.001831903,1.166481137,0.068225168,9.714941025
1784246781.214879,0.003426099,-0.116951920,0.279112011,-0.002092140,-0.001106083,-0.001907890,1.167480230,0.077932082,9.734282494
1784246781.216875,0.003418062,-0.116951697,0.279110968,-0.002461988,-0.000865861,-0.001727359,1.149045944,0.075035274,9.733798981
1784246781.218886,0.003411710,-0.116952799,0.279106915,-0.002803996,-0.000690744,-0.001487647,1.158835411,0.068589628,9.740491867
1784246781.220897,0.003407391,-0.116958059,0.279103965,-0.002947635,-0.000869411,-0.001458973,1.187598228,0.035044555,9.743442535
1784246781.222894,0.003402121,-0.116956517,0.279100060,-0.002978007,-0.000820378,-0.001436968,1.169379234,0.049246557,9.732307434
1784246781.224890,0.003397999,-0.116950393,0.279097170,-0.002973671,-0.000010977,-0.001416585,1.181855202,0.041911837,9.733169556
1784246781.226891,0.003387802,-0.116950125,0.279093981,-0.003297130,0.000491634,-0.001312481,1.160803676,0.082497939,9.734305382
1784246781.228891,0.003385713,-0.116953105,0.279087752,-0.003304536,0.000172901,-0.001492821,1.140250206,0.053963143,9.751588821
1784246781.230928,0.003388239,-0.116953582,0.279087096,-0.002478845,-0.000104695,-0.001550922,1.150825024,0.074888252,9.751285553
1784246781.232931,0.003386717,-0.116946250,0.279086113,-0.001798242,0.000392091,-0.001246243,1.166445136,0.065915413,9.724789619
1784246781.234937,0.003383968,-0.116945393,0.279080302,-0.001859269,0.001031757,-0.001312455,1.177672386,0.028258024,9.707524300
1784246781.236915,0.003376948,-0.116942465,0.279073268,-0.002321996,0.001198484,-0.001724057,1.165438175,0.019771624,9.725839615
1784246781.238918,0.003373851,-0.116939835,0.279064804,-0.002496676,0.001247409,-0.002222621,1.196869135,0.021567654,9.731707573
1784246781.240908,0.003373640,-0.116947725,0.279058635,-0.001995008,0.000916393,-0.002604915,1.157695413,0.010452642,9.727115631
1784246781.242901,0.003374571,-0.116950490,0.279058576,-0.001291243,0.000308300,-0.002343365,1.170777559,0.016509686,9.733891487
1784246781.244916,0.003376144,-0.116951972,0.279064089,-0.000687926,0.000057453,-0.001357334,1.167734027,0.025019852,9.739771843
1784246781.246911,0.003374709,-0.116945527,0.279068977,-0.000368975,0.000503882,-0.000292722,1.175400376,0.029277712,9.757291794
1784246781.248903,0.003369473,-0.116939977,0.279062957,-0.000727798,0.001181886,-0.000238210,1.185052991,0.047586981,9.748452187
1784246781.250918,0.003366203,-0.116942272,0.279062331,-0.001227691,0.001284495,-0.000544043,1.163143635,0.016156277,9.734330177
1784246781.252910,0.003364273,-0.116941370,0.279066294,-0.001289387,0.001046013,-0.000118237,1.140874743,0.029914364,9.729913712
1784246781.254909,0.003363455,-0.116941586,0.279069543,-0.001137582,0.000724728,0.000426121,1.145845413,0.034178108,9.751466751
1784246781.256907,0.003363191,-0.116941251,0.279075325,-0.000901089,0.000452656,0.000930980,1.149345636,0.061695609,9.718918800
1784246781.258917,0.003364078,-0.116936885,0.279074043,-0.000579101,0.000650814,0.000976277,1.137005806,0.043865625,9.728206635
1784246781.260913,0.003365011,-0.116932765,0.279073238,-0.000358996,0.001032084,0.000559278,1.154529214,0.046262387,9.737653732
1784246781.262916,0.003359639,-0.116930395,0.279065818,-0.000669405,0.001173130,-0.000107048,1.153156638,0.044449639,9.743021011
1784246781.264907,0.003350672,-0.116924532,0.279055715,-0.001598113,0.001394883,-0.001152518,1.147340894,0.007881209,9.729331017
1784246781.266935,0.003347189,-0.116920367,0.279052824,-0.002111283,0.001678890,-0.001624362,1.156935573,0.021275615,9.718667030
1784246781.268921,0.003341571,-0.116914928,0.279056698,-0.002143830,0.001876461,-0.001046962,1.155016184,0.010995515,9.718598366
1784246781.270920,0.003327604,-0.116909713,0.279057056,-0.002745604,0.002132846,-0.000337795,1.140728116,0.017002983,9.718622208
1784246781.272955,0.003326231,-0.116906084,0.279054374,-0.002949194,0.002193971,-0.000290849,1.149604678,0.008824696,9.718579292
1784246781.274925,0.003324888,-0.116906062,0.279055953,-0.002196423,0.001958906,-0.000274827,1.159417033,0.006204034,9.754438400
1784246781.276919,0.003319476,-0.116900377,0.279060423,-0.001864646,0.001930893,0.000242750,1.167306662,0.024787489,9.710180283
1784246781.278921,0.003314247,-0.116900526,0.279067218,-0.001986857,0.001785980,0.001015667,1.147396326,0.012776983,9.733845711
1784246781.280924,0.003311516,-0.116903387,0.279071510,-0.001792185,0.001155597,0.001540153,1.131470203,-0.005385020,9.733265877
1784246781.282926,0.003306761,-0.116900586,0.279074639,-0.001647615,0.000895881,0.001670625,1.146111369,0.016924452,9.719972610
1784246781.284928,0.003303705,-0.116901390,0.279078066,-0.001613511,0.000797777,0.001711912,1.126366735,0.018784843,9.745969772
1784246781.286928,0.003307404,-0.116900504,0.279077649,-0.001046913,0.000596354,0.001435245,1.129181504,0.028634112,9.742000580
1784246781.288922,0.003307655,-0.116893433,0.279075205,-0.000519026,0.000972901,0.000821603,1.154313087,-0.008432761,9.742682457
1784246781.290927,0.003306076,-0.116888285,0.279077083,-0.000331239,0.001482216,0.000556086,1.157956958,-0.004809221,9.730605125
1784246781.292933,0.003304520,-0.116883464,0.279087335,-0.000216161,0.001704175,0.001228282,1.121210337,-0.000725478,9.726560593
1784246781.294932,0.003301261,-0.116874218,0.279090792,-0.000166409,0.002081564,0.001827428,1.121298671,-0.031538799,9.712016106
1784246781.296935,0.003297586,-0.116871923,0.279091597,-0.000347592,0.002182604,0.001648824,1.147079587,-0.013633640,9.730986595
1784246781.298936,0.003295012,-0.116869964,0.279096603,-0.000628615,0.001879060,0.001642737,1.110864520,-0.002416890,9.731022835
1784246781.300961,0.003288545,-0.116861716,0.279101074,-0.000866986,0.001944733,0.001892573,1.095687270,0.005288995,9.745853424
1784246781.302944,0.003279492,-0.116854630,0.279102415,-0.001506518,0.002340800,0.001877206,1.116356254,0.006466982,9.731983185
1784246781.304937,0.003273767,-0.116848789,0.279100835,-0.001955672,0.002415707,0.001449656,1.121459484,0.020693982,9.738355637
1784246781.306936,0.003278110,-0.116843663,0.279102117,-0.001380015,0.002335211,0.001030562,1.147497296,0.021275528,9.735692978
1784246781.308941,0.003270908,-0.116842233,0.279107660,-0.001144029,0.002149455,0.001229707,1.131741524,0.016209325,9.720403671
1784246781.310941,0.003265322,-0.116840541,0.279109687,-0.001608510,0.001714235,0.001498463,1.155401826,0.007653716,9.746822357
1784246781.312938,0.003272325,-0.116837293,0.279110998,-0.001022515,0.001515644,0.001299238,1.163897157,0.004065723,9.732012749
1784246781.314945,0.003272897,-0.116836116,0.279112279,-0.000105661,0.001510347,0.001047349,1.117084622,0.028932419,9.721815109
1784246781.316950,0.003263366,-0.116827086,0.279106617,-0.000607982,0.001899191,0.000521194,1.121182561,-0.002971645,9.727442741
1784246781.318955,0.003260013,-0.116818458,0.279107571,-0.001349338,0.002582380,0.000157580,1.140712380,0.016068904,9.723998070
1784246781.320952,0.003265903,-0.116820715,0.279106706,-0.000741192,0.002292512,0.000088697,1.115173697,-0.018467430,9.712095261
1784246781.322953,0.003265108,-0.116825856,0.279105127,-0.000145152,0.001144845,-0.000146976,1.162897229,-0.042830899,9.712880135
1784246781.324953,0.003257907,-0.116829768,0.279105604,-0.000362582,0.000278812,-0.000157398,1.112145782,-0.008213110,9.724711418
1784246781.326952,0.003261101,-0.116827331,0.279111773,-0.000191070,0.000163347,0.000325806,1.125220895,-0.001806687,9.745387077
1784246781.328949,0.003261088,-0.116823539,0.279115707,0.000155372,0.000543496,0.000897375,1.119795561,-0.005302309,9.742669106
1784246781.330952,0.003257724,-0.116816841,0.279113442,0.000067301,0.000989414,0.000772603,1.127525210,0.001481534,9.719856262
1784246781.332963,0.003257597,-0.116814911,0.279118121,0.000001646,0.001187951,0.000735157,1.114220381,0.014235076,9.714545250
1784246781.334961,0.003261567,-0.116811328,0.279113621,0.000332207,0.001167728,0.000508991,1.110924959,0.002113598,9.723878860
1784246781.336962,0.003263953,-0.116804600,0.279115707,0.000721637,0.001476597,0.000147701,1.119132280,0.011957465,9.710948944
1784246781.338964,0.003263703,-0.116800733,0.279112637,0.000662453,0.001794413,0.000028892,1.108876348,0.017865496,9.717702866
1784246781.340964,0.003262634,-0.116798058,0.279113799,0.000379715,0.001596765,-0.000096535,1.089101672,0.013813732,9.692998886
1784246781.342967,0.003262766,-0.116791055,0.279114515,0.000229712,0.001666617,0.000066099,1.113769174,-0.021748075,9.734936714
1784246781.344966,0.003259317,-0.116784565,0.279115230,0.000142501,0.002077471,0.000150513,1.120142698,-0.013809779,9.741271019
1784246781.346972,0.003262878,-0.116782919,0.279118299,0.000327875,0.002013332,0.000336741,1.125831127,0.009593268,9.716320038
1784246781.348976,0.003263802,-0.116781473,0.279116422,0.000550628,0.001678782,0.000290424,1.090680361,-0.002504386,9.716656685
1784246781.350975,0.003265238,-0.116775379,0.279107004,0.000661483,0.001512820,-0.000591401,1.098489761,0.013016104,9.725282669
1784246781.352974,0.003264826,-0.116772033,0.279105276,0.000653163,0.001518763,-0.001215184,1.098589897,-0.014058088,9.752008438
1784246781.354977,0.003263223,-0.116767421,0.279103637,0.000464963,0.001521626,-0.001110295,1.121571183,-0.007098073,9.739970207
1784246781.356975,0.003264513,-0.116764411,0.279105604,0.000471734,0.001502723,-0.000799099,1.118589997,-0.031634662,9.730395317
1784246781.358985,0.003266912,-0.116763555,0.279109299,0.000637190,0.001359125,-0.000229880,1.109792113,-0.016349418,9.739002228
1784246781.360985,0.003270963,-0.116763540,0.279110074,0.001133793,0.000891252,0.000057002,1.136122942,0.007618318,9.723489761
1784246781.362979,0.003275534,-0.116758145,0.279109508,0.001608091,0.000857066,-0.000039002,1.120222330,-0.008723224,9.718887329
1784246781.364981,0.003273018,-0.116756700,0.279108942,0.001485000,0.000963431,-0.000145056,1.130723953,0.007976283,9.745904922
1784246781.366998,0.003275188,-0.116755970,0.279101104,0.001175996,0.000722174,-0.000693786,1.099767208,0.008808223,9.747673035
1784246781.368986,0.003277867,-0.116749525,0.279102951,0.001136403,0.001011516,-0.000946230,1.103031635,0.017848026,9.730697632
1784246781.370989,0.003276918,-0.116745785,0.279106051,0.001015145,0.001200649,-0.000372224,1.096051931,0.033294696,9.713304520
1784246781.373001,0.003280869,-0.116743565,0.279105902,0.000996355,0.001050579,-0.000099975,1.125571012,0.026084550,9.728979111
1784246781.375005,0.003288524,-0.116743334,0.279103547,0.001526089,0.000938051,-0.000334042,1.129163027,0.027677778,9.750512123
1784246781.377001,0.003290933,-0.116742425,0.279102713,0.001802630,0.000767480,-0.000541328,1.123968840,0.005438353,9.736914635
1784246781.378996,0.003290490,-0.116743952,0.279109746,0.001494808,0.000518401,0.000010182,1.126790404,0.015745118,9.731603622
1784246781.380996,0.003296749,-0.116744354,0.279115617,0.001629981,0.000222534,0.000827077,1.101866961,0.033886950,9.745595932
1784246781.382998,0.003310557,-0.116744570,0.279111296,0.002599363,0.000093027,0.000539500,1.132546902,0.010202632,9.744574547
1784246781.384998,0.003312908,-0.116749212,0.279116213,0.003084978,-0.000340703,0.000291659,1.129924774,0.015247366,9.732949257
1784246781.387004,0.003312449,-0.116758153,0.279122710,0.002562461,-0.001246397,0.000954866,1.118965507,0.034856927,9.704370499
1784246781.389006,0.003317492,-0.116760761,0.279126406,0.002256686,-0.001690448,0.001349068,1.104918122,0.024627114,9.719086647
1784246781.391003,0.003323247,-0.116754360,0.279121697,0.002371257,-0.001094632,0.000829566,1.126635790,0.041173358,9.747458458
1784246781.393013,0.003331599,-0.116754025,0.279120445,0.002638526,-0.000462363,0.000091474,1.105295539,0.021221735,9.756276131
1784246781.395007,0.003334684,-0.116751216,0.279124588,0.002774005,-0.000328870,0.000165628,1.099700689,0.037766468,9.707958221
1784246781.397008,0.003337356,-0.116756923,0.279123157,0.002488463,-0.000641681,0.000252856,1.120465159,0.050235331,9.744372368
1784246781.399006,0.003342659,-0.116760828,0.279122382,0.002332783,-0.001120010,-0.000027896,1.117002487,0.022610093,9.728948593
1784246781.401004,0.003348990,-0.116761036,0.279124558,0.002457390,-0.001148376,-0.000013637,1.105070114,0.038389906,9.736660004
1784246781.403008,0.003354645,-0.116764970,0.279127538,0.002601796,-0.001171169,0.000249549,1.101912498,0.037083089,9.737095833
1784246781.405013,0.003361585,-0.116769008,0.279126585,0.002739580,-0.001564778,0.000222607,1.091381311,0.019744841,9.736974716
1784246781.407017,0.003368162,-0.116771325,0.279126495,0.002877803,-0.001742602,-0.000012975,1.129640818,0.028307585,9.724065781
1784246781.409018,0.003373109,-0.116773956,0.279130965,0.002908192,-0.001603723,0.000195878,1.140802741,0.023671525,9.725839615
1784246781.411016,0.003382285,-0.116772048,0.279133469,0.003204096,-0.001236400,0.000494357,1.132117867,0.046737459,9.711184502
1784246781.413014,0.003391661,-0.116773821,0.279130161,0.003656621,-0.000913936,0.000152872,1.141027689,0.042873435,9.734481812
1784246781.415023,0.003402894,-0.116776824,0.279126793,0.003965648,-0.001000352,-0.000494858,1.091579795,0.036306679,9.738875389
1784246781.417023,0.003413975,-0.116778396,0.279127270,0.004335037,-0.001048300,-0.000731737,1.092444539,0.033604234,9.739306450
1784246781.419027,0.003414489,-0.116779394,0.279133141,0.003989301,-0.000936923,-0.000200442,1.114318967,0.025144760,9.755413055
1784246781.421021,0.003415530,-0.116780192,0.279136956,0.003120830,-0.000959013,0.000491927,1.128545642,0.048946939,9.721955299
1784246781.423036,0.003415966,-0.116784364,0.279140919,0.002468044,-0.001190104,0.000868718,1.143882394,0.054657638,9.710350990
1784246781.425034,0.003416691,-0.116789654,0.279137015,0.001811750,-0.001461398,0.000636895,1.131124735,0.037481677,9.691397667
1784246781.427032,0.003420681,-0.116794638,0.279140323,0.001568267,-0.001715119,0.000395867,1.151346684,0.041921593,9.723724365
1784246781.429029,0.003423527,-0.116797261,0.279146701,0.001680114,-0.001763171,0.000889419,1.143780231,0.047772873,9.733618736
1784246781.431030,0.003433247,-0.116802774,0.279145449,0.002032830,-0.001870995,0.000906008,1.119835377,0.070192404,9.711323738
1784246781.433072,0.003440735,-0.116808571,0.279148638,0.002577317,-0.002167085,0.000664612,1.097971201,0.044384886,9.725481987
1784246781.435041,0.003443906,-0.116813600,0.279156208,0.002735665,-0.002546079,0.001119282,1.119443178,0.039537098,9.738473892
1784246781.437036,0.003450097,-0.116815902,0.279157102,0.002745424,-0.002586157,0.001307238,1.160409808,0.050209761,9.739030838
1784246781.439086,0.003455073,-0.116817430,0.279159218,0.002776594,-0.002145309,0.001067730,1.149266839,0.055805340,9.728295326
1784246781.441047,0.003461354,-0.116818704,0.279159218,0.002728284,-0.001715064,0.000839591,1.167744279,0.061069168,9.710862160
1784246781.443049,0.003468805,-0.116818689,0.279163241,0.002874793,-0.001296263,0.000782581,1.156613231,0.070000418,9.735118866
1784246781.445048,0.003476993,-0.116829254,0.279167563,0.003046714,-0.001587618,0.001026659,1.139503717,0.064891055,9.728343964
1784246781.447047,0.003477758,-0.116838075,0.279161632,0.002642505,-0.002402368,0.000586507,1.151858211,0.048085552,9.738111496
1784246781.449048,0.003477904,-0.116842113,0.279154509,0.001883618,-0.002626487,-0.000454891,1.153683305,0.051137876,9.746650696
1784246781.451054,0.003476684,-0.116846725,0.279155135,0.001135064,-0.002394541,-0.000742300,1.144694090,0.048701819,9.727348328
1784246781.453047,0.003476533,-0.116849542,0.279157400,0.000643444,-0.002140027,-0.000319300,1.139799833,0.052739464,9.735440254
1784246781.455050,0.003478328,-0.116853543,0.279158771,0.000537591,-0.002029444,0.000006887,1.120485902,0.051210742,9.733170509
1784246781.457050,0.003478747,-0.116858691,0.279156029,0.000459550,-0.002108766,-0.000099366,1.138393879,0.047422525,9.729576111
1784246781.459083,0.003484916,-0.116859354,0.279150546,0.000713797,-0.001932816,-0.000680424,1.155598044,0.062193070,9.763760567
1784246781.461059,0.003484361,-0.116857208,0.279155999,0.000704406,-0.001284105,-0.000523470,1.154388666,0.072205380,9.744096756
1784246781.463098,0.003480714,-0.116858855,0.279151738,0.000045539,-0.000877489,-0.000248068,1.150292873,0.066535376,9.729709625
1784246781.465067,0.003486036,-0.116868414,0.279145867,-0.000061201,-0.001354282,-0.000863486,1.159622669,0.059603013,9.742676735
1784246781.467080,0.003486894,-0.116876483,0.279143661,0.000181530,-0.002137722,-0.001205421,1.154634237,0.055196177,9.741299629
1784246781.469068,0.003485361,-0.116877832,0.279132992,-0.000015156,-0.002198674,-0.001741100,1.142506957,0.052822623,9.718855858
1784246781.471063,0.003489996,-0.116878569,0.279125214,-0.000043744,-0.001755900,-0.002525579,1.155320883,0.072873950,9.711374283
1784246781.473087,0.003493993,-0.116875581,0.279126972,0.000406896,-0.001137311,-0.002300387,1.146250367,0.066148691,9.728358269
1784246781.475077,0.003492639,-0.116873182,0.279130936,0.000465115,-0.000400867,-0.001304789,1.142870545,0.045255590,9.711184502
1784246781.477078,0.003486406,-0.116871946,0.279132813,-0.000181069,0.000016500,-0.000491006,1.150084257,0.049894035,9.739018440
1784246781.479074,0.003482696,-0.116882615,0.279128224,-0.000823506,-0.000628128,-0.000463338,1.152391553,0.053611141,9.716179848
1784246781.481079,0.003481454,-0.116892427,0.279126763,-0.001062504,-0.001710625,-0.000698958,1.135647774,0.042977408,9.729545593
1784246781.483155,0.003481322,-0.116892762,0.279122353,-0.000993933,-0.001799751,-0.000884374,1.137177229,0.059807800,9.754313469
1784246781.485082,0.003484440,-0.116891623,0.279112250,-0.000809904,-0.001304385,-0.001629875,1.124746323,0.069121957,9.727012634
1784246781.487082,0.003478079,-0.116893016,0.279112726,-0.001057198,-0.001013725,-0.001794874,1.172567129,0.053225234,9.734129906
1784246781.489084,0.003474730,-0.116894133,0.279108256,-0.001456468,-0.000910161,-0.001500833,1.157027006,0.064857610,9.701460838
1784246781.491084,0.003477389,-0.116899006,0.279100537,-0.001276962,-0.000944020,-0.001900250,1.161617160,0.073314555,9.701071739
1784246781.493096,0.003475470,-0.116898581,0.279100001,-0.001019077,-0.000863611,-0.001937709,1.173210144,0.032159567,9.733994484
1784246781.495087,0.003473033,-0.116898946,0.279101282,-0.001010990,-0.000572980,-0.001332177,1.150540709,0.049138628,9.718389511
1784246781.497085,0.003477974,-0.116899095,0.279099345,-0.000553157,-0.000401245,-0.001034972,1.165959597,0.062388349,9.717593193
1784246781.499086,0.003479804,-0.116897874,0.279094398,-0.000001008,-0.000221730,-0.001269106,1.141662359,0.057304192,9.720228195
1784246781.501090,0.003475162,-0.116898581,0.279097915,-0.000323616,-0.000139904,-0.000989800,1.164523721,0.055212777,9.721132278
1784246781.503090,0.003472469,-0.116901971,0.279107898,-0.000745258,-0.000390689,0.000258651,1.169188976,0.071558155,9.745451927
1784246781.505094,0.003481027,-0.116906352,0.279105306,-0.000257662,-0.000758845,0.000662913,1.152783036,0.086690292,9.726256371
1784246781.507096,0.003482536,-0.116907254,0.279100627,0.000264491,-0.000860542,-0.000070347,1.149609089,0.085659757,9.750903130
1784246781.509099,0.003479820,-0.116905726,0.279097795,0.000051831,-0.000586579,-0.000549367,1.141194344,0.056347258,9.729635239
1784246781.511105,0.003478144,-0.116905138,0.279095739,-0.000409984,-0.000295023,-0.000681681,1.138265491,0.036680996,9.728161812
1784246781.513097,0.003477375,-0.116907135,0.279098779,-0.000569065,-0.000320854,-0.000400028,1.164430261,0.047991347,9.728708267
1784246781.515100,0.003479589,-0.116908669,0.279097795,-0.000359611,-0.000343402,-0.000158247,1.170278430,0.049654398,9.736346245
1784246781.517113,0.003480889,-0.116903529,0.279097646,-0.000092722,0.000126357,-0.000213896,1.139527559,0.029112000,9.719146729
1784246781.519111,0.003478015,-0.116900273,0.279105216,-0.000114580,0.000665131,0.000360078,1.171625376,0.048023365,9.711230278
1784246781.521105,0.003472420,-0.116899207,0.279108107,-0.000640104,0.000809467,0.001046796,1.153594494,0.042331271,9.725075722
1784246781.523104,0.003468618,-0.116898179,0.279100895,-0.001203103,0.000760653,0.000553070,1.141427040,0.075206123,9.723481178
1784246781.525109,0.003468386,-0.116895698,0.279098630,-0.001394207,0.000833049,-0.000184743,1.147477031,0.054652970,9.704524994
1784246781.527111,0.003468309,-0.116894744,0.279096097,-0.001244848,0.000880907,-0.000432972,1.128364325,0.034952044,9.737107277
1784246781.529107,0.003463722,-0.116893999,0.279090971,-0.001281996,0.000756458,-0.000795442,1.142972827,0.055383805,9.735908508
1784246781.531113,0.003457206,-0.116893485,0.279097944,-0.001799282,0.000630770,-0.000356451,1.159954309,0.049351390,9.734539986
1784246781.533115,0.003450564,-0.116890460,0.279105633,-0.002212652,0.000696171,0.000848705,1.146499395,0.049571570,9.727805138
1784246781.535116,0.003446265,-0.116889030,0.279103220,-0.002457595,0.000783192,0.001077091,1.160918832,0.055948015,9.750275612
1784246781.537116,0.003444289,-0.116891459,0.279098332,-0.002421047,0.000471708,0.000357183,1.154878616,0.038987514,9.751955032
1784246781.539115,0.003444196,-0.116887100,0.279098570,-0.001940209,0.000473114,-0.000038907,1.111755371,0.034704074,9.738884926
1784246781.541121,0.003437967,-0.116882399,0.279094845,-0.001858255,0.000764356,-0.000217953,1.137347221,0.036123708,9.745194435
1784246781.543123,0.003427792,-0.116886929,0.279093266,-0.002492108,0.000372250,-0.000388958,1.153537035,0.038229667,9.734912872
1784246781.545128,0.003418645,-0.116889887,0.279097974,-0.003120934,-0.000185235,0.000080397,1.143356800,0.050409157,9.741703987
1784246781.547132,0.003412638,-0.116884723,0.279102802,-0.003247341,0.000068602,0.000823660,1.162180781,0.048782472,9.747541428
1784246781.549128,0.003411066,-0.116886586,0.279092342,-0.002920803,0.000273646,0.000282788,1.133250713,0.029230645,9.713763237
1784246781.551129,0.003404110,-0.116883598,0.279085457,-0.002791439,0.000249066,-0.000906652,1.150266409,0.024278564,9.686398506
1784246781.553128,0.003396425,-0.116884224,0.279090345,-0.002988098,0.000317652,-0.000690019,1.137337089,0.033207379,9.714241028
1784246781.555130,0.003388383,-0.116888627,0.279093027,-0.003211135,-0.000175594,0.000132560,1.170885205,0.025465718,9.734398842
1784246781.557144,0.003390253,-0.116890609,0.279089630,-0.002794530,-0.000627285,0.000100392,1.143757582,0.009598223,9.746375084
1784246781.559139,0.003390581,-0.116887562,0.279090673,-0.001905829,-0.000385565,-0.000099450,1.135164618,0.003906224,9.743192673
1784246781.561135,0.003382426,-0.116885424,0.279095173,-0.001781423,0.000044500,0.000351261,1.139723182,0.009681757,9.741889000
1784246781.563134,0.003378216,-0.116883963,0.279098153,-0.001981625,0.000251943,0.000841014,1.134553432,0.026439775,9.725852013
1784246781.565309,0.003373908,-0.116875403,0.279095441,-0.001995216,0.000818718,0.000694869,1.160880327,0.049969088,9.708992004
1784246781.567212,0.003372847,-0.116868354,0.279094994,-0.001819621,0.001609140,0.000338076,1.125229716,0.036663301,9.754153252
1784246781.569181,0.003371653,-0.116866119,0.279097468,-0.001461547,0.001802498,0.000401324,1.151830435,0.045839388,9.738994598
1784246781.571216,0.003376276,-0.116864942,0.279099107,-0.000770906,0.001578184,0.000536307,1.142931581,0.052222647,9.739475250
1784246781.573181,0.003377967,-0.116864361,0.279106498,-0.000034657,0.001302384,0.000941266,1.139913559,0.025369937,9.740644455
1784246781.575163,0.003370751,-0.116861187,0.279100001,-0.000345977,0.001203369,0.000784200,1.149946809,-0.000534181,9.710898399
1784246781.577157,0.003361019,-0.116860934,0.279097408,-0.001421498,0.001107933,0.000090642,1.098224282,0.028246166,9.726275444
1784246781.579160,0.003356493,-0.116859667,0.279096246,-0.002026402,0.000908386,-0.000072063,1.153063059,-0.000768387,9.738247871
1784246781.581211,0.003348208,-0.116857812,0.279087365,-0.002319984,0.000890193,-0.000640945,1.117078662,0.030911500,9.758591652
1784246781.583173,0.003343425,-0.116856597,0.279088348,-0.002534202,0.000876057,-0.000910961,1.127427697,0.030601574,9.720490456
1784246781.585166,0.003342508,-0.116863281,0.279086560,-0.002191707,0.000245755,-0.000677083,1.134901524,0.017535225,9.717276573
1784246781.587170,0.003336699,-0.116868578,0.279079884,-0.002072417,-0.000658890,-0.001014845,1.148789763,0.017185297,9.741497040
1784246781.589174,0.003329381,-0.116871007,0.279077083,-0.002470299,-0.001006590,-0.001277989,1.113364100,0.019434508,9.741028786
1784246781.591196,0.003325123,-0.116869725,0.279077560,-0.002593889,-0.000832575,-0.000997694,1.103956938,0.020892769,9.741926193
1784246781.593176,0.003315156,-0.116867915,0.279077083,-0.002843952,-0.000417202,-0.000611631,1.134906054,0.019190345,9.736565590
1784246781.595178,0.003313390,-0.116863810,0.279076129,-0.002825190,0.000045995,-0.000455536,1.130876422,0.020528739,9.744639397
1784246781.597173,0.003310941,-0.116856270,0.279080600,-0.002265505,0.000771864,-0.000068014,1.100108147,-0.000153562,9.747167587
1784246781.599172,0.003304036,-0.116852567,0.279074907,-0.002290838,0.001324981,-0.000057038,1.127849698,-0.007203997,9.743562698
1784246781.601173,0.003295870,-0.116849825,0.279064238,-0.002690861,0.001342141,-0.001044647,1.126535296,-0.004505344,9.744475365
1784246781.603179,0.003294181,-0.116848402,0.279068530,-0.002551449,0.001202128,-0.001132461,1.100373030,0.021389896,9.741477966
1784246781.605174,0.003293838,-0.116839737,0.279065818,-0.001941721,0.001379651,-0.000706670,1.130636334,0.000395924,9.740923882
1784246781.607193,0.003297243,-0.116838016,0.279063463,-0.001206904,0.001526830,-0.000883322,1.115464568,0.006523000,9.725705147
1784246781.609192,0.003293542,-0.116833664,0.279069126,-0.000873075,0.001524573,-0.000417232,1.133831859,0.004435019,9.734228134
1784246781.611189,0.003285544,-0.116827101,0.279069185,-0.001242026,0.001816078,0.000157644,1.134674072,0.001554515,9.759764671
1784246781.613180,0.003287070,-0.116824836,0.279066861,-0.001221705,0.001884867,-0.000001564,1.101093888,0.005394891,9.721200943
1784246781.615192,0.003281171,-0.116818376,0.279067844,-0.001118195,0.001789698,-0.000064058,1.119727135,-0.012733229,9.716619492
1784246781.617191,0.003273765,-0.116821028,0.279061258,-0.001678748,0.001386570,-0.000329076,1.131639123,0.008511317,9.732009888
1784246781.619195,0.003273079,-0.116821945,0.279059172,-0.001836941,0.000767652,-0.000758226,1.108529925,-0.008780421,9.748017311
1784246781.621188,0.003267369,-0.116812497,0.279055566,-0.001637819,0.000996362,-0.000904106,1.114847302,-0.008174480,9.714402199
1784246781.623189,0.003255822,-0.116806664,0.279055238,-0.002211537,0.001619487,-0.000810407,1.138747692,0.001782581,9.720316887
1784246781.625192,0.003253913,-0.116804771,0.279057413,-0.002453893,0.001673227,-0.000365010,1.138782740,0.005706128,9.735585213
1784246781.627215,0.003255301,-0.116804913,0.279058307,-0.001748805,0.001306998,-0.000059453,1.131887674,-0.009285693,9.713963509
1784246781.629197,0.003253937,-0.116803177,0.279059976,-0.001252954,0.001058617,0.000127113,1.132019639,0.002697975,9.729730606
1784246781.631232,0.003256763,-0.116798863,0.279060692,-0.000689069,0.001217694,0.000229137,1.118896008,-0.006523408,9.726968765
1784246781.633201,0.003262353,-0.116795629,0.279062629,0.000193034,0.001436714,0.000268681,1.136278510,0.020193014,9.719087601
1784246781.635203,0.003266823,-0.116798408,0.279062063,0.000847695,0.001020718,0.000204041,1.104306698,0.012000924,9.731557846
1784246781.637210,0.003263623,-0.116797745,0.279063195,0.000725998,0.000544021,0.000173085,1.099068880,-0.013015294,9.730496407
1784246781.639206,0.003259045,-0.116796248,0.279064745,0.000025828,0.000544004,0.000368119,1.096697092,0.013054999,9.723038673
1784246781.641201,0.003261535,-0.116790399,0.279062152,-0.000029374,0.000738960,0.000205127,1.103353977,0.007929901,9.738703728
1784246781.643209,0.003267961,-0.116788752,0.279063702,0.000672077,0.000891540,-0.000002632,1.108646393,0.001055647,9.750769615
1784246781.645208,0.003267964,-0.116791561,0.279069066,0.001049521,0.000478725,0.000402492,1.116300583,0.002784734,9.745857239
1784246781.647213,0.003270544,-0.116797782,0.279063880,0.001012286,-0.000356070,0.000278957,1.116472721,0.015896430,9.728904724
1784246781.649214,0.003271386,-0.116796069,0.279065013,0.000935907,-0.000565925,-0.000097725,1.109781623,0.019941173,9.739235878
1784246781.651213,0.003271373,-0.116787717,0.279071480,0.000834058,0.000194786,0.000427163,1.102886319,0.008189651,9.766053200
1784246781.653217,0.003278179,-0.116787367,0.279071897,0.001156850,0.000655233,0.000719388,1.115458846,0.006478489,9.731981277
1784246781.655211,0.003284917,-0.116790868,0.279064775,0.001783317,0.000182458,-0.000046409,1.142661572,-0.006952122,9.744475365
1784246781.657216,0.003284443,-0.116787285,0.279063582,0.001735940,0.000059801,-0.000658003,1.131692052,0.012981385,9.733384132
1784246781.659215,0.003282758,-0.116789497,0.279062986,0.001105303,0.000135658,-0.000580068,1.110879540,-0.001485988,9.726099014
1784246781.661223,0.003279958,-0.116790824,0.279064417,0.000658855,-0.000242308,-0.000345167,1.115214586,-0.014092756,9.726918221
1784246781.663220,0.003285151,-0.116791047,0.279067099,0.000822934,-0.000379931,-0.000010034,1.129320860,0.002681595,9.736902237
1784246781.665224,0.003285742,-0.116787449,0.279069006,0.001055184,-0.000085532,0.000254537,1.128718734,0.029745266,9.775631905
1784246781.667240,0.003291250,-0.116788149,0.279069066,0.001224420,0.000094044,0.000266562,1.149902225,-0.002100637,9.742271423
1784246781.669228,0.003296365,-0.116792291,0.279065222,0.001578473,-0.000261058,-0.000142210,1.123992443,0.006432840,9.723021507
1784246781.671232,0.003303272,-0.116791509,0.279073626,0.002088789,-0.000471790,0.000102226,1.107623339,0.025911065,9.722682953
1784246781.673245,0.003305772,-0.116788536,0.279078960,0.002355816,-0.000142073,0.000914634,1.112694025,0.000670405,9.734632492
1784246781.675238,0.003300477,-0.116783619,0.279076576,0.001650625,0.000363687,0.000874702,1.113684893,0.007476892,9.720778465
1784246781.677237,0.003300853,-0.116787449,0.279074371,0.000934130,0.000269324,0.000355313,1.098579288,0.018989041,9.704249382
1784246781.679237,0.003300987,-0.116791062,0.279076427,0.000713411,-0.000308304,0.000245363,1.121299505,0.043647502,9.724155426
1784246781.681237,0.003303924,-0.116792940,0.279082596,0.000804816,-0.000699140,0.000707388,1.128055453,0.047005046,9.743910789
1784246781.683239,0.003308676,-0.116793193,0.279088944,0.001216838,-0.000755145,0.001298517,1.138048530,0.019569451,9.740605354
1784246781.685235,0.003312693,-0.116791531,0.279089183,0.001557073,-0.000523842,0.001315536,1.107390881,0.043835260,9.722798347
1784246781.687240,0.003312217,-0.116793469,0.279085308,0.001371225,-0.000472673,0.000676727,1.120189428,0.063359134,9.726522446
1784246781.689239,0.003311410,-0.116798118,0.279086143,0.000888213,-0.000792186,0.000299080,1.119004846,0.039625511,9.726818085
1784246781.691241,0.003312310,-0.116797797,0.279086113,0.000645382,-0.000919677,0.000277453,1.118549585,0.039983835,9.740270615
1784246781.693240,0.003312863,-0.116793871,0.279078633,0.000494189,-0.000433315,-0.000312692,1.123191953,0.017341299,9.765684128
1784246781.695249,0.003320416,-0.116798006,0.279082596,0.000868353,-0.000391541,-0.000526957,1.152261615,0.006483630,9.727982521
1784246781.697251,0.003331837,-0.116800085,0.279080093,0.001913443,-0.000766970,-0.000431355,1.125697732,0.036810182,9.732633591
1784246781.699256,0.003333719,-0.116799921,0.279074639,0.002227933,-0.000690011,-0.000956177,1.132580519,0.050489910,9.749765396
1784246781.701257,0.003335848,-0.116795950,0.279073447,0.001791609,-0.000267783,-0.001175055,1.136044502,0.038104497,9.720996857
1784246781.703255,0.003344108,-0.116795033,0.279066324,0.001890552,0.000090305,-0.001496028,1.130058408,0.025623607,9.722702980
1784246781.705252,0.003346526,-0.116796814,0.279064655,0.002030746,-0.000045327,-0.001768058,1.143231988,0.038482729,9.717865944
1784246781.707266,0.003344887,-0.116802707,0.279061109,0.001494250,-0.000607219,-0.001644891,1.140807509,0.060082946,9.709035873
1784246781.709257,0.003353479,-0.116803490,0.279064506,0.001556071,-0.000897208,-0.001264953,1.149491906,0.039444052,9.760470390
1784246781.711265,0.003358737,-0.116803333,0.279063165,0.002057162,-0.000717951,-0.000895012,1.148113370,0.035153389,9.736232758
1784246781.713262,0.003362986,-0.116805859,0.279060096,0.002078285,-0.000707214,-0.001023868,1.131921768,0.030194689,9.706593513
1784246781.715264,0.003371571,-0.116800874,0.279056430,0.002296488,-0.000376487,-0.001296135,1.121889472,0.058535382,9.771774292
1784246781.717273,0.003380904,-0.116802372,0.279051334,0.002782089,-0.000065974,-0.001674090,1.111789107,0.037808012,9.743387222
1784246781.719308,0.003382422,-0.116808087,0.279050559,0.002711810,-0.000538714,-0.001701269,1.132052660,0.042575441,9.729537964
1784246781.721279,0.003383696,-0.116808221,0.279051214,0.002062672,-0.000897529,-0.001252752,1.159756541,0.033605970,9.743854523
1784246781.723313,0.003384708,-0.116808616,0.279050708,0.001557477,-0.000798701,-0.000906005,1.153597116,0.043973669,9.746156693
1784246781.725290,0.003383899,-0.116809040,0.279056400,0.001153635,-0.000620427,-0.000309883,1.105570436,0.042844687,9.739378929
1784246781.727281,0.003387779,-0.116806082,0.279061377,0.001096181,-0.000261222,0.000469023,1.162796736,0.025070367,9.741560936
1784246781.729290,0.003392032,-0.116809182,0.279060453,0.001378782,-0.000198047,0.000548459,1.162783861,0.060531814,9.732374191
1784246781.731286,0.003397917,-0.116816252,0.279053688,0.001597822,-0.000777269,-0.000191415,1.143899202,0.057628021,9.733681679
1784246781.733315,0.003407668,-0.116817519,0.279051781,0.002120601,-0.001076483,-0.000837456,1.124978423,0.051601212,9.733175278
1784246781.735285,0.003416460,-0.116812021,0.279050261,0.002671171,-0.000578312,-0.000978897,1.114295244,0.057683513,9.716170311
1784246781.737288,0.003420511,-0.116814353,0.279053271,0.002727057,-0.000285998,-0.000703790,1.116505027,0.055767536,9.729608536
1784246781.739288,0.003423385,-0.116815135,0.279061824,0.002545377,-0.000417063,0.000216426,1.119145632,0.051679127,9.732724190
1784246781.741282,0.003430971,-0.116813131,0.279066026,0.002631796,-0.000335242,0.000942284,1.113485336,0.065275379,9.721149445
1784246781.743289,0.003437610,-0.116812780,0.279065728,0.002877844,-0.000201739,0.000839953,1.120637655,0.063350216,9.726970673
1784246781.745294,0.003435587,-0.116820171,0.279069126,0.002309317,-0.000690615,0.000797056,1.131137133,0.041633785,9.737602234
1784246781.747295,0.003437211,-0.116826721,0.279071897,0.001582126,-0.001512909,0.001015436,1.165831566,0.054083385,9.751613617
1784246781.749294,0.003445314,-0.116831429,0.279070020,0.001815522,-0.001865414,0.000725815,1.143180013,0.072419055,9.734223366
1784246781.751296,0.003453755,-0.116828933,0.279073477,0.002353959,-0.001496211,0.000518902,1.147207379,0.070254683,9.716281891
1784246781.753293,0.003458320,-0.116825156,0.279075086,0.002534882,-0.000650547,0.000623771,1.120210886,0.029181162,9.744236946
1784246781.755314,0.003457762,-0.116823345,0.279074788,0.002159380,-0.000171795,0.000500026,1.148440719,0.063673459,9.757487297
1784246781.757311,0.003456549,-0.116822228,0.279081792,0.001539375,-0.000001831,0.000823524,1.144782662,0.055885088,9.725153923
1784246781.759309,0.003459573,-0.116820261,0.279082626,0.001305506,0.000209300,0.001114176,1.179952621,0.068945445,9.715407372
1784246781.761312,0.003466601,-0.116822653,0.279084414,0.001460934,0.000308031,0.000928984,1.145477176,0.076866731,9.734703064
1784246781.763316,0.003466847,-0.116822556,0.279088110,0.001409563,0.000254407,0.001009735,1.130962014,0.064466469,9.740438461
1784246781.765306,0.003465262,-0.116823114,0.279095799,0.000827072,0.000074350,0.001536256,1.134756327,0.081436642,9.741447449
1784246781.767317,0.003459674,-0.116825625,0.279100895,0.000020772,-0.000233579,0.002062644,1.134249449,0.076930977,9.745901108
1784246781.769308,0.003459864,-0.116828188,0.279104829,-0.000277229,-0.000513247,0.002157434,1.136888504,0.071613163,9.732869148
1784246781.771316,0.003468112,-0.116828009,0.279108793,0.000212532,-0.000597614,0.002065809,1.160601377,0.065500848,9.730610847
1784246781.773336,0.003472890,-0.116827354,0.279106081,0.000825939,-0.000442862,0.001513276,1.151678920,0.069669753,9.727490425
1784246781.775317,0.003474607,-0.116825841,0.279107243,0.000895432,-0.000145180,0.000966777,1.154277086,0.062814087,9.741795540
1784246781.777315,0.003474246,-0.116824441,0.279111683,0.000656114,0.000125591,0.001092000,1.145432711,0.071653374,9.711805344
1784246781.779323,0.003471209,-0.116827451,0.279113382,0.000297147,-0.000017480,0.001235189,1.149243951,0.054003954,9.729629517
1784246781.781318,0.003466579,-0.116833434,0.279108226,-0.000438640,-0.000634916,0.000740179,1.149327517,0.059525758,9.709041595
1784246781.783328,0.003467846,-0.116838828,0.279102892,-0.000740160,-0.001246134,-0.000126408,1.149111748,0.079607099,9.720827103
1784246781.785318,0.003472506,-0.116839543,0.279101402,-0.000413383,-0.001284417,-0.000574055,1.131837845,0.062663123,9.740427971
1784246781.787323,0.003477596,-0.116840303,0.279104859,0.000152263,-0.000995284,-0.000338267,1.181339145,0.072489612,9.718570709
1784246781.789335,0.003474529,-0.116842076,0.279111415,0.000326740,-0.000893629,0.000410174,1.157464027,0.066379793,9.738682747
1784246781.791335,0.003471576,-0.116843879,0.279115796,-0.000251399,-0.000794857,0.001098838,1.124952793,0.085747406,9.719944954
1784246781.793330,0.003469952,-0.116840251,0.279115289,-0.000631338,-0.000360374,0.001115208,1.142109871,0.057288911,9.721571922
1784246781.795340,0.003470056,-0.116838127,0.279116690,-0.000634415,0.000134621,0.000893890,1.161866665,0.058360741,9.724288940
1784246781.797343,0.003470507,-0.116837174,0.279114276,-0.000511703,0.000314766,0.000587440,1.149710774,0.055761434,9.733675003
1784246781.799361,0.003470524,-0.116836958,0.279106379,-0.000422348,0.000305880,-0.000268400,1.157793999,0.054898746,9.714399338
1784246781.801338,0.003476240,-0.116839804,0.279102206,-0.000141123,0.000189966,-0.001036551,1.158714890,0.056694996,9.712170601
1784246781.803335,0.003473519,-0.116839424,0.279106081,-0.000028409,0.000119535,-0.000783878,1.144376040,0.060275063,9.738631248
1784246781.805335,0.003469485,-0.116834998,0.279105663,-0.000576151,0.000415011,-0.000273944,1.152522087,0.062745243,9.691579819
1784246781.807346,0.003472804,-0.116832316,0.279110789,-0.000557682,0.000787533,0.000135180,1.135614872,0.076659739,9.718552589
1784246781.809348,0.003469539,-0.116828725,0.279112756,-0.000346287,0.001001893,0.000577634,1.149722338,0.056663718,9.732784271
1784246781.811340,0.003463383,-0.116826527,0.279110163,-0.001005205,0.001133476,0.000465285,1.170336604,0.054572437,9.737722397
1784246781.813345,0.003456129,-0.116828673,0.279106796,-0.001796075,0.000838694,0.000055837,1.157954931,0.031548142,9.721424103
1784246781.815346,0.003449396,-0.116823629,0.279103547,-0.002279349,0.000839270,-0.000295250,1.160079598,0.061687622,9.763761520
1784246781.817350,0.003448474,-0.116822690,0.279103637,-0.002177522,0.001049678,-0.000368603,1.150863290,0.074380249,9.696584702
1784246781.819355,0.003444077,-0.116818801,0.279103845,-0.001942318,0.001091900,-0.000205782,1.123651028,0.052171342,9.718383789
1784246781.821356,0.003440324,-0.116816193,0.279098153,-0.002059180,0.001145979,-0.000448533,1.122205138,0.044106219,9.721021652
1784246781.823358,0.003439843,-0.116819754,0.279096335,-0.001896270,0.000679719,-0.000790263,1.128871083,0.042294540,9.774814606
1784246781.825363,0.003444639,-0.116817996,0.279093415,-0.001144880,0.000350566,-0.000929836,1.148871899,0.061504226,9.746713638
1784246781.827363,0.003440895,-0.116814904,0.279092610,-0.000809797,0.000562498,-0.000939075,1.135325193,0.052895542,9.721538544
1784246781.829360,0.003434926,-0.116813928,0.279094517,-0.001236015,0.000685572,-0.000531853,1.126592994,0.036376152,9.729044914
1784246781.831387,0.003426194,-0.116810709,0.279096663,-0.001873283,0.000705319,-0.000001431,1.143204212,0.073826529,9.725266457
1784246781.833401,0.003419259,-0.116806224,0.279091269,-0.002460374,0.000958006,-0.000101291,1.151462317,0.052154757,9.733654976
1784246781.835378,0.003409792,-0.116807975,0.279081434,-0.003069481,0.000914923,-0.000969871,1.149442315,0.033785902,9.737121582
1784246781.837373,0.003402726,-0.116815977,0.279080510,-0.003486950,0.000035410,-0.001300426,1.153585196,0.003858102,9.716757774
1784246781.839370,0.003395163,-0.116814971,0.279080033,-0.003537684,-0.000449809,-0.000926201,1.160241485,-0.000866727,9.739151001
1784246781.841377,0.003388413,-0.116808012,0.279080749,-0.003436609,0.000274624,-0.000557098,1.156106234,0.028714864,9.745163918
1784246781.843367,0.003381292,-0.116806962,0.279076606,-0.003362369,0.000803909,-0.000540926,1.152853131,0.018143944,9.725367546
1784246781.845371,0.003368192,-0.116802834,0.279073536,-0.003816175,0.000998189,-0.000729587,1.144470215,0.029102819,9.711529732
1784246781.847375,0.003356909,-0.116798855,0.279070884,-0.004416117,0.001339841,-0.000739976,1.158507943,0.040876452,9.731795311
1784246781.849380,0.003353967,-0.116793625,0.279068083,-0.004220067,0.001600235,-0.000800629,1.135450602,0.026831724,9.732131958
1784246781.851381,0.003354269,-0.116789214,0.279071778,-0.003264306,0.001797061,-0.000500498,1.140805602,0.024503851,9.734811783
1784246781.853381,0.003349996,-0.116781332,0.279069096,-0.002656535,0.002121282,-0.000262938,1.129575372,0.024142386,9.742868423
1784246781.855380,0.003336768,-0.116771646,0.279061943,-0.003166762,0.002713607,-0.000721221,1.152548075,0.030225564,9.728134155
1784246781.857384,0.003329107,-0.116763957,0.279056191,-0.003791328,0.003130945,-0.001236074,1.141021013,0.004825974,9.729305267
1784246781.859392,0.003329751,-0.116761975,0.279056758,-0.003276297,0.002935987,-0.001197186,1.138384342,0.011376386,9.758038521
1784246781.861387,0.003326868,-0.116761029,0.279060185,-0.002437108,0.002353437,-0.000592916,1.126682878,0.007602326,9.742759705
1784246781.863385,0.003325857,-0.116760314,0.279056519,-0.001970725,0.001842282,-0.000424202,1.124662519,0.023576805,9.705199242
1784246781.865389,0.003319286,-0.116756350,0.279049903,-0.001972136,0.001549572,-0.000951259,1.142455578,0.012395446,9.733390808
1784246781.867419,0.003310989,-0.116748989,0.279049456,-0.002439004,0.001789679,-0.001062652,1.129622340,0.028971389,9.756796837
1784246781.869405,0.003310228,-0.116745614,0.279043972,-0.002434912,0.002032659,-0.001106771,1.139434695,0.023110446,9.744215012
1784246781.871400,0.003309481,-0.116742000,0.279041350,-0.001964900,0.001881865,-0.001338565,1.131523371,-0.001318386,9.728360176
1784246781.873413,0.003305305,-0.116737880,0.279044211,-0.001786063,0.001824121,-0.000911685,1.132591844,-0.023384303,9.742117882
1784246781.875401,0.003293734,-0.116732799,0.279047519,-0.002089993,0.001855967,-0.000149689,1.134343028,0.009379105,9.731122017
1784246781.877407,0.003291309,-0.116728485,0.279056013,-0.002149364,0.001893205,0.000766788,1.108013391,0.020174043,9.709646225
1784246781.879401,0.003294686,-0.116727069,0.279056013,-0.001434105,0.001770043,0.001127920,1.139271975,0.009668431,9.744577408
1784246781.881408,0.003298128,-0.116722651,0.279055327,-0.000586792,0.001608902,0.000723203,1.143038273,-0.013200711,9.740400314
1784246781.883401,0.003299797,-0.116718255,0.279052019,-0.000111503,0.001692362,0.000212644,1.113410354,-0.014549512,9.731396675
1784246781.885405,0.003299486,-0.116713963,0.279041797,0.000073156,0.001722780,-0.000791533,1.120659947,0.027961886,9.725848198
1784246781.887409,0.003295582,-0.116715722,0.279046386,-0.000105546,0.001330794,-0.000948212,1.104149818,-0.001393388,9.725194931
1784246781.889408,0.003294818,-0.116713278,0.279054224,-0.000293158,0.001020220,0.000182993,1.129772782,0.002294657,9.727483749
1784246781.891406,0.003292043,-0.116704106,0.279061586,-0.000206448,0.001420537,0.001173377,1.133065343,0.013583804,9.709178925
1784246781.893406,0.003286433,-0.116699651,0.279060870,-0.000538359,0.001845739,0.001353423,1.133039117,0.011350356,9.708268166
1784246781.895408,0.003280694,-0.116700634,0.279054940,-0.001092045,0.001552198,0.000614241,1.133056998,0.012706959,9.706483841
1784246781.897416,0.003283844,-0.116697103,0.279057115,-0.000881593,0.001276965,0.000202751,1.095921516,0.022943893,9.719964027
1784246781.899413,0.003284302,-0.116692238,0.279059470,-0.000363274,0.001501297,0.000429434,1.124846220,0.002431026,9.717169762
1784246781.901421,0.003277954,-0.116691910,0.279063046,-0.000585813,0.001382208,0.000754509,1.115228534,-0.012361318,9.735446930
1784246781.903420,0.003274886,-0.116692841,0.279067397,-0.000969561,0.000900864,0.001151238,1.083338022,-0.013830819,9.747512817
1784246781.905418,0.003265769,-0.116689950,0.279065847,-0.001284648,0.000534698,0.001097124,1.096557617,0.002227621,9.733729362
1784246781.907427,0.003265886,-0.116689801,0.279063940,-0.001349608,0.000340941,0.000607076,1.126840591,-0.016990408,9.735427856
1784246781.909424,0.003264765,-0.116690680,0.279061019,-0.001089280,0.000197249,0.000124193,1.132758617,-0.011937263,9.707221985
1784246781.911420,0.003259968,-0.116689451,0.279058069,-0.001026060,0.000094267,-0.000281928,1.133095145,-0.019717334,9.729589462
1784246781.913427,0.003256359,-0.116694078,0.279059917,-0.001110115,-0.000233444,-0.000236414,1.142218947,-0.006898678,9.737750053
1784246781.915428,0.003251857,-0.116695099,0.279063970,-0.001119409,-0.000583611,0.000265551,1.128408790,0.002172000,9.747209549
1784246781.917432,0.003250164,-0.116688870,0.279064238,-0.001009409,-0.000101221,0.000509160,1.138824821,0.009280275,9.736952782
1784246781.919434,0.003247092,-0.116688997,0.279066473,-0.001036516,0.000342013,0.000578657,1.117755175,0.011729888,9.745467186
1784246781.921432,0.003250784,-0.116692729,0.279061258,-0.000684567,-0.000164521,0.000210062,1.105566859,0.004416031,9.724785805
1784246781.923431,0.003251211,-0.116692334,0.279061228,-0.000210399,-0.000498768,-0.000238433,1.109263897,-0.022240296,9.749277115
1784246781.925433,0.003250015,-0.116689608,0.279072911,0.000101546,-0.000245008,0.000592875,1.105012894,-0.003298481,9.739529610
1784246781.927434,0.003253815,-0.116698310,0.279077530,0.000592661,-0.000676735,0.001484288,1.107121468,-0.015333150,9.726902008
1784246781.929439,0.003253386,-0.116704002,0.279077351,0.000693925,-0.001469696,0.001354372,1.120934725,0.013615027,9.726653099
1784246781.931435,0.003252716,-0.116702452,0.279075772,0.000503308,-0.001502098,0.000865208,1.136680245,0.016574966,9.723100662
1784246781.933443,0.003250086,-0.116703644,0.279076427,0.000222951,-0.001218632,0.000582550,1.096624017,0.008019316,9.738249779
1784246781.935448,0.003249817,-0.116704747,0.279075682,0.000106640,-0.001229400,0.000429721,1.099548101,-0.012779393,9.696424484
1784246781.937466,0.003254900,-0.116704136,0.279074907,0.000529884,-0.001115730,0.000157405,1.134871721,0.014056465,9.702459335
1784246781.939447,0.003259136,-0.116705135,0.279078811,0.001038534,-0.000838862,0.000249254,1.132199168,0.018300299,9.740591049
1784246781.941447,0.003268179,-0.116707645,0.279081672,0.001731844,-0.000839967,0.000532170,1.143880010,0.018265290,9.724462509
1784246781.943446,0.003279321,-0.116708979,0.279086113,0.002706823,-0.000863727,0.000720838,1.117567182,-0.004749293,9.731911659
1784246781.945487,0.003275793,-0.116704658,0.279087245,0.002643659,-0.000512490,0.000823002,1.122754574,0.016222563,9.734741211
1784246781.947463,0.003272733,-0.116699740,0.279087603,0.001608155,0.000169029,0.000735760,1.116422653,0.012665307,9.742333412
1784246781.949458,0.003275353,-0.116696700,0.279085159,0.001125642,0.000664239,0.000401853,1.106091261,0.010681740,9.724825859
1784246781.951462,0.003275482,-0.116701744,0.279084504,0.001091637,0.000266268,0.000046572,1.093130112,0.015305821,9.727982521
1784246781.953464,0.003275134,-0.116704516,0.279081702,0.000863703,-0.000417441,-0.000214763,1.111512184,0.013332312,9.720365524
1784246781.955456,0.003275311,-0.116706103,0.279077202,0.000646558,-0.000679425,-0.000656635,1.142888665,0.009835471,9.714545250
1784246781.957465,0.003275925,-0.116709948,0.279077500,0.000577510,-0.000944453,-0.000780235,1.120407701,0.008140317,9.741411209
1784246781.959460,0.003277080,-0.116712011,0.279082328,0.000580511,-0.001087974,-0.000238102,1.099842548,0.013859796,9.730221748
1784246781.961464,0.003278103,-0.116711028,0.279088318,0.000710485,-0.000998237,0.000537210,1.127805591,0.025579222,9.733014107
1784246781.963466,0.003287370,-0.116715230,0.279087991,0.001310830,-0.001079765,0.000686809,1.137099743,0.014716960,9.731606483
1784246781.965473,0.003296647,-0.116719380,0.279080570,0.002271895,-0.001408815,-0.000179677,1.134257317,0.002218078,9.730179787
1784246781.967476,0.003304321,-0.116725437,0.279082149,0.002879911,-0.001774411,-0.000667336,1.115325212,0.031665444,9.718692780
1784246781.969471,0.003312956,-0.116726503,0.279087454,0.003251368,-0.001775297,-0.000154738,1.120412707,0.044958364,9.730440140
1784246781.971469,0.003321610,-0.116729416,0.279093117,0.003576921,-0.001652200,0.000490238,1.118349671,0.023412459,9.739714622
1784246781.973485,0.003327849,-0.116737045,0.279095292,0.003628851,-0.002009402,0.000776794,1.128140211,0.014946414,9.715459824
1784246781.975494,0.003336511,-0.116743803,0.279094726,0.003719817,-0.002465527,0.000551296,1.149894953,0.032188624,9.708865166
1784246781.977487,0.003340892,-0.116743706,0.279093027,0.003629631,-0.002272596,0.000136976,1.131386042,0.023839954,9.719105721
1784246781.979482,0.003341951,-0.116739094,0.279097050,0.003029216,-0.001336640,0.000217818,1.116391420,0.007960308,9.710920334
1784246781.981483,0.003341413,-0.116738342,0.279102623,0.002517116,-0.000765095,0.000781429,1.113121271,0.034439187,9.710639000
1784246781.983538,0.003345656,-0.116739556,0.279101998,0.002321386,-0.000744522,0.000847105,1.117292523,0.045567401,9.713403702
1784246781.985485,0.003350445,-0.116738051,0.279098660,0.002234512,-0.000726370,0.000281294,1.122471929,0.026858918,9.688631058
1784246781.987489,0.003355901,-0.116742715,0.279096544,0.002241270,-0.000947226,-0.000240397,1.148894668,0.061278835,9.715328217
1784246781.989496,0.003357528,-0.116743155,0.279099852,0.002119289,-0.001037630,-0.000150905,1.140594721,0.045029968,9.747048378
1784246781.991491,0.003367313,-0.116740689,0.279106051,0.002396212,-0.000606665,0.000441141,1.129805684,0.043792266,9.751513481
1784246781.993496,0.003375922,-0.116742224,0.279106975,0.003049672,-0.000368251,0.000656115,1.122309446,0.016660377,9.736984253
1784246781.995502,0.003382366,-0.116741747,0.279104918,0.003325606,-0.000423080,0.000269576,1.121227622,0.037001215,9.713801384
1784246781.997500,0.003387762,-0.116745301,0.279096633,0.003237224,-0.000600242,-0.000608948,1.125324965,0.042683940,9.726394653
1784246781.999494,0.003390480,-0.116749756,0.279101670,0.002879582,-0.000981340,-0.000727310,1.151841640,0.044711720,9.708500862
1784246782.001495,0.003390774,-0.116756782,0.279111207,0.002397146,-0.001444203,0.000430654,1.145560384,0.046418719,9.731818199
1784246782.003494,0.003398415,-0.116766289,0.279112756,0.002349992,-0.002124999,0.001002010,1.154173255,0.054699916,9.748916626
1784246782.005500,0.003408166,-0.116767123,0.279109925,0.002791774,-0.002260567,0.000518412,1.141252279,0.062072173,9.743572235
1784246782.007499,0.003413073,-0.116768092,0.279110461,0.002921104,-0.001780945,0.000114876,1.145635605,0.054307140,9.756526947
1784246782.009500,0.003410693,-0.116773225,0.279108733,0.002288637,-0.001712693,-0.000019350,1.148413420,0.061027028,9.751642227
1784246782.011500,0.003414089,-0.116775401,0.279106736,0.001628002,-0.001785925,-0.000262550,1.157603025,0.077203989,9.728440285
1784246782.013510,0.003416249,-0.116776057,0.279105574,0.001457399,-0.001536638,-0.000437538,1.141657829,0.058079295,9.737269402
1784246782.015506,0.003418118,-0.116781242,0.279111564,0.001329865,-0.001538311,-0.000024488,1.149339080,0.062454809,9.738201141
1784246782.017508,0.003424901,-0.116779879,0.279112250,0.001563728,-0.001399614,0.000367973,1.153505325,0.036764961,9.751938820
1784246782.019509,0.003427196,-0.116786100,0.279109478,0.001734943,-0.001348928,0.000057888,1.136171699,0.050049998,9.742144585
1784246782.021510,0.003425911,-0.116796061,0.279105037,0.001219164,-0.002077403,-0.000444066,1.148639917,0.041435000,9.734030724
1784246782.023514,0.003432038,-0.116795413,0.279102236,0.001101691,-0.002142674,-0.000842834,1.156638026,0.034227729,9.725026131
1784246782.025517,0.003437308,-0.116797306,0.279102772,0.001600433,-0.001604210,-0.000858361,1.147906542,0.018121338,9.737466812
1784246782.027516,0.003439426,-0.116802715,0.279096991,0.001670399,-0.001621768,-0.001034889,1.151531935,0.058378521,9.740419388
1784246782.029522,0.003445042,-0.116805829,0.279098153,0.001701839,-0.001760563,-0.001128117,1.131154180,0.079357296,9.725291252
1784246782.031517,0.003449143,-0.116806589,0.279102653,0.001725389,-0.001650005,-0.000490831,1.146136045,0.057141773,9.735025406
1784246782.033555,0.003444812,-0.116803266,0.279104561,0.001077986,-0.001131094,0.000101173,1.141207576,0.058072321,9.739062309
1784246782.035527,0.003445880,-0.116808109,0.279104561,0.000443171,-0.000857538,0.000242772,1.145079136,0.080920033,9.732487679
1784246782.037534,0.003451168,-0.116808787,0.279101908,0.000593400,-0.000932525,-0.000033717,1.168826580,0.079944797,9.763887405
1784246782.039524,0.003457964,-0.116809264,0.279102415,0.001229764,-0.000758623,-0.000269130,1.148442984,0.062072404,9.730576515
1784246782.041527,0.003467512,-0.116814420,0.279101282,0.001853311,-0.000868206,-0.000351430,1.139465094,0.060938887,9.717110634
1784246782.043526,0.003469785,-0.116818517,0.279096603,0.001962061,-0.001194417,-0.000720186,1.152956486,0.062628210,9.707271576
1784246782.045533,0.003473933,-0.116823070,0.279096872,0.001751906,-0.001411715,-0.000862805,1.152934313,0.062453330,9.731928825
1784246782.047535,0.003478867,-0.116823569,0.279101670,0.001853175,-0.001324531,-0.000351168,1.133085847,0.054172773,9.734994888
1784246782.049547,0.003481556,-0.116822973,0.279105157,0.001929742,-0.000956391,0.000239877,1.162532687,0.076686420,9.729338646
1784246782.051535,0.003488835,-0.116821393,0.279107004,0.001970844,-0.000416842,0.000473366,1.143253088,0.077454723,9.719014168
1784246782.053547,0.003486760,-0.116823897,0.279107451,0.001655330,-0.000235055,0.000479268,1.128407836,0.037728839,9.724574089
1784246782.055545,0.003477019,-0.116830677,0.279101610,0.000351375,-0.000862574,0.000080487,1.168047309,0.049781714,9.722446442
1784246782.057549,0.003475108,-0.116832621,0.279100746,-0.000597936,-0.001283170,-0.000300075,1.157234192,0.047949791,9.747530937
1784246782.059545,0.003480969,-0.116827264,0.279100597,-0.000177521,-0.000703149,-0.000317880,1.162788868,0.060166527,9.720714569
1784246782.061553,0.003482620,-0.116823837,0.279102325,0.000367720,0.000111911,-0.000183870,1.173612833,0.064921141,9.725687027
1784246782.063557,0.003483208,-0.116814978,0.279103994,0.000423558,0.000942347,0.000076998,1.165816069,0.050719105,9.720657349
1784246782.065613,0.003483771,-0.116815135,0.279102683,0.000263459,0.001334592,0.000085015,1.146725059,0.069589913,9.747660637
1784246782.067616,0.003479377,-0.116816327,0.279106855,-0.000168448,0.000938440,0.000303177,1.137128115,0.054962896,9.742625237
1784246782.069581,0.003477038,-0.116817072,0.279116362,-0.000467763,0.000555148,0.001201726,1.147087216,0.063633479,9.765554428
1784246782.071591,0.003476459,-0.116823621,0.279117376,-0.000526820,-0.000120333,0.001619682,1.148405075,0.061366875,9.766885757
1784246782.073591,0.003468887,-0.116827399,0.279118806,-0.000986791,-0.000820809,0.001416883,1.129995704,0.058260560,9.732775688
1784246782.075579,0.003471290,-0.116825499,0.279125661,-0.001063590,-0.000778122,0.001633674,1.135607839,0.039825778,9.731766701
1784246782.077580,0.003477090,-0.116818778,0.279123902,-0.000243149,-0.000034514,0.001472034,1.127237439,0.051289849,9.709863663
1784246782.079575,0.003482169,-0.116820507,0.279120624,0.000516796,0.000311772,0.000649429,1.131675124,0.047194343,9.710737228
1784246782.081573,0.003478002,-0.116824754,0.279118687,0.000411386,-0.000167266,0.000117256,1.129256129,0.069649145,9.707741737
1784246782.083570,0.003474155,-0.116828740,0.279111356,-0.000299457,-0.000670179,-0.000470862,1.141197205,0.054342736,9.696446419
1784246782.085610,0.003472450,-0.116830751,0.279108584,-0.000724974,-0.000875105,-0.000970461,1.128040552,0.044050552,9.718336105
1784246782.087588,0.003467488,-0.116826572,0.279106855,-0.001065985,-0.000468407,-0.000952277,1.154138684,0.050779555,9.733199120
1784246782.089578,0.003466855,-0.116824605,0.279109120,-0.001149747,0.000076089,-0.000612453,1.181958556,0.049616210,9.720665932
1784246782.091575,0.003460516,-0.116826840,0.279108614,-0.001304889,0.000149223,-0.000276588,1.146866918,0.082056507,9.758499146
1784246782.093579,0.003453306,-0.116827443,0.279109538,-0.001871754,0.000027624,-0.000069713,1.160791159,0.042782638,9.711634636
1784246782.095585,0.003446519,-0.116825826,0.279114515,-0.002283281,0.000152690,0.000461274,1.141741753,0.064010888,9.722064018
1784246782.097581,0.003447011,-0.116824344,0.279111832,-0.002092635,0.000384387,0.000542775,1.145100474,0.045525365,9.732260704
1784246782.099595,0.003452134,-0.116819486,0.279111058,-0.001173413,0.000709742,0.000116860,1.145503759,0.042323463,9.740758896
1784246782.101604,0.003450000,-0.116813235,0.279108554,-0.000717299,0.001272827,-0.000155834,1.148079276,0.034073059,9.762227058
1784246782.103606,0.003446655,-0.116808467,0.279100090,-0.001016911,0.001674609,-0.000806834,1.156150818,0.031498019,9.731733322
1784246782.105600,0.003441633,-0.116808072,0.279100746,-0.001384272,0.001607488,-0.001048649,1.155688763,0.031398833,9.746526718
1784246782.107594,0.003437617,-0.116806589,0.279102027,-0.001619679,0.001338158,-0.000558069,1.159750104,0.031934958,9.726806641
1784246782.109592,0.003439482,-0.116807520,0.279101104,-0.001322081,0.001011898,-0.000363132,1.144600749,0.042290445,9.747035027
1784246782.111592,0.003437287,-0.116806060,0.279096663,-0.001032011,0.000775865,-0.000618136,1.122440696,0.066634275,9.765998840
1784246782.113602,0.003428595,-0.116804503,0.279094517,-0.001542117,0.000773690,-0.000804105,1.131305695,0.092306830,9.731202126
1784246782.115605,0.003426324,-0.116807595,0.279100060,-0.001991395,0.000426752,-0.000255660,1.130842447,0.055418219,9.752932549
1784246782.117609,0.003426294,-0.116804548,0.279101849,-0.001703298,0.000274154,0.000343982,1.132318616,0.028158624,9.740207672
1784246782.119600,0.003418768,-0.116797216,0.279103935,-0.001719940,0.000904725,0.000567966,1.147405982,0.050443266,9.729604721
1784246782.121606,0.003417354,-0.116796054,0.279109061,-0.001841689,0.001309835,0.000965332,1.144536495,0.035301134,9.721882820
1784246782.123605,0.003419718,-0.116796747,0.279108405,-0.001284766,0.001059565,0.001000072,1.162550211,0.041666575,9.739426613
1784246782.125602,0.003424464,-0.116799332,0.279108793,-0.000483168,0.000623202,0.000663557,1.135663986,0.045131359,9.741662979
1784246782.127604,0.003427175,-0.116794705,0.279107958,0.000122809,0.000665173,0.000402397,1.091735005,0.048878215,9.734920502
1784246782.129610,0.003424214,-0.116789967,0.279103041,0.000027099,0.001117404,-0.000093241,1.127689600,0.050096016,9.687887192
1784246782.131608,0.003422403,-0.116783381,0.279097915,-0.000420708,0.001542472,-0.000707100,1.136746407,0.059550002,9.728307724
1784246782.133610,0.003416966,-0.116776057,0.279100418,-0.000854716,0.002030074,-0.000629968,1.152347207,0.050017912,9.717502594
1784246782.135612,0.003416231,-0.116769582,0.279101461,-0.001098593,0.002471957,-0.000157989,1.163572669,0.014374578,9.732078552
1784246782.137616,0.003413243,-0.116767518,0.279096454,-0.001170417,0.002435949,-0.000339485,1.143076897,0.026721273,9.733931541
1784246782.139613,0.003406249,-0.116768651,0.279095531,-0.001572269,0.001838065,-0.000565703,1.134984612,0.025080610,9.727188110
1784246782.141616,0.003396278,-0.116766535,0.279098660,-0.002228034,0.001402775,-0.000135366,1.122830987,0.023713900,9.752273560
1784246782.143618,0.003391559,-0.116774090,0.279102772,-0.002512339,0.000649612,0.000500941,1.104004622,0.023701362,9.724907875
1784246782.145623,0.003390227,-0.116773903,0.279103100,-0.002160920,-0.000137521,0.000711317,1.126659751,0.042981099,9.745228767
1784246782.147628,0.003386086,-0.116771832,0.279098809,-0.001932667,-0.000059127,0.000290503,1.147811770,0.046046935,9.717022896
1784246782.149622,0.003379360,-0.116766334,0.279098481,-0.002177142,0.000470392,-0.000014075,1.125286460,0.039948478,9.733100891
1784246782.151625,0.003380032,-0.116761900,0.279100239,-0.002083596,0.000976882,0.000144234,1.119520903,0.008234482,9.729755402
1784246782.153630,0.003374992,-0.116761968,0.279098779,-0.001910850,0.000967297,0.000167359,1.121003151,0.020639319,9.746871948
1784246782.155623,0.003373428,-0.116764337,0.279094785,-0.001826686,0.000369115,-0.000198243,1.109655857,0.010438613,9.752623558
1784246782.157625,0.003375547,-0.116769999,0.279089034,-0.001316660,-0.000447371,-0.000808972,1.121718049,0.041783132,9.733558655
1784246782.159632,0.003379327,-0.116768852,0.279090226,-0.000597859,-0.000633817,-0.000944175,1.139027715,0.025877092,9.733921051
1784246782.161637,0.003374696,-0.116763413,0.279088110,-0.000464862,-0.000047231,-0.000750435,1.114600539,0.009635246,9.730656624
1784246782.163631,0.003363990,-0.116761014,0.279084921,-0.001379204,0.000464098,-0.000790954,1.130200982,0.000506599,9.726129532
1784246782.165638,0.003359052,-0.116757311,0.279085547,-0.001974190,0.000762725,-0.000640253,1.129501700,0.017076764,9.728475571
1784246782.167640,0.003356545,-0.116754942,0.279076606,-0.001900325,0.000977568,-0.000980972,1.109626889,0.005346067,9.712690353
1784246782.169642,0.003360699,-0.116759025,0.279071897,-0.001381303,0.000591634,-0.001646658,1.124434233,0.005562962,9.718534470
1784246782.171639,0.003359624,-0.116761476,0.279074728,-0.000720478,-0.000129304,-0.001357376,1.139897823,0.024029234,9.740187645
1784246782.173674,0.003358171,-0.116762958,0.279079020,-0.000546036,-0.000475181,-0.000496260,1.135568976,0.000713870,9.750346184
1784246782.175655,0.003352760,-0.116766006,0.279080153,-0.000653772,-0.000724064,0.000040439,1.102252245,0.027301686,9.725826263
1784246782.177651,0.003348161,-0.116766326,0.279074997,-0.001019271,-0.000826518,-0.000182360,1.104511738,0.029830340,9.744226456
1784246782.179645,0.003351710,-0.116763815,0.279073745,-0.000864314,-0.000454387,-0.000558130,1.127302885,0.021511983,9.738815308
1784246782.181645,0.003348430,-0.116756774,0.279079765,-0.000567348,0.000278162,-0.000088887,1.133981586,0.015341891,9.712329865
1784246782.183650,0.003341739,-0.116752565,0.279076755,-0.001054849,0.000927623,0.000216376,1.122128606,0.037828404,9.721877098
1784246782.185657,0.003345979,-0.116748504,0.279076785,-0.001032356,0.001111457,-0.000013551,1.111011147,0.047274381,9.736721992
1784246782.187664,0.003351697,-0.116751812,0.279072523,-0.000189344,0.000733595,-0.000363107,1.108213902,0.037561849,9.721413612
1784246782.189656,0.003349130,-0.116750091,0.279072940,0.000044551,0.000425986,-0.000546331,1.105323434,0.021847749,9.731173515
1784246782.191653,0.003347312,-0.116747819,0.279073238,-0.000253845,0.000402730,-0.000318398,1.111760259,-0.001631032,9.744927406
1784246782.193656,0.003339532,-0.116747037,0.279070079,-0.000851192,0.000319106,-0.000351896,1.099111676,-0.008624718,9.743078232
1784246782.195675,0.003330805,-0.116739213,0.279069871,-0.001553450,0.000639051,-0.000374602,1.089000106,0.007338784,9.721649170
1784246782.197667,0.003327809,-0.116738200,0.279064924,-0.001757105,0.000887804,-0.000553032,1.109944940,-0.006227178,9.701408386
1784246782.199660,0.003325396,-0.116736718,0.279064029,-0.001691071,0.000815160,-0.000756297,1.119718075,-0.011993108,9.738592148
1784246782.201670,0.003327742,-0.116733074,0.279065818,-0.001100761,0.000825956,-0.000506017,1.112602949,-0.006531951,9.739517212
1784246782.203674,0.003332355,-0.116738066,0.279068410,-0.000169619,0.000395330,-0.000144820,1.138453722,0.015166755,9.728919983
1784246782.205673,0.003327710,-0.116743289,0.279066026,-0.000056689,-0.000414929,-0.000101978,1.132722974,0.023749571,9.729418755
1784246782.207674,0.003329202,-0.116741538,0.279063940,-0.000221963,-0.000550775,-0.000357458,1.125336289,0.006399700,9.725266457
1784246782.209676,0.003328785,-0.116739824,0.279064327,-0.000102460,-0.000167341,-0.000378038,1.131689310,0.014985901,9.766572952
1784246782.211681,0.003332482,-0.116738655,0.279067427,0.000217482,-0.000018510,-0.000068454,1.145247340,0.020036696,9.724924088
1784246782.213684,0.003343006,-0.116747387,0.279069602,0.001202198,-0.000620384,0.000190414,1.102298021,0.030094376,9.711049080
1784246782.215682,0.003341171,-0.116748542,0.279073656,0.001519793,-0.001217188,0.000485791,1.103808522,0.007968672,9.732428551
1784246782.217682,0.003333303,-0.116742462,0.279069424,0.000460863,-0.000646313,0.000415694,1.125735402,0.003976080,9.750357628
1784246782.219685,0.003333296,-0.116747655,0.279072553,-0.000203857,-0.000411137,0.000291584,1.120358467,0.004508928,9.748113632
1784246782.221711,0.003335317,-0.116751358,0.279077888,0.000116521,-0.000953889,0.000758078,1.112029910,-0.018449444,9.715230942
1784246782.223694,0.003332696,-0.116752006,0.279078543,0.000154703,-0.001040301,0.000954910,1.140410542,-0.009414006,9.716660500
1784246782.225692,0.003328472,-0.116756991,0.279074073,-0.000250106,-0.001112823,0.000483799,1.124005079,0.008154736,9.732897758
1784246782.227693,0.003328420,-0.116756827,0.279071331,-0.000399178,-0.001111680,-0.000111594,1.129376292,0.008387442,9.753527641
1784246782.229692,0.003331129,-0.116754644,0.279074788,-0.000106134,-0.000650187,-0.000054728,1.125349402,0.008934840,9.746801376
1784246782.231688,0.003336354,-0.116751350,0.279077053,0.000560777,-0.000122663,0.000277314,1.127985716,0.004001395,9.742738724
1784246782.233692,0.003341605,-0.116748899,0.279079467,0.001209741,0.000278426,0.000429297,1.125968695,0.021217993,9.719532967
1784246782.235700,0.003338493,-0.116749287,0.279081255,0.001100955,0.000306677,0.000573724,1.112294674,0.039467286,9.698116302
1784246782.237705,0.003342726,-0.116749227,0.279083014,0.000947720,0.000166284,0.000641819,1.132011890,0.000610790,9.708198547
1784246782.239702,0.003341674,-0.116749667,0.279086322,0.000944738,0.000098282,0.000782049,1.126151443,-0.001150828,9.714458466
1784246782.241705,0.003341994,-0.116752036,0.279091209,0.000759258,-0.000130710,0.001117587,1.130612373,-0.002225073,9.731492043
1784246782.243701,0.003343963,-0.116758339,0.279095650,0.000836671,-0.000696135,0.001414295,1.131742835,0.016218865,9.719058990
1784246782.245708,0.003347813,-0.116764195,0.279096335,0.001090142,-0.001342274,0.001322572,1.146029115,0.010602129,9.727105141
1784246782.247710,0.003352567,-0.116766699,0.279089004,0.001369872,-0.001557035,0.000444998,1.135518432,0.032229520,9.729026794
1784246782.249710,0.003357569,-0.116769016,0.279090792,0.001612367,-0.001462357,-0.000120638,1.137712717,0.026949247,9.711510658
1784246782.251708,0.003362247,-0.116767839,0.279096961,0.001915940,-0.001166299,0.000371360,1.152497888,0.026181197,9.729900360
1784246782.253714,0.003359568,-0.116765060,0.279098481,0.001616406,-0.000603245,0.000766987,1.113922596,0.027184006,9.721352577
1784246782.255713,0.003361391,-0.116766848,0.279100776,0.001178887,-0.000459251,0.000818692,1.138285279,0.039270189,9.742077827
1784246782.257719,0.003359127,-0.116768092,0.279107362,0.000928727,-0.000627182,0.001197932,1.146057367,0.050441429,9.732293129
1784246782.259712,0.003360231,-0.116768755,0.279106081,0.000640331,-0.000584942,0.001240279,1.158463597,0.036473155,9.721007347
1784246782.261722,0.003370479,-0.116772845,0.279106647,0.001208085,-0.000631457,0.000766483,1.135899544,0.028042680,9.750073433
1784246782.263717,0.003372914,-0.116777584,0.279114038,0.001780088,-0.000940580,0.000997704,1.158817530,0.030856568,9.754148483
1784246782.265725,0.003378369,-0.116780691,0.279111683,0.001889828,-0.001161468,0.001003215,1.134344935,0.047795039,9.747508049
1784246782.267725,0.003383033,-0.116787732,0.279109240,0.002041986,-0.001480948,0.000320493,1.145395756,0.032960802,9.734420776
1784246782.269729,0.003383979,-0.116794497,0.279108644,0.001841777,-0.002017314,-0.000016582,1.137386680,0.001682180,9.736904144
1784246782.271730,0.003383257,-0.116798915,0.279110074,0.001407674,-0.002244832,0.000045194,1.138032317,0.017818928,9.734765053
1784246782.273751,0.003390657,-0.116793320,0.279112786,0.001552190,-0.001570578,0.000258076,1.130433917,0.019772107,9.725804329
1784246782.275751,0.003396777,-0.116790138,0.279117018,0.002150958,-0.000563511,0.000543179,1.137399197,0.040180799,9.741633415
1784246782.277744,0.003405750,-0.116794609,0.279116929,0.002670621,-0.000513525,0.000548627,1.141500592,0.009115416,9.755336761
1784246782.279733,0.003412176,-0.116798215,0.279115707,0.002972867,-0.000924053,0.000188949,1.126985192,0.033491850,9.755927086
1784246782.281740,0.003415484,-0.116799027,0.279114872,0.002815919,-0.000985063,-0.000072346,1.154589415,0.051599771,9.743067741
1784246782.283736,0.003412945,-0.116799973,0.279119343,0.002141988,-0.000846250,0.000188730,1.134436965,0.052573543,9.705395699
1784246782.285749,0.003417862,-0.116799653,0.279128313,0.001758730,-0.000678274,0.001029331,1.134746194,0.043767180,9.746137619
1784246782.287744,0.003430543,-0.116803110,0.279128641,0.002473095,-0.000726176,0.001245189,1.141573906,0.050527547,9.728254318
1784246782.289745,0.003438057,-0.116800666,0.279127866,0.003159620,-0.000596665,0.000717651,1.142777324,0.040060926,9.748811722
1784246782.291743,0.003441223,-0.116797641,0.279130816,0.003030846,-0.000083104,0.000587407,1.161749840,0.048118051,9.715704918
1784246782.293745,0.003441536,-0.116802514,0.279126674,0.002425747,-0.000206449,0.000326475,1.166162729,0.043421965,9.738095284
1784246782.295745,0.003450119,-0.116813153,0.279124558,0.002284232,-0.001125170,-0.000246842,1.157579303,0.037399646,9.718321800
1784246782.297756,0.003452548,-0.116813637,0.279130131,0.002399886,-0.001494696,-0.000030666,1.133375049,0.041560519,9.743881226
1784246782.299754,0.003452644,-0.116811685,0.279132992,0.001985346,-0.000986983,0.000527492,1.152525544,0.065610699,9.729706764
1784246782.301755,0.003456802,-0.116813213,0.279128402,0.001612106,-0.000666143,0.000247748,1.157691002,0.047197558,9.726455688
1784246782.303750,0.003451924,-0.116810322,0.279125869,0.000961905,-0.000372345,-0.000281241,1.143412828,0.054094598,9.727382660
1784246782.305762,0.003449070,-0.116812862,0.279133230,0.000087633,-0.000231307,0.000198840,1.130678415,0.076716617,9.719445229
1784246782.307760,0.003452220,-0.116813809,0.279132724,0.000008292,-0.000387005,0.000620227,1.149324656,0.062340342,9.754340172
1784246782.309763,0.003462131,-0.116818570,0.279135913,0.000907898,-0.000670311,0.000530637,1.155823231,0.042998128,9.753326416
1784246782.311766,0.003470476,-0.116824634,0.279139608,0.001866679,-0.001187504,0.000716848,1.142026544,0.050957035,9.730051041
1784246782.313765,0.003472960,-0.116821639,0.279142797,0.002064443,-0.001037230,0.000908797,1.157513142,0.070414618,9.738260269
1784246782.315761,0.003471129,-0.116821602,0.279143870,0.001454076,-0.000487089,0.000959627,1.155933857,0.049949665,9.720642090
1784246782.317775,0.003463908,-0.116821170,0.279147178,0.000356410,-0.000259821,0.001084911,1.126611471,0.037332490,9.720534325
1784246782.319764,0.003456005,-0.116816781,0.279152155,-0.000694500,0.000140670,0.001465918,1.131290674,0.053382520,9.723331451
1784246782.321765,0.003455576,-0.116814218,0.279153794,-0.001061356,0.000483119,0.001581927,1.136756420,0.059629500,9.717099190
1784246782.323766,0.003460134,-0.116817862,0.279154748,-0.000520016,0.000186108,0.001303642,1.146097541,0.054809760,9.748012543
1784246782.325778,0.003466579,-0.116817832,0.279157281,0.000252993,-0.000124450,0.001119043,1.142299533,0.074590869,9.745446205
1784246782.327772,0.003470742,-0.116815530,0.279148608,0.000713498,0.000050385,0.000336771,1.172911644,0.045102138,9.741699219
1784246782.329773,0.003481861,-0.116816297,0.279148817,0.001483007,0.000138400,-0.000449258,1.152312875,0.046504181,9.707614899
1784246782.331775,0.003489634,-0.116818354,0.279159158,0.002345362,-0.000042474,0.000240870,1.163851857,0.036435954,9.716527939
1784246782.333812,0.003491149,-0.116817154,0.279156804,0.002306225,-0.000040494,0.000653046,1.159939170,0.046800341,9.715246201
1784246782.335785,0.003488023,-0.116824232,0.279154569,0.001462460,-0.000349599,0.000192111,1.158885717,0.071417302,9.720783234
1784246782.337798,0.003486423,-0.116826780,0.279157758,0.000681388,-0.000827409,0.000251792,1.143405557,0.054847434,9.747561455
1784246782.339794,0.003488304,-0.116824776,0.279154688,0.000516240,-0.000639203,0.000190588,1.146512747,0.052513331,9.755170822
1784246782.341793,0.003487278,-0.116817392,0.279152960,0.000295255,0.000148953,-0.000175464,1.139683366,0.042499956,9.726408005
1784246782.343789,0.003489379,-0.116808251,0.279153138,0.000175172,0.001207325,-0.000222744,1.132433534,0.074355237,9.733330727
1784246782.345785,0.003493520,-0.116800092,0.279150784,0.000414117,0.002047368,-0.000346544,1.162993193,0.079206280,9.752220154
1784246782.347791,0.003486496,-0.116801031,0.279156893,0.000019192,0.001978619,0.000027920,1.147672892,0.073219344,9.739613533
1784246782.349792,0.003479804,-0.116802350,0.279151201,-0.000907954,0.001288346,0.000151716,1.162239552,0.054920383,9.766408920
1784246782.351809,0.003483715,-0.116803154,0.279147655,-0.001020783,0.000819848,-0.000479088,1.177715421,0.033055235,9.725934982
1784246782.353833,0.003489984,-0.116799347,0.279146165,-0.000195547,0.000827645,-0.000754716,1.158227682,0.053965274,9.718877792
1784246782.355820,0.003492075,-0.116799846,0.279139280,0.000297869,0.000853814,-0.001172188,1.163146019,0.052548625,9.720217705
1784246782.357802,0.003484475,-0.116797276,0.279141575,-0.000248491,0.000790435,-0.001117174,1.156018972,0.059537709,9.758364677
1784246782.359825,0.003479247,-0.116800278,0.279141396,-0.001029535,0.000547304,-0.000573352,1.151277423,0.036511093,9.728621483
1784246782.361807,0.003479198,-0.116803795,0.279143453,-0.001077942,0.000005030,-0.000250598,1.144845724,0.061651349,9.733260155
1784246782.363800,0.003475961,-0.116804190,0.279144853,-0.000966839,-0.000212150,0.000076008,1.146059394,0.050457332,9.730051041
1784246782.365806,0.003476825,-0.116806380,0.279142618,-0.000938860,-0.000314024,0.000025337,1.126664996,0.080208965,9.739638329
1784246782.367813,0.003473789,-0.116810434,0.279139698,-0.000938590,-0.000638239,-0.000301830,1.121928453,0.060463954,9.752509117
1784246782.369813,0.003469665,-0.116807863,0.279137552,-0.001206356,-0.000565771,-0.000502770,1.127171636,0.085928135,9.753573418
1784246782.371808,0.003474281,-0.116804264,0.279131591,-0.001106083,-0.000010637,-0.000898611,1.119157910,0.052181147,9.725105286
1784246782.373861,0.003477982,-0.116796665,0.279125005,-0.000540321,0.000732659,-0.001545341,1.146192312,0.025264015,9.744236946
1784246782.375854,0.003480090,-0.116799481,0.279127926,0.000029212,0.000908808,-0.001422554,1.140472412,0.033122614,9.720520973
1784246782.377835,0.003482745,-0.116800614,0.279120326,0.000365491,0.000444336,-0.001390687,1.143922687,0.059432581,9.731901169
1784246782.379820,0.003487984,-0.116792060,0.279121190,0.000745210,0.000825484,-0.001525716,1.164321423,0.039025765,9.729547501
1784246782.381823,0.003487243,-0.116793156,0.279120505,0.000858919,0.001191910,-0.001136449,1.158626080,0.049915165,9.720644951
1784246782.383824,0.003482216,-0.116797455,0.279116362,0.000209639,0.000586331,-0.001111621,1.151941061,0.018444419,9.747784615
1784246782.385823,0.003480338,-0.116796866,0.279116392,-0.000262707,0.000216830,-0.001038979,1.145459652,0.038733426,9.741631508
1784246782.387826,0.003481932,-0.116787791,0.279120922,-0.000091902,0.000856849,-0.000456674,1.114500999,0.038739394,9.733531952
1784246782.389822,0.003487053,-0.116782114,0.279118031,0.000398036,0.001626692,-0.000282923,1.140161633,0.045563161,9.735841751
1784246782.391822,0.003485088,-0.116781898,0.279115856,0.000459662,0.001545272,-0.000575587,1.140771508,0.057366561,9.713053703
1784246782.393828,0.003473826,-0.116784044,0.279116899,-0.000568928,0.000955123,-0.000396313,1.130813360,0.050325673,9.712999344
1784246782.395832,0.003472390,-0.116783753,0.279123217,-0.001265396,0.000521095,0.000312005,1.135791898,0.053436320,9.707643509
1784246782.397876,0.003472875,-0.116779685,0.279127508,-0.000954820,0.000627296,0.000958023,1.140211105,0.048791103,9.722861290
1784246782.399853,0.003473430,-0.116776682,0.279128879,-0.000580532,0.000939270,0.001069147,1.142823339,0.044476945,9.757806778
1784246782.401861,0.003469293,-0.116777234,0.279125065,-0.000707516,0.000885960,0.000642450,1.128919363,0.045512933,9.763179779
1784246782.403862,0.003463955,-0.116777301,0.279123813,-0.001217882,0.000636415,0.000203405,1.108216047,0.041631285,9.779274940
1784246782.405854,0.003462375,-0.116774954,0.279122651,-0.001390611,0.000505479,0.000046632,1.125762224,0.044209305,9.763168335
1784246782.407840,0.003463627,-0.116772749,0.279124826,-0.001045060,0.000565898,0.000114559,1.132036090,0.042038448,9.742089272
1784246782.409907,0.003462876,-0.116770484,0.279123664,-0.000719799,0.000717225,0.000146706,1.129245400,0.033190031,9.731268883
1784246782.411874,0.003455379,-0.116765670,0.279118180,-0.001130866,0.000999213,-0.000281243,1.128559828,0.049058229,9.706264496
1784246782.413879,0.003457165,-0.116759501,0.279120803,-0.001229092,0.001471017,-0.000356522,1.163110495,0.050242040,9.729618073
1784246782.415858,0.003461885,-0.116757408,0.279122889,-0.000434619,0.001730841,0.000004739,1.107058525,0.016490562,9.725312233
