time_sec,roll_rad,pitch_rad,yaw_rad,gyro_x,gyro_y,gyro_z,acc_x,acc_y,acc_z
1784246720.343986,0.004804949,-0.100654379,-1.007219315,0.000122017,0.000643068,0.000630676,0.929890573,0.062978670,9.744719505
1784246720.345942,0.004807918,-0.100654371,-1.007219076,0.000410380,0.000064078,0.000694385,0.915203810,0.036659814,9.754848480
1784246720.347809,0.004808506,-0.100660041,-1.007223845,0.000474628,-0.000586694,0.000179683,0.924576759,0.068467721,9.738472939
1784246720.349765,0.004807009,-0.100664482,-1.007221460,0.000267346,-0.001113028,-0.000033501,0.937266290,0.080242716,9.760976791
1784246720.351785,0.004806260,-0.100660630,-1.007219911,-0.000060661,-0.001047334,0.000264713,0.945545614,0.058332819,9.739771843
1784246720.353792,0.004806063,-0.100655258,-1.007216096,-0.000202219,-0.000335109,0.000576074,0.945559025,0.060464520,9.755029678
1784246720.355794,0.004810239,-0.100654043,-1.007221103,0.000055620,0.000020733,0.000333216,0.936172366,0.063708246,9.756834984
1784246720.357759,0.004813148,-0.100655310,-1.007219553,0.000437886,-0.000171008,-0.000026426,0.924818814,0.052646603,9.757648468
1784246720.359787,0.004813137,-0.100657411,-1.007212996,0.000569428,-0.000349973,0.000505406,0.941346586,0.045768525,9.749999046
1784246720.361749,0.004809098,-0.100655869,-1.007214546,0.000177894,-0.000438096,0.000729835,0.954969883,0.059034877,9.750098228
1784246720.363773,0.004806476,-0.100658342,-1.007219195,-0.000359055,-0.000531040,0.000152645,0.933944046,0.062641136,9.721856117
1784246720.365749,0.004802729,-0.100655414,-1.007220507,-0.000750065,-0.000580859,-0.000249680,0.946610391,0.035021596,9.739624023
1784246720.367763,0.004808826,-0.100657746,-1.007221460,-0.000420497,-0.000606994,-0.000343167,0.952309847,0.059323739,9.714230537
1784246720.369798,0.004810022,-0.100662477,-1.007216692,0.000213304,-0.000920589,-0.000033199,0.938686550,0.048084155,9.744183540
1784246720.371742,0.004811822,-0.100662149,-1.007211447,0.000385252,-0.001094684,0.000643747,0.929392099,0.058943234,9.746038437
1784246720.373756,0.004809385,-0.100666255,-1.007210255,0.000240235,-0.001181269,0.000920068,0.932133257,0.061726883,9.727677345
1784246720.375802,0.004806037,-0.100668944,-1.007209659,-0.000230003,-0.001580627,0.000830083,0.940267146,0.065318368,9.712016106
1784246720.377764,0.004809858,-0.100672603,-1.007209301,-0.000156092,-0.001839381,0.000657060,0.960705519,0.050490208,9.744218826
1784246720.379815,0.004815342,-0.100682616,-1.007210255,0.000510305,-0.002267478,0.000368187,0.961694419,0.058900934,9.756827354
1784246720.381776,0.004811170,-0.100692019,-1.007201672,0.000481985,-0.003135650,0.000785644,0.953976035,0.050179362,9.737038612
1784246720.383787,0.004805124,-0.100692712,-1.007196188,-0.000274291,-0.003133300,0.001597575,0.986394703,0.059566513,9.744751930
1784246720.385800,0.004806711,-0.100698091,-1.007204771,-0.000564727,-0.002712999,0.000982333,0.944492877,0.045366168,9.737895012
1784246720.387749,0.004809631,-0.100704893,-1.007206559,-0.000219028,-0.002823484,-0.000008855,0.950040400,0.058742367,9.737089157
1784246720.389779,0.004818054,-0.100709900,-1.007206917,0.000592639,-0.002859108,-0.000224334,0.961253643,0.057753589,9.729921341
1784246720.391793,0.004820989,-0.100716919,-1.007205009,0.001182152,-0.002994585,-0.000129197,0.945459306,0.051978692,9.751388550
1784246720.393813,0.004818877,-0.100723654,-1.007207274,0.000887198,-0.003211130,-0.000115853,0.945352077,0.041405689,9.726214409
1784246720.395790,0.004815629,-0.100726195,-1.007212400,0.000242585,-0.003073603,-0.000538413,0.969310284,0.057087671,9.746063232
1784246720.397767,0.004816669,-0.100733504,-1.007214069,-0.000010490,-0.003011859,-0.000828063,0.958864033,0.047307529,9.754060745
1784246720.399774,0.004810689,-0.100737356,-1.007209659,-0.000322776,-0.002951484,-0.000389321,0.971960604,0.054695725,9.762639999
1784246720.401777,0.004805202,-0.100740500,-1.007204890,-0.000983205,-0.002707830,0.000418121,0.955450475,0.060497023,9.732622147
1784246720.403754,0.004805053,-0.100749120,-1.007205606,-0.001105331,-0.002855863,0.000626002,0.983909190,0.039853174,9.749105453
1784246720.405753,0.004803667,-0.100759000,-1.007208347,-0.000926484,-0.003395251,0.000233909,0.942595005,0.038091414,9.756228447
1784246720.407856,0.004797320,-0.100766562,-1.007205963,-0.001193770,-0.003713456,0.000200783,0.960990608,0.037846159,9.757589340
1784246720.409782,0.004790964,-0.100766689,-1.007202625,-0.001689078,-0.003224711,0.000613431,0.996229291,0.021154085,9.773207664
1784246720.411764,0.004779911,-0.100770757,-1.007200599,-0.002209848,-0.002614842,0.000897149,0.989300072,0.041861817,9.771988869
1784246720.413776,0.004775523,-0.100777820,-1.007196546,-0.002449787,-0.002640374,0.001155595,1.003374457,0.016741471,9.750769615
1784246720.415828,0.004772062,-0.100785799,-1.007198215,-0.002228675,-0.002895461,0.001054352,0.979961336,0.047914155,9.756775856
1784246720.417791,0.004770606,-0.100796580,-1.007197022,-0.001889013,-0.003333876,0.000762853,0.981087387,0.066323116,9.749273300
1784246720.419766,0.004767696,-0.100806750,-1.007199526,-0.001679745,-0.003850505,0.000495183,0.974231780,0.057316590,9.768038750
1784246720.421775,0.004766974,-0.100818634,-1.007195234,-0.001492394,-0.004300453,0.000498404,0.970211864,0.059134740,9.771633148
1784246720.423779,0.004771004,-0.100829192,-1.007195115,-0.000868311,-0.004652379,0.000645805,0.981143475,0.033228662,9.740542412
1784246720.425776,0.004770457,-0.100839704,-1.007192492,-0.000339883,-0.004800778,0.000627542,0.985221684,0.036328543,9.738325119
1784246720.427803,0.004768590,-0.100845248,-1.007183909,-0.000296165,-0.004566874,0.001211310,1.014558196,0.047840305,9.704801559
1784246720.429793,0.004766005,-0.100850143,-1.007184148,-0.000458899,-0.004033399,0.001475826,0.989512682,0.058534946,9.758198738
1784246720.431764,0.004766515,-0.100865252,-1.007194757,-0.000599615,-0.004302531,0.000365094,0.978259623,0.057182174,9.779697418
1784246720.433854,0.004767812,-0.100878783,-1.007207274,-0.000525681,-0.005089153,-0.001313561,1.006842852,0.043601140,9.747807503
1784246720.435799,0.004765003,-0.100885823,-1.007203341,-0.000503545,-0.005037974,-0.001540165,1.015348315,0.041309331,9.739729881
1784246720.437775,0.004758071,-0.100890502,-1.007197618,-0.000917821,-0.004392046,-0.000402807,0.990228176,0.041281905,9.725808144
1784246720.439771,0.004757575,-0.100896493,-1.007197261,-0.001128612,-0.003920926,0.000173169,0.985756576,0.045513760,9.768870354
1784246720.441804,0.004757281,-0.100899421,-1.007197499,-0.000900835,-0.003525066,0.000142365,0.995632410,0.045422245,9.763947487
1784246720.443804,0.004756972,-0.100905165,-1.007196426,-0.000716758,-0.003219215,0.000174207,0.994168639,0.033973750,9.738317490
1784246720.445785,0.004752438,-0.100909293,-1.007187963,-0.000728532,-0.002980486,0.000792970,1.011636019,0.030254871,9.725757599
1784246720.447803,0.004753034,-0.100910589,-1.007182240,-0.000644138,-0.002503473,0.001552449,1.011178493,0.067780636,9.742136955
1784246720.449859,0.004747673,-0.100919381,-1.007186890,-0.000783345,-0.002508481,0.001236952,1.001845479,0.038314290,9.744182587
1784246720.451791,0.004741538,-0.100930892,-1.007188201,-0.001378873,-0.003152117,0.000569522,1.006966114,0.053084653,9.737107277
1784246720.453785,0.004740364,-0.100933917,-1.007191181,-0.001519325,-0.003228623,0.000158166,1.024108052,0.061691850,9.756009102
1784246720.455785,0.004739392,-0.100936376,-1.007194877,-0.001306799,-0.002638563,-0.000335975,1.022408962,0.032175463,9.751335144
1784246720.457786,0.004737825,-0.100938663,-1.007194042,-0.001152042,-0.002156374,-0.000424882,1.037513733,0.018223552,9.732877731
1784246720.459796,0.004735671,-0.100946456,-1.007196069,-0.001098718,-0.002255218,-0.000365890,1.020510197,0.060457546,9.747032166
1784246720.461788,0.004734247,-0.100957580,-1.007193923,-0.001065743,-0.002849693,-0.000235576,1.033891320,0.053978641,9.751935005
1784246720.463792,0.004728507,-0.100965396,-1.007192373,-0.001259324,-0.003282075,0.000129792,1.031370282,0.032365352,9.771520615
1784246720.465795,0.004725273,-0.100971259,-1.007183552,-0.001415222,-0.003203686,0.000849421,1.032660007,0.027039336,9.762072563
1784246720.467797,0.004728738,-0.100976489,-1.007182598,-0.000911886,-0.002972577,0.001267303,1.018137574,0.050551653,9.758174896
1784246720.469812,0.004736226,-0.100982778,-1.007187009,0.000052150,-0.002948786,0.000615123,1.035639644,0.048726380,9.731279373
1784246720.471831,0.004742734,-0.100994870,-1.007184029,0.000949347,-0.003276205,0.000246717,1.035572410,0.042521697,9.721822739
1784246720.473833,0.004748068,-0.100998878,-1.007177711,0.001530604,-0.003356492,0.000719227,1.032090306,0.053143878,9.746547699
1784246720.475816,0.004751417,-0.101005204,-1.007178783,0.001688096,-0.002978694,0.000830781,1.028479695,0.052617904,9.764025688
1784246720.477801,0.004754677,-0.101007499,-1.007180691,0.001606427,-0.002590040,0.000370812,1.032175899,0.023118373,9.747252464
1784246720.479804,0.004752472,-0.101004399,-1.007186055,0.001191066,-0.001833433,-0.000232975,1.004001379,0.031515259,9.751314163
1784246720.481801,0.004743471,-0.101007134,-1.007181883,0.000146054,-0.001277237,-0.000186580,0.988693178,0.027650457,9.755310059
1784246720.483855,0.004741311,-0.101016909,-1.007173657,-0.000518321,-0.001742704,0.000763163,0.992720068,0.064693034,9.768551826
1784246720.485811,0.004742349,-0.101021737,-1.007179856,-0.000568382,-0.002243927,0.000714704,1.040164113,0.053828202,9.761802673
1784246720.487815,0.004739582,-0.101019628,-1.007190347,-0.000774026,-0.001807525,-0.000580029,1.057275534,0.056520075,9.730452538
1784246720.489862,0.004737418,-0.101021580,-1.007194042,-0.000994594,-0.001309853,-0.001359872,1.040466547,0.040510800,9.743783951
1784246720.491828,0.004739869,-0.101028375,-1.007196426,-0.000745973,-0.001440906,-0.001406578,1.051489472,0.060613740,9.732267380
1784246720.493819,0.004740030,-0.101029851,-1.007196665,-0.000384194,-0.001503655,-0.001223511,1.064370394,0.050089858,9.739834785
1784246720.495821,0.004747014,-0.101034559,-1.007196784,0.000154772,-0.001139022,-0.000979114,1.052288771,0.056586120,9.793215752
1784246720.497817,0.004750967,-0.101037636,-1.007200360,0.000781829,-0.000982477,-0.001035982,1.044832468,0.031795781,9.764356613
1784246720.499817,0.004747874,-0.101039916,-1.007197857,0.000620989,-0.001079316,-0.000826841,1.027741671,0.027645931,9.748621941
1784246720.501827,0.004748276,-0.101041570,-1.007198334,0.000288881,-0.000914885,-0.000456894,1.018042922,0.041293919,9.737044334
1784246720.503821,0.004754055,-0.101036452,-1.007200599,0.000613772,-0.000294908,-0.000562792,1.045341969,0.037133776,9.768875122
1784246720.505823,0.004754375,-0.101038121,-1.007200956,0.000850994,0.000210618,-0.000621585,1.029766202,0.046456385,9.746054649
1784246720.507837,0.004754163,-0.101041242,-1.007197618,0.000655222,0.000022452,-0.000270961,1.029184699,0.034472108,9.731181145
1784246720.509822,0.004758480,-0.101034828,-1.007196069,0.000787433,0.000241730,0.000095197,1.035547495,0.041111037,9.731229782
1784246720.511824,0.004760853,-0.101032026,-1.007197857,0.000980817,0.000942503,0.000022124,1.041302800,0.035152387,9.739715576
1784246720.513826,0.004762548,-0.101036981,-1.007197857,0.000932737,0.000681634,-0.000125966,1.052532315,0.038750958,9.780548096
1784246720.515832,0.004762298,-0.101042897,-1.007192016,0.000836366,-0.000050931,0.000286535,1.052522182,0.072207898,9.738170624
1784246720.517845,0.004765852,-0.101037838,-1.007188201,0.000917638,0.000096298,0.000825745,1.049012899,0.042187054,9.744700432
1784246720.519834,0.004768609,-0.101038337,-1.007185102,0.001141985,0.000382981,0.001021246,1.061690450,0.052246515,9.756432533
1784246720.521831,0.004767346,-0.101045370,-1.007185340,0.000938354,0.000039246,0.000925331,1.041897655,0.010868319,9.751217842
1784246720.523835,0.004764254,-0.101043902,-1.007184982,0.000375899,-0.000079817,0.000711117,1.042563319,-0.009209220,9.738087654
1784246720.525845,0.004755169,-0.101038255,-1.007185221,-0.000368862,0.000628802,0.000595068,1.021023750,0.026210599,9.710496902
1784246720.527840,0.004753556,-0.101034716,-1.007180929,-0.000783907,0.001286091,0.000764241,1.022252798,0.056374293,9.751041412
1784246720.529845,0.004753280,-0.101037614,-1.007174730,-0.000625537,0.000983550,0.001281000,1.026632786,0.049393881,9.779695511
1784246720.531842,0.004756472,-0.101033196,-1.007172823,-0.000236593,0.000941301,0.001478363,1.055045843,0.057063557,9.721038818
1784246720.533860,0.004759978,-0.101029187,-1.007171154,0.000269594,0.001378202,0.001282115,1.006085038,0.054846652,9.742946625
1784246720.535874,0.004765268,-0.101025909,-1.007171869,0.000781704,0.001534158,0.000939904,1.011934876,0.055308904,9.730402946
1784246720.537897,0.004769712,-0.101019524,-1.007171273,0.001210937,0.001809600,0.000619390,1.027049780,0.044273328,9.742898941
1784246720.539859,0.004772394,-0.101009920,-1.007169008,0.001382761,0.002406429,0.000604505,1.017168760,0.043109979,9.735260010
1784246720.541889,0.004774547,-0.101008408,-1.007172704,0.001325886,0.002664953,0.000303560,1.001360297,0.035600483,9.748647690
1784246720.543868,0.004775486,-0.101008758,-1.007180452,0.001097858,0.002175424,-0.000587664,1.004049301,0.037160691,9.776455879
1784246720.545866,0.004781197,-0.101006180,-1.007181168,0.001220188,0.001778590,-0.001056160,1.024130106,0.025086833,9.736944199
1784246720.547927,0.004785190,-0.100999981,-1.007184029,0.001548470,0.001935021,-0.001087711,0.985272825,0.039569199,9.723549843
1784246720.549881,0.004782594,-0.100993998,-1.007185459,0.001192908,0.002235272,-0.001092551,1.013466597,0.034161780,9.740130424
1784246720.551866,0.004783473,-0.100993551,-1.007182479,0.000784937,0.002147075,-0.000682832,1.018953323,0.042600870,9.740638733
1784246720.553869,0.004789720,-0.100983940,-1.007183433,0.001087168,0.002328572,-0.000418138,1.025740147,0.048226837,9.756373405
1784246720.555865,0.004789619,-0.100977443,-1.007188559,0.001186962,0.002915388,-0.000764524,1.025323272,0.050510552,9.751008034
1784246720.557874,0.004784692,-0.100966498,-1.007182479,0.000554195,0.003437047,-0.000457852,1.004243135,0.050444089,9.735295296
1784246720.559870,0.004778440,-0.100958951,-1.007179499,-0.000288453,0.003763536,0.000360360,1.004370689,0.062799409,9.761826515
1784246720.561874,0.004780578,-0.100953348,-1.007181764,-0.000543343,0.003623290,0.000341121,1.010074019,0.051163521,9.749651909
1784246720.563909,0.004790629,-0.100949377,-1.007181406,0.000353893,0.003277227,0.000038638,1.012761831,0.051094055,9.754587173
1784246720.565904,0.004796683,-0.100947648,-1.007181048,0.001330845,0.002858758,-0.000037716,1.001228929,0.026053391,9.768311501
1784246720.567929,0.004801518,-0.100942820,-1.007179379,0.001699319,0.002610831,0.000032796,0.978109777,0.041815139,9.735662460
1784246720.569904,0.004798177,-0.100935735,-1.007183790,0.001320424,0.002708736,-0.000168040,0.999228358,0.045020510,9.750946999
1784246720.571892,0.004795356,-0.100926377,-1.007182956,0.000541929,0.003127572,-0.000331260,1.013274550,0.056050848,9.749686241
1784246720.573920,0.004798981,-0.100921102,-1.007174611,0.000532139,0.003313704,0.000362389,0.977034628,0.029077053,9.764721870
1784246720.575904,0.004794980,-0.100912184,-1.007172704,0.000541158,0.003286690,0.000939033,0.981943309,0.024747236,9.734661102
1784246720.577904,0.004794376,-0.100904733,-1.007164836,0.000260018,0.003414107,0.001359474,0.971022367,0.051142614,9.759925842
1784246720.579885,0.004797383,-0.100893252,-1.007165313,0.000402119,0.003774395,0.001469233,0.988044918,0.049891494,9.779212952
1784246720.581890,0.004803313,-0.100888528,-1.007171273,0.000812993,0.003823532,0.000573693,1.010161161,0.021960812,9.760672569
1784246720.583904,0.004810611,-0.100884274,-1.007170200,0.001414178,0.003369542,0.000009311,0.986040413,0.030833406,9.753533363
1784246720.585907,0.004812206,-0.100871883,-1.007164001,0.001747076,0.003538724,0.000449218,0.997386158,0.039401244,9.725355148
1784246720.587905,0.004811412,-0.100866795,-1.007159591,0.001465222,0.003719962,0.001039953,0.974097311,0.044503774,9.742850304
1784246720.589915,0.004807292,-0.100860849,-1.007156610,0.000785977,0.003462229,0.001286855,0.935577333,0.050805807,9.745095253
1784246720.591897,0.004803518,-0.100849867,-1.007153988,0.000040059,0.003439839,0.001358931,0.961799741,0.029437868,9.741395950
1784246720.593903,0.004802792,-0.100841224,-1.007157564,-0.000319463,0.003604415,0.000943391,0.969747603,0.056586266,9.752786636
1784246720.595909,0.004804543,-0.100834392,-1.007156253,-0.000202224,0.003648886,0.000532546,0.973808050,0.056709405,9.728133202
1784246720.597905,0.004801153,-0.100826107,-1.007149577,-0.000227181,0.003660157,0.000936977,0.974830806,0.067413993,9.733134270
1784246720.599908,0.004800836,-0.100821324,-1.007146716,-0.000352280,0.003883519,0.001557562,0.977214813,0.043872491,9.763023376
1784246720.601900,0.004800773,-0.100835584,-1.007152796,-0.000289410,0.003657117,0.001375886,0.943612874,0.058585480,9.728714943
1784246720.603903,0.004800926,-0.100828551,-1.007157445,-0.000261881,0.003315467,0.000520420,0.954441607,0.052333929,9.748261452
1784246720.605907,0.004803425,-0.100819007,-1.007158399,-0.000051585,0.003399961,-0.000010359,0.949047923,0.053139854,9.770677567
1784246720.607912,0.004805217,-0.100813292,-1.007163405,0.000209202,0.003370580,-0.000433465,0.953183353,0.057907950,9.722741127
1784246720.609915,0.004803347,-0.100803912,-1.007163644,0.000111103,0.003477834,-0.000669227,0.935856164,0.036490738,9.741416931
1784246720.611912,0.004799901,-0.100797698,-1.007169247,-0.000286958,0.003451495,-0.000842078,0.943972468,0.039942320,9.745481491
1784246720.613911,0.004796161,-0.100790396,-1.007172346,-0.000722701,0.003290993,-0.001149535,0.951134443,0.038903546,9.752654076
1784246720.615919,0.004791109,-0.100781046,-1.007172585,-0.001092513,0.003424409,-0.001011167,0.933716357,0.045443736,9.746403694
1784246720.617918,0.004796232,-0.100775398,-1.007176161,-0.000766252,0.003407737,-0.001000314,0.960322797,0.057501171,9.767130852
1784246720.619921,0.004802341,-0.100771360,-1.007179022,0.000156318,0.003137768,-0.001245481,0.945902884,0.050311465,9.732995987
1784246720.621917,0.004802460,-0.100759022,-1.007181287,0.000470410,0.003304169,-0.001296266,0.932497978,0.057006225,9.760823250
1784246720.623922,0.004801242,-0.100752413,-1.007172585,0.000283350,0.003604774,-0.000502541,0.935898840,0.078064673,9.754684448
1784246720.625928,0.004804677,-0.100744389,-1.007174134,0.000287339,0.003426048,0.000109790,0.949505150,0.087143943,9.713509560
1784246720.627925,0.004806443,-0.100741342,-1.007179141,0.000398250,0.003048450,-0.000384034,0.942190886,0.078470290,9.749313354
1784246720.629929,0.004810521,-0.100739963,-1.007178307,0.000656764,0.002518585,-0.000600502,0.966064632,0.048600759,9.748249054
1784246720.631927,0.004812146,-0.100732490,-1.007171273,0.000917597,0.002324813,0.000055320,0.954770327,0.042870119,9.755374908
1784246720.633926,0.004815719,-0.100727655,-1.007172942,0.001056298,0.002419191,0.000371845,0.941579103,0.065030843,9.750123978
1784246720.635957,0.004823821,-0.100722730,-1.007174850,0.001464303,0.002308628,-0.000047947,0.943839788,0.067569047,9.767178535
1784246720.637939,0.004821079,-0.100720480,-1.007175207,0.001343452,0.002051826,-0.000229045,0.960141122,0.079472914,9.765028954
1784246720.639932,0.004818348,-0.100714818,-1.007175446,0.000605836,0.002032528,-0.000162500,0.948887169,0.075276949,9.745265007
1784246720.641976,0.004820691,-0.100709334,-1.007184029,0.000251453,0.002092037,-0.000690980,0.955752492,0.048796583,9.739272118
1784246720.643956,0.004816475,-0.100704141,-1.007185340,-0.000115403,0.002101005,-0.001148544,0.957158029,0.055327050,9.763526917
1784246720.645948,0.004812511,-0.100703754,-1.007183313,-0.000694901,0.001818380,-0.000743857,0.955755889,0.050038714,9.753626823
1784246720.647962,0.004811702,-0.100703344,-1.007187128,-0.000903182,0.001287307,-0.000631037,0.944437742,0.042093705,9.757152557
1784246720.649951,0.004812522,-0.100698464,-1.007190347,-0.000706162,0.001295084,-0.000943236,0.929415822,0.024377709,9.755229950
1784246720.651945,0.004809862,-0.100692265,-1.007190824,-0.000525049,0.001479009,-0.000952995,0.930359542,0.027568717,9.745837212
1784246720.653948,0.004804561,-0.100691073,-1.007189870,-0.000776330,0.001363037,-0.000619121,0.934112430,0.040564466,9.738750458
1784246720.655943,0.004802546,-0.100691050,-1.007187843,-0.001036426,0.000882295,-0.000197710,0.958246112,0.030983549,9.719434738
1784246720.657952,0.004809557,-0.100692131,-1.007184505,-0.000377908,0.000378501,0.000181983,0.930011868,0.036883067,9.759796143
1784246720.659956,0.004813327,-0.100693375,-1.007186055,0.000465266,0.000117340,0.000170923,0.944988549,0.050999489,9.763934135
1784246720.661956,0.004814206,-0.100690544,-1.007189035,0.000647492,0.000024067,-0.000216367,0.952828050,0.068782046,9.769436836
1784246720.663953,0.004814869,-0.100686803,-1.007185817,0.000602328,0.000297919,-0.000153899,0.960254252,0.052097019,9.771129608
1784246720.665959,0.004815704,-0.100688048,-1.007179141,0.000602462,0.000349083,0.000540700,0.950986803,0.062359065,9.730837822
1784246720.667962,0.004824312,-0.100692824,-1.007178783,0.001121186,-0.000193772,0.000809627,0.953283727,0.066400133,9.725485802
1784246720.669969,0.004827524,-0.100695916,-1.007182837,0.001590274,-0.000675677,0.000265076,0.948854446,0.070965856,9.721474648
1784246720.671958,0.004829509,-0.100697011,-1.007176995,0.001444420,-0.000880033,0.000283610,0.930878818,0.071383052,9.758224487
1784246720.673961,0.004827643,-0.100695461,-1.007165194,0.001103995,-0.000709146,0.001399682,0.949626029,0.063881993,9.771195412
1784246720.675961,0.004828958,-0.100695901,-1.007159710,0.000838353,-0.000548357,0.002194852,0.963766694,0.045363415,9.766608238
1784246720.677965,0.004830544,-0.100696661,-1.007158279,0.000807533,-0.000590542,0.002051422,0.943768740,0.060119040,9.743818283
1784246720.679962,0.004829822,-0.100698724,-1.007155180,0.000676996,-0.000619112,0.001784310,0.949719250,0.069886722,9.745678902
1784246720.681984,0.004833592,-0.100702807,-1.007158875,0.000651339,-0.000980554,0.001244949,0.942200124,0.078543425,9.739002228
1784246720.683973,0.004840681,-0.100706995,-1.007161856,0.001120317,-0.001390346,0.000400694,0.925247431,0.049645033,9.737904549
1784246720.685971,0.004845968,-0.100704931,-1.007158399,0.001717106,-0.001406404,0.000238938,0.937764168,0.045871750,9.741927147
1784246720.687968,0.004845185,-0.100704357,-1.007154465,0.001666011,-0.001091976,0.000627595,0.953030884,0.046572197,9.741946220
1784246720.689988,0.004842697,-0.100704797,-1.007152438,0.001033038,-0.000784276,0.000874116,0.940482914,0.048883945,9.754502296
1784246720.691975,0.004846258,-0.100706302,-1.007145286,0.000857987,-0.000816410,0.001251301,0.923531294,0.057178441,9.752745628
1784246720.693979,0.004850825,-0.100706533,-1.007144213,0.001200981,-0.000826229,0.001418588,0.960375309,0.061158001,9.756840706
1784246720.695974,0.004852465,-0.100709163,-1.007150292,0.001217166,-0.000897435,0.000655189,0.968205214,0.039654128,9.742364883
1784246720.697984,0.004855307,-0.100716002,-1.007151246,0.001097832,-0.001397098,-0.000030006,0.954446495,0.052372083,9.742880821
1784246720.699979,0.004851824,-0.100725368,-1.007156134,0.000717427,-0.002118692,-0.000405259,0.968863308,0.057106137,9.744271278
1784246720.701986,0.004848639,-0.100732349,-1.007157922,-0.000012804,-0.002747363,-0.000697973,0.963058352,0.060240302,9.755044937
1784246720.703983,0.004848244,-0.100740537,-1.007153511,-0.000274037,-0.003121920,-0.000314607,0.954521477,0.023073979,9.767352104
1784246720.705989,0.004846601,-0.100744486,-1.007149935,-0.000119322,-0.003184613,0.000309375,0.954823732,0.047749996,9.762129784
1784246720.707992,0.004843866,-0.100750521,-1.007146001,-0.000167726,-0.003084441,0.000746444,0.948471427,0.041600365,9.756257057
1784246720.709988,0.004843535,-0.100756571,-1.007142067,-0.000275934,-0.003064789,0.001082483,0.982299924,0.054309495,9.735298157
1784246720.711989,0.004843285,-0.100760676,-1.007138729,-0.000136511,-0.002944499,0.001274066,0.975754857,0.071665898,9.763648987
1784246720.713992,0.004838260,-0.100767516,-1.007133484,-0.000343180,-0.002908318,0.001539218,0.976778865,0.044790056,9.760787010
1784246720.715996,0.004838677,-0.100773707,-1.007127166,-0.000459809,-0.003045536,0.001930091,0.971847594,0.044888273,9.755852699
1784246720.718003,0.004839947,-0.100781314,-1.007128596,-0.000164520,-0.003200606,0.001727736,0.949943841,0.051495492,9.748251915
1784246720.719993,0.004838290,-0.100786798,-1.007127285,-0.000146520,-0.003219459,0.001255601,0.967864990,0.049432345,9.754083633
1784246720.721995,0.004836975,-0.100790672,-1.007128119,-0.000294888,-0.003105789,0.000966265,0.983036518,0.043302089,9.769750595
1784246720.723995,0.004837072,-0.100792378,-1.007133126,-0.000326884,-0.002769157,0.000323778,0.998979449,0.025224371,9.762923241
1784246720.726012,0.004833220,-0.100794420,-1.007130504,-0.000383602,-0.002219017,0.000092052,0.970781624,0.032626759,9.780878067
1784246720.728005,0.004832363,-0.100801185,-1.007134438,-0.000483037,-0.002160046,-0.000006547,0.976509809,0.058371365,9.741597176
1784246720.730005,0.004840786,-0.100813136,-1.007132888,0.000142169,-0.002843692,-0.000225730,0.978935421,0.038400833,9.773301125
1784246720.732013,0.004843680,-0.100822762,-1.007125020,0.000990968,-0.003584710,0.000390097,0.991077125,0.039672155,9.761664391
1784246720.734020,0.004838632,-0.100830063,-1.007122040,0.000708223,-0.003809938,0.001019560,1.017139435,0.041661173,9.750045776
1784246720.736040,0.004839482,-0.100833811,-1.007124066,0.000221363,-0.003337031,0.000831354,1.003059626,0.065523490,9.759152412
1784246720.738020,0.004843360,-0.100833215,-1.007126451,0.000433997,-0.002456120,0.000282946,0.998769045,0.042916816,9.732551575
1784246720.740026,0.004845032,-0.100836635,-1.007123590,0.000694838,-0.001979513,0.000207618,1.002879500,0.048297849,9.724519730
1784246720.742063,0.004845032,-0.100836635,-1.007123590,0.000772546,-0.001903411,0.000530141,1.002879500,0.048297849,9.724519730
1784246720.744044,0.004834538,-0.100856863,-1.007112384,0.000460853,-0.002421193,0.000959887,0.982806385,0.023248771,9.754825592
1784246720.746033,0.004839336,-0.100863799,-1.007115126,0.000484972,-0.003068542,0.000856655,1.001606941,0.019410899,9.756613731
1784246720.748060,0.004837343,-0.100866012,-1.007120728,0.000565579,-0.002888300,0.000045059,0.998819470,0.048177883,9.748725891
1784246720.750036,0.004829889,-0.100872517,-1.007117748,-0.000244052,-0.002696512,-0.000077876,0.981867433,0.057685889,9.765357971
1784246720.752024,0.004829889,-0.100872517,-1.007117748,-0.001145760,-0.002845073,0.000426176,0.981867433,0.057685889,9.765357971
1784246720.754029,0.004834158,-0.100879900,-1.007120609,-0.001110970,-0.002651339,0.000236547,1.022254109,0.053953618,9.713366508
1784246720.756024,0.004834158,-0.100879900,-1.007120609,-0.000393952,-0.002208246,-0.000458420,1.022254109,0.053953618,9.713366508
1784246720.758032,0.004840786,-0.100901827,-1.007124782,0.000120028,-0.002641778,-0.000896717,1.005308867,0.065135822,9.746599197
1784246720.760024,0.004840786,-0.100901827,-1.007124782,0.000486096,-0.003713921,-0.001148031,1.005308867,0.065135822,9.746599197
1784246720.762035,0.004841769,-0.100923911,-1.007117987,0.000536315,-0.004298847,-0.000644393,1.004632473,0.045917392,9.741094589
1784246720.764031,0.004837463,-0.100939050,-1.007108688,0.000503936,-0.004313113,0.000194034,1.013953567,0.038511634,9.757644653
1784246720.766033,0.004841967,-0.100948311,-1.007107854,0.000807554,-0.004252492,0.000390543,1.009196520,0.015767630,9.751217842
1784246720.768032,0.004843032,-0.100955471,-1.007102013,0.001010266,-0.004209128,0.000696131,1.008955240,0.033621874,9.761194229
1784246720.770037,0.004842931,-0.100958109,-1.007096767,0.000891622,-0.003654682,0.001246171,1.011366606,0.047886539,9.767117500
1784246720.772037,0.004839828,-0.100961953,-1.007096887,0.000483014,-0.003028985,0.001268505,0.979855001,0.038564209,9.748645782
1784246720.774042,0.004841825,-0.100968838,-1.007103801,0.000237294,-0.002964623,0.000452293,0.987970173,0.078786150,9.748463631
1784246720.776041,0.004841803,-0.100974247,-1.007107973,0.000238607,-0.003025904,-0.000431454,1.014766216,0.069342069,9.768156052
1784246720.778041,0.004837727,-0.100977309,-1.007106304,-0.000120379,-0.002782442,-0.000460459,1.034222245,0.081313819,9.750764847
1784246720.780044,0.004842037,-0.100981802,-1.007107377,-0.000163472,-0.002428664,-0.000281689,1.022866249,0.070233077,9.754269600
1784246720.782043,0.004842872,-0.100987032,-1.007106900,0.000129264,-0.002317765,-0.000260072,1.039422154,0.028014371,9.738771439
1784246720.784078,0.004842872,-0.100987032,-1.007106900,0.000213949,-0.002398246,-0.000137115,1.039422154,0.028014371,9.738771439
1784246720.786051,0.004834289,-0.100994341,-1.007107377,-0.000302508,-0.002414645,-0.000048226,1.008593678,0.039584655,9.742403030
1784246720.788044,0.004832597,-0.100995213,-1.007106304,-0.000693791,-0.002068661,0.000379536,1.038761139,0.048533507,9.752799988
1784246720.790087,0.004827744,-0.101000629,-1.007098556,-0.000779901,-0.001696088,0.001233697,1.061936736,0.034026977,9.734796524
1784246720.792058,0.004830295,-0.101000585,-1.007095933,-0.000697433,-0.001424799,0.001621502,1.077734828,0.040643744,9.720956802
1784246720.794084,0.004831521,-0.101008043,-1.007095933,-0.000201672,-0.001192327,0.001327241,1.066948891,0.041051615,9.746055603
1784246720.796060,0.004832013,-0.101007991,-1.007094145,0.000014936,-0.001021196,0.001076552,1.055362105,0.047907811,9.747881889
1784246720.798062,0.004830478,-0.101011381,-1.007091284,-0.000027440,-0.000967697,0.001109835,1.040209293,0.056211095,9.741641998
1784246720.800058,0.004829491,-0.101015538,-1.007093430,-0.000275434,-0.000996831,0.000880632,1.020367384,0.049198117,9.755478859
1784246720.802061,0.004833626,-0.101017848,-1.007095933,-0.000110809,-0.000947235,0.000299411,0.999658048,0.043648619,9.754077911
1784246720.804057,0.004834505,-0.101021841,-1.007094383,0.000259715,-0.001095238,0.000110044,1.016845942,0.018271802,9.763345718
1784246720.806063,0.004831852,-0.101025976,-1.007093668,0.000093718,-0.001326011,0.000241491,1.031033635,0.040955499,9.761263847
1784246720.808064,0.004837671,-0.101026215,-1.007094264,0.000283109,-0.001262379,0.000158515,1.044261456,0.055864014,9.720124245
1784246720.810061,0.004844027,-0.101033241,-1.007100821,0.000875144,-0.001145603,-0.000442373,1.018469095,0.040703487,9.756318092
1784246720.812062,0.004839489,-0.101034954,-1.007099867,0.000617817,-0.001162210,-0.000701256,1.024192333,0.030846735,9.745948792
1784246720.814066,0.004837701,-0.101041965,-1.007093072,0.000137855,-0.001266907,0.000047865,1.041400313,0.006842423,9.751192093
1784246720.816063,0.004834058,-0.101045072,-1.007087827,-0.000123022,-0.001435792,0.000863993,1.017803311,0.059160877,9.745226860
1784246720.818073,0.004835552,-0.101047076,-1.007090688,-0.000219310,-0.001393746,0.000791686,0.997538269,0.054380734,9.760869026
1784246720.820075,0.004837370,-0.101047516,-1.007091761,-0.000032919,-0.001147125,0.000289326,1.016990781,0.067137115,9.759176254
1784246720.822074,0.004834445,-0.101049796,-1.007090807,-0.000169215,-0.000984301,0.000211665,1.033901572,0.054871380,9.752388000
1784246720.824078,0.004832798,-0.101051360,-1.007093072,-0.000483766,-0.000719039,0.000101410,1.037240028,0.034200106,9.754949570
1784246720.826076,0.004829104,-0.101044551,-1.007096648,-0.000795944,0.000088948,-0.000282498,1.037992716,0.059289709,9.753767014
1784246720.828078,0.004827576,-0.101040982,-1.007098317,-0.000968236,0.000766738,-0.000525482,1.017278790,0.054918766,9.775686264
1784246720.830079,0.004827498,-0.101049230,-1.007101774,-0.000976355,0.000413272,-0.000707028,1.021428227,0.024234945,9.735591888
1784246720.832076,0.004828034,-0.101050220,-1.007100463,-0.000823304,-0.000153032,-0.000660232,1.038736701,0.007509291,9.725189209
1784246720.834079,0.004824033,-0.101044521,-1.007104874,-0.000664365,0.000460306,-0.000692557,1.026953101,0.035406321,9.729839325
1784246720.836119,0.004820565,-0.101038568,-1.007105589,-0.000832521,0.001378819,-0.000822240,1.018924713,0.040348340,9.742417336
1784246720.838093,0.004821708,-0.101036318,-1.007109880,-0.000797570,0.001560269,-0.000919180,1.023434281,0.042495687,9.747367859
1784246720.840087,0.004822692,-0.101033978,-1.007112741,-0.000465106,0.001618252,-0.001170243,1.036405206,0.038354535,9.739283562
1784246720.842129,0.004820703,-0.101030976,-1.007112503,-0.000403900,0.001714449,-0.001028194,1.057019234,0.038286839,9.774721146
1784246720.844100,0.004822904,-0.101034723,-1.007111788,-0.000236874,0.001457671,-0.000673614,1.052529216,0.035888691,9.741972923
1784246720.846094,0.004824443,-0.101033539,-1.007117271,0.000083310,0.001145020,-0.000830882,1.024719357,0.036321450,9.731188774
1784246720.848114,0.004819090,-0.101029970,-1.007115602,-0.000223546,0.001156405,-0.000836665,1.006415725,0.044588663,9.735708237
1784246720.850095,0.004817797,-0.101030812,-1.007113695,-0.000539328,0.001108486,-0.000317835,1.011412382,0.049869161,9.740230560
1784246720.852101,0.004818184,-0.101030678,-1.007118464,-0.000427227,0.000838887,-0.000428036,1.021647573,0.044202413,9.762619972
1784246720.854099,0.004819294,-0.101028226,-1.007124066,-0.000269257,0.000896863,-0.001030280,0.988327205,0.071168236,9.747965813
1784246720.856101,0.004825229,-0.101015463,-1.007124424,0.000252273,0.001797015,-0.001192805,0.999019742,0.025542332,9.718093872
1784246720.858097,0.004825557,-0.101003945,-1.007127523,0.000583032,0.002956277,-0.001146010,1.012454391,0.023946485,9.729305267
1784246720.860102,0.004823675,-0.101000376,-1.007129908,0.000384840,0.003302098,-0.001205655,1.015680671,0.030254001,9.718587875
1784246720.862100,0.004827479,-0.101000711,-1.007121444,0.000555443,0.002753904,-0.000476836,0.997514367,0.013766331,9.738639832
1784246720.864108,0.004824942,-0.101000175,-1.007116079,0.000657116,0.002045709,0.000557796,0.987864852,0.033475917,9.756690025
1784246720.866107,0.004825743,-0.100997396,-1.007119656,0.000445969,0.001735733,0.000517928,0.981831729,0.052945919,9.738877296
1784246720.868116,0.004833186,-0.100990020,-1.007114410,0.000893772,0.001953743,0.000438159,1.011498213,0.057030179,9.741172791
1784246720.870108,0.004835052,-0.100980394,-1.007108808,0.001350962,0.002647472,0.000978946,1.007018566,0.057551537,9.738929749
1784246720.872111,0.004835045,-0.100973628,-1.007111788,0.001124193,0.003107984,0.000866313,1.025277615,0.010937961,9.771377563
1784246720.874114,0.004832009,-0.100965105,-1.007112384,0.000706794,0.003448505,0.000404801,1.023531914,0.050155535,9.741141319
1784246720.876112,0.004827394,-0.100956485,-1.007112026,0.000114210,0.003824126,0.000321571,1.006850362,0.043254938,9.733458519
1784246720.878118,0.004824682,-0.100950457,-1.007117391,-0.000446764,0.003777161,-0.000065984,1.011585355,0.028234093,9.758024216
1784246720.880120,0.004815223,-0.100943245,-1.007122397,-0.001197958,0.003766632,-0.000673660,0.994088650,0.028073942,9.749040604
1784246720.882119,0.004807873,-0.100934640,-1.007118940,-0.001997877,0.003937805,-0.000483936,0.986580431,0.038843259,9.760311127
1784246720.884116,0.004811941,-0.100929506,-1.007112980,-0.001572459,0.003795658,0.000304255,0.999339879,0.016821830,9.746730804
1784246720.886116,0.004816493,-0.100924410,-1.007113457,-0.000486802,0.003451966,0.000517303,0.995583057,0.039764103,9.740598679
1784246720.888119,0.004818896,-0.100923255,-1.007117271,0.000085732,0.002937830,0.000038877,0.989836395,0.048626363,9.764859200
1784246720.890142,0.004821138,-0.100919850,-1.007121921,0.000321072,0.002422803,-0.000563449,0.993009984,0.050870437,9.758601189
1784246720.892128,0.004819678,-0.100913934,-1.007121444,0.000260254,0.002372220,-0.000693917,0.981485665,0.025493104,9.756632805
1784246720.894125,0.004821094,-0.100909747,-1.007120967,0.000305715,0.002350299,-0.000445751,0.963820457,0.010629728,9.736346245
1784246720.896134,0.004822558,-0.100903057,-1.007120132,0.000538289,0.002386178,-0.000264358,0.995109081,0.037949383,9.744621277
1784246720.898130,0.004824693,-0.100898251,-1.007118106,0.000654388,0.002520221,-0.000023389,0.985559821,0.064934455,9.747475624
1784246720.900132,0.004829662,-0.100887351,-1.007120371,0.000904974,0.002869508,-0.000080853,0.983296752,0.064403966,9.763160706
1784246720.902130,0.004829182,-0.100877441,-1.007121086,0.000892744,0.003469041,-0.000283568,0.984275699,0.033525087,9.756238937
1784246720.904136,0.004827677,-0.100864582,-1.007116795,0.000630765,0.004013641,0.000038302,0.956924975,0.034034766,9.733799934
1784246720.906132,0.004827315,-0.100855283,-1.007111073,0.000492721,0.004371152,0.000705890,0.963642657,0.033036720,9.736041069
1784246720.908136,0.004828403,-0.100852527,-1.007114649,0.000422796,0.004004614,0.000647222,0.975872934,0.042708013,9.740150452
1784246720.910136,0.004830400,-0.100850858,-1.007117748,0.000511728,0.003163876,-0.000012253,0.972527206,0.062105373,9.727717400
1784246720.912136,0.004834986,-0.100850798,-1.007119417,0.000827372,0.002367936,-0.000366934,0.967574954,0.062848315,9.758203506
1784246720.914136,0.004837735,-0.100845113,-1.007123232,0.000987663,0.002023175,-0.000678273,0.953562558,0.054921899,9.763968468
1784246720.916145,0.004840860,-0.100834198,-1.007122517,0.001021639,0.002509884,-0.000738634,0.978015244,0.072174154,9.751101494
1784246720.918150,0.004845897,-0.100827627,-1.007114887,0.001353669,0.003018478,-0.000023083,0.970160961,0.053463865,9.750077248
1784246720.920148,0.004849824,-0.100823060,-1.007110715,0.001626466,0.002955230,0.000730493,0.951204717,0.044727035,9.752693176
1784246720.922144,0.004858752,-0.100815378,-1.007111788,0.002026368,0.002982856,0.000648383,0.974546015,0.044091400,9.737019539
1784246720.924162,0.004866889,-0.100811332,-1.007113934,0.002644053,0.002984341,0.000119634,0.972805321,0.047783937,9.724936485
1784246720.926162,0.004867787,-0.100806199,-1.007115602,0.002549615,0.002811080,-0.000231287,0.960021734,0.068804517,9.753303528
1784246720.928162,0.004860213,-0.100801013,-1.007112861,0.001413680,0.002747709,-0.000055031,0.962019265,0.048191827,9.750035286
1784246720.930167,0.004856186,-0.100797191,-1.007113218,0.000221695,0.002470600,0.000215919,0.983677983,0.056976829,9.735765457
1784246720.932164,0.004860708,-0.100789465,-1.007113457,0.000151438,0.002441775,0.000144757,0.965781629,0.061667334,9.738468170
1784246720.934232,0.004866904,-0.100779749,-1.007117391,0.000793360,0.002901385,-0.000246288,0.952617109,0.048474722,9.727163315
1784246720.936173,0.004871233,-0.100780427,-1.007124424,0.001201602,0.002663640,-0.000985741,0.955563605,0.033931192,9.750834465
1784246720.938168,0.004876265,-0.100775570,-1.007127285,0.001441623,0.002220523,-0.001435760,0.940476000,0.047613204,9.744182587
1784246720.940171,0.004876556,-0.100766674,-1.007132411,0.001314044,0.002386072,-0.001616939,0.926772177,0.026417084,9.725203514
1784246720.942173,0.004878217,-0.100760035,-1.007128358,0.001040503,0.002631626,-0.001261119,0.927523255,0.053114124,9.750033379
1784246720.944173,0.004881950,-0.100762703,-1.007124186,0.001120252,0.001993775,-0.000392253,0.932173610,0.066908441,9.755058289
1784246720.946178,0.004882158,-0.100762352,-1.007124782,0.001047853,0.001100417,-0.000068769,0.947050095,0.034539267,9.743656158
1784246720.948211,0.004869187,-0.100755222,-1.007126808,-0.000115907,0.001309438,-0.000136971,0.967395246,0.048056062,9.759453773
1784246720.950183,0.004858812,-0.100751847,-1.007128119,-0.001595345,0.001576404,-0.000168968,0.962291420,0.071009211,9.754216194
1784246720.952181,0.004852431,-0.100750342,-1.007129550,-0.002225167,0.001388184,-0.000211749,0.932301044,0.039240398,9.739190102
1784246720.954175,0.004844220,-0.100745149,-1.007132411,-0.002593719,0.001214761,-0.000351285,0.928317666,0.042968035,9.726207733
1784246720.956182,0.004843665,-0.100748539,-1.007128596,-0.002432592,0.000757816,-0.000129162,0.965150535,0.047265198,9.748687744
1784246720.958189,0.004848627,-0.100749336,-1.007126093,-0.001431536,0.000269754,0.000303969,0.972492278,0.060208600,9.742499352
1784246720.960191,0.004855936,-0.100753285,-1.007131100,-0.000284500,-0.000050317,-0.000029504,0.952750564,0.061281171,9.753249168
1784246720.962178,0.004855702,-0.100748122,-1.007134676,0.000158560,0.000119055,-0.000649904,0.948108912,0.048770320,9.756749153
1784246720.964184,0.004852345,-0.100735582,-1.007130384,-0.000125666,0.001108741,-0.000412028,0.931587458,0.055292644,9.751397133
1784246720.966178,0.004845566,-0.100733332,-1.007128000,-0.000733697,0.001633284,0.000210826,0.926826239,0.070106804,9.755970955
1784246720.968182,0.004846239,-0.100730881,-1.007127762,-0.000928293,0.001510525,0.000373321,0.952708423,0.057300393,9.746049881
1784246720.970182,0.004849984,-0.100720666,-1.007130384,-0.000450070,0.001812940,0.000079674,0.949569046,0.057353351,9.744253159
1784246720.972205,0.004849786,-0.100713342,-1.007136703,-0.000205614,0.002361008,-0.000565828,0.942611933,0.039845109,9.761619568
1784246720.974191,0.004852994,-0.100707106,-1.007140040,0.000095840,0.002453287,-0.001091739,0.946559131,0.031374317,9.748567581
1784246720.976193,0.004850922,-0.100708641,-1.007136822,0.000253212,0.001923225,-0.000828421,0.952785730,0.064801253,9.762238503
1784246720.978194,0.004843080,-0.100714087,-1.007132888,-0.000435696,0.000930121,-0.000045545,0.961752951,0.064632222,9.769867897
1784246720.980192,0.004840212,-0.100708522,-1.007135630,-0.001041960,0.000498204,0.000129090,0.952043653,0.076980852,9.752003670
1784246720.982198,0.004841393,-0.100705735,-1.007142782,-0.000951276,0.000740884,-0.000570122,0.939170778,0.051195052,9.746893883
1784246720.984204,0.004841334,-0.100703619,-1.007145882,-0.000671098,0.000645599,-0.001116770,0.965074956,0.077773646,9.743055344
1784246720.986198,0.004833618,-0.100704804,-1.007142663,-0.000996084,0.000307145,-0.000741109,0.954661965,0.070284173,9.743892670
1784246720.988206,0.004832437,-0.100701027,-1.007142425,-0.001302010,0.000401876,-0.000230979,0.959064424,0.063075207,9.741608620
1784246720.990197,0.004835167,-0.100698166,-1.007145524,-0.000960859,0.000683896,-0.000362722,0.943179131,0.046854477,9.719969749
1784246720.992200,0.004831525,-0.100702845,-1.007143021,-0.000863598,0.000314004,-0.000299676,0.916943848,0.068120673,9.738014221
1784246720.994200,0.004834523,-0.100704841,-1.007143736,-0.000763062,-0.000514858,-0.000076298,0.933101535,0.033195548,9.768741608
1784246720.996205,0.004836960,-0.100710325,-1.007145762,-0.000309916,-0.001174665,-0.000256263,0.948441446,0.039741755,9.765659332
1784246720.998206,0.004839363,-0.100713253,-1.007139564,0.000130120,-0.001425289,0.000065386,0.973214746,0.046253067,9.750481606
1784246721.000204,0.004838252,-0.100713357,-1.007138133,0.000290479,-0.001319701,0.000553781,0.956299424,0.058887262,9.768480301
1784246721.002203,0.004839053,-0.100717723,-1.007142425,0.000227029,-0.001344516,0.000204697,0.958593309,0.061282746,9.742493629
1784246721.004212,0.004840894,-0.100719117,-1.007145405,0.000269797,-0.001559661,-0.000357444,0.976938784,0.056183048,9.733512878
1784246721.006206,0.004841560,-0.100721702,-1.007143021,0.000337391,-0.001593557,-0.000314921,0.942241549,0.045737945,9.752691269
1784246721.008214,0.004841285,-0.100724511,-1.007144451,0.000278872,-0.001527754,-0.000175299,0.952899873,0.074211620,9.761849403
1784246721.010212,0.004841825,-0.100725457,-1.007147551,0.000109774,-0.001548236,-0.000435204,0.970320165,0.066473812,9.747470856
1784246721.012214,0.004840409,-0.100726113,-1.007150769,-0.000101988,-0.001417544,-0.000732183,0.934672296,0.050756894,9.753611565
1784246721.014212,0.004836136,-0.100722238,-1.007151008,-0.000507156,-0.001068969,-0.000730894,0.981963992,0.027746243,9.753958702
1784246721.016216,0.004833160,-0.100727439,-1.007149935,-0.000878687,-0.001122079,-0.000424907,0.956977129,0.040525254,9.766120911
1784246721.018225,0.004839322,-0.100729749,-1.007153988,-0.000445222,-0.001328361,-0.000526745,0.967837453,0.045972664,9.736577034
1784246721.020223,0.004842488,-0.100734204,-1.007155538,0.000287483,-0.001427806,-0.000816610,0.962669849,0.028400082,9.759772301
1784246721.022220,0.004841698,-0.100737862,-1.007151961,0.000403105,-0.001589169,-0.000469327,0.968823493,0.055171214,9.764432907
1784246721.024230,0.004841397,-0.100745507,-1.007151604,0.000140513,-0.001973964,-0.000055909,0.976327062,0.043960303,9.752263069
1784246721.026223,0.004838815,-0.100755975,-1.007152319,-0.000199833,-0.002718994,-0.000028341,0.982649267,0.048251312,9.767540932
1784246721.028227,0.004841076,-0.100759111,-1.007149696,-0.000154864,-0.002905580,0.000102502,0.982417047,0.064555362,9.743434906
1784246721.030230,0.004838014,-0.100758977,-1.007147670,-0.000186668,-0.002285950,0.000382445,0.955488682,0.065256067,9.756415367
1784246721.032228,0.004834725,-0.100764140,-1.007148623,-0.000608664,-0.001973032,0.000386406,0.959749043,0.043957170,9.719519615
1784246721.034226,0.004831882,-0.100773439,-1.007153273,-0.000923814,-0.002552298,-0.000048462,0.967591584,0.063385300,9.745654106
1784246721.036227,0.004825609,-0.100784346,-1.007159710,-0.001391892,-0.003365594,-0.000710802,1.002474904,0.054730486,9.765808105
1784246721.038235,0.004821246,-0.100794300,-1.007158637,-0.001768978,-0.003870011,-0.000813789,0.973327935,0.056467138,9.763101578
1784246721.040236,0.004819294,-0.100801967,-1.007158995,-0.001716436,-0.003991338,-0.000507834,0.990371048,0.054568116,9.747413635
1784246721.042235,0.004818073,-0.100806378,-1.007159352,-0.001474932,-0.003703267,-0.000390840,0.972022295,0.059235755,9.754150391
1784246721.044239,0.004822722,-0.100808620,-1.007159710,-0.000898048,-0.003209525,-0.000339496,0.984861314,0.044731084,9.754518509
1784246721.046243,0.004825889,-0.100813128,-1.007155657,-0.000152974,-0.002854891,-0.000048879,1.004140139,0.041526202,9.729410172
1784246721.048259,0.004828317,-0.100817628,-1.007152438,0.000315904,-0.002687292,0.000414935,0.997435987,0.045062583,9.748256683
1784246721.050249,0.004823906,-0.100823805,-1.007156968,0.000169620,-0.002646724,0.000228086,1.002047300,0.056118265,9.760436058
1784246721.052244,0.004816658,-0.100830756,-1.007161260,-0.000642905,-0.002786784,-0.000361393,0.999592841,0.074239738,9.736788750
1784246721.054248,0.004816561,-0.100833528,-1.007162213,-0.001106685,-0.002693646,-0.000554858,0.982465923,0.068993643,9.749290466
1784246721.056249,0.004818233,-0.100835338,-1.007161736,-0.000808519,-0.002274329,-0.000422049,1.000137210,0.045504663,9.744227409
1784246721.058247,0.004815883,-0.100842118,-1.007161498,-0.000630565,-0.002238870,-0.000254659,0.991218626,0.049705353,9.736622810
1784246721.060250,0.004811039,-0.100850992,-1.007161856,-0.000921192,-0.002622377,-0.000153717,0.979082644,0.051315386,9.784144402
1784246721.062253,0.004812332,-0.100854076,-1.007162929,-0.000894890,-0.002651672,-0.000186721,0.986740291,0.052263014,9.763087273
1784246721.064260,0.004814959,-0.100856438,-1.007158399,-0.000366109,-0.002302296,0.000080940,1.003620028,0.036915611,9.748656273
1784246721.066257,0.004816602,-0.100861713,-1.007152677,0.000088775,-0.002195291,0.000726512,0.991624057,0.048142690,9.766652107
1784246721.068259,0.004811017,-0.100872986,-1.007152915,-0.000164362,-0.002721349,0.000921734,0.992198944,0.057642687,9.752815247
1784246721.070257,0.004807437,-0.100878142,-1.007154226,-0.000817790,-0.003096863,0.000630005,1.014255166,0.026401399,9.758912086
1784246721.072258,0.004807672,-0.100880980,-1.007155418,-0.000907640,-0.002797947,0.000312976,1.016524076,0.027789669,9.748611450
1784246721.074260,0.004802077,-0.100886375,-1.007160425,-0.001008300,-0.002542373,-0.000152496,0.996705294,0.021364553,9.742722511
1784246721.076263,0.004797827,-0.100894257,-1.007154942,-0.001339573,-0.002698271,-0.000024555,0.986294746,0.050267432,9.729448318
1784246721.078263,0.004788133,-0.100898407,-1.007148385,-0.001835577,-0.002778079,0.000880763,1.024378896,0.046503119,9.749187469
1784246721.080272,0.004782568,-0.100903474,-1.007153153,-0.002336625,-0.002524630,0.000873875,1.027405500,0.073829226,9.744434357
1784246721.082265,0.004784047,-0.100907072,-1.007156014,-0.002012492,-0.002307001,0.000148064,1.041539192,0.054849952,9.741637230
1784246721.084301,0.004780466,-0.100915372,-1.007155657,-0.001669839,-0.002259598,-0.000056200,1.004651785,0.048906859,9.761736870
1784246721.086274,0.004775344,-0.100921310,-1.007157207,-0.001856226,-0.002383243,-0.000062163,0.993569851,0.021852752,9.742723465
1784246721.088270,0.004777486,-0.100922257,-1.007161140,-0.001590556,-0.002205666,-0.000389311,0.995992124,0.036203280,9.736540794
1784246721.090269,0.004778969,-0.100920744,-1.007162571,-0.000884819,-0.001541518,-0.000677997,1.033860087,0.051707033,9.756403923
1784246721.092270,0.004779859,-0.100925960,-1.007162690,-0.000428706,-0.001346716,-0.000619227,1.024632215,0.067144305,9.744387627
1784246721.094280,0.004780284,-0.100932717,-1.007166982,-0.000354414,-0.001687005,-0.000741976,1.017345428,0.021503530,9.749019623
1784246721.096281,0.004782143,-0.100936107,-1.007165790,-0.000226785,-0.001810144,-0.000758378,1.046124578,0.027298927,9.764328957
1784246721.098283,0.004780381,-0.100943200,-1.007161021,-0.000118570,-0.002029772,-0.000157266,1.025561810,0.033444129,9.756278038
1784246721.100280,0.004779930,-0.100948304,-1.007160664,-0.000184090,-0.002169992,0.000244416,1.008764029,0.018333951,9.769166946
1784246721.102280,0.004780358,-0.100950815,-1.007163644,-0.000136807,-0.001963859,-0.000002649,1.037193060,0.030587789,9.758961678
1784246721.104284,0.004782687,-0.100960024,-1.007162809,0.000076049,-0.002031720,-0.000165512,1.056805849,0.055550408,9.741656303
1784246721.106283,0.004783648,-0.100964464,-1.007163405,0.000283595,-0.002208713,-0.000122318,1.029312968,0.044400387,9.720933914
1784246721.108293,0.004780675,-0.100968257,-1.007167220,0.000039494,-0.002169625,-0.000379372,1.048104048,0.078482792,9.745829582
1784246721.110295,0.004780157,-0.100970179,-1.007170439,-0.000296365,-0.001742470,-0.000727129,1.050118327,0.022033818,9.741432190
1784246721.112294,0.004780746,-0.100970656,-1.007166982,-0.000250360,-0.001203314,-0.000509388,1.038423777,0.020744022,9.754863739
1784246721.114290,0.004776626,-0.100981914,-1.007165194,-0.000278928,-0.001459951,-0.000011498,1.042582273,0.029746892,9.741476059
1784246721.116291,0.004777699,-0.100985795,-1.007166862,-0.000301449,-0.001878777,0.000006931,1.039796233,0.021340074,9.731556892
1784246721.118299,0.004775825,-0.100981973,-1.007167697,-0.000290570,-0.001373112,-0.000155601,1.025196195,0.040185187,9.754078865
1784246721.120295,0.004770885,-0.100978762,-1.007172465,-0.000673718,-0.000423443,-0.000451905,1.003011107,0.023905050,9.752161026
1784246721.122297,0.004769853,-0.100977123,-1.007168531,-0.000864738,0.000121556,-0.000361557,1.030057788,0.031432990,9.715919495
1784246721.124298,0.004769537,-0.100979879,-1.007164121,-0.000610311,0.000258695,0.000299148,1.048579693,0.042720255,9.733494759
1784246721.126297,0.004770685,-0.100980878,-1.007163525,-0.000299794,0.000178695,0.000544988,1.044203281,0.050945975,9.718748093
1784246721.128304,0.004776536,-0.100982197,-1.007161856,0.000268926,-0.000025833,0.000489136,1.043992519,0.035908885,9.754518509
1784246721.130300,0.004779353,-0.100986034,-1.007158160,0.000881628,-0.000178187,0.000647314,1.036784410,0.034151800,9.762570381
1784246721.132303,0.004779502,-0.100983068,-1.007155299,0.000951123,0.000002100,0.000889933,1.038183093,0.037791368,9.752283096
1784246721.134307,0.004781495,-0.100981124,-1.007155895,0.000879398,0.000460512,0.000779476,1.004282236,0.018836234,9.769613266
1784246721.136308,0.004782899,-0.100981027,-1.007157803,0.000880023,0.000597891,0.000373066,1.007781148,0.047560886,9.756351471
1784246721.138307,0.004783734,-0.100982778,-1.007159472,0.000768037,0.000321530,0.000020570,1.039341450,0.022108205,9.750391006
1784246721.140310,0.004779066,-0.100986265,-1.007156730,0.000449820,0.000048655,0.000105989,1.028349042,0.041050401,9.752742767
1784246721.142308,0.004779025,-0.100983582,-1.007152081,0.000202194,0.000153369,0.000603126,1.033928752,0.019117774,9.739605904
1784246721.144316,0.004780347,-0.100986607,-1.007156730,0.000367781,0.000337235,0.000424880,1.036732912,0.029287819,9.753571510
1784246721.146318,0.004780269,-0.100981176,-1.007159233,0.000437291,0.000654710,-0.000191428,1.023395300,0.040970564,9.772912025
1784246721.148341,0.004782333,-0.100974396,-1.007164121,0.000402060,0.001301005,-0.000656278,1.014603496,0.053873286,9.738465309
1784246721.150325,0.004785213,-0.100973092,-1.007165790,0.000591309,0.001589292,-0.000959488,1.027325392,0.066712722,9.737215042
1784246721.152326,0.004788997,-0.100971162,-1.007167220,0.000869737,0.001472367,-0.000947298,1.014567614,0.051156908,9.742482185
1784246721.154321,0.004792573,-0.100964747,-1.007162213,0.001147114,0.001689603,-0.000485319,1.024155378,0.028527441,9.757143021
1784246721.156324,0.004789567,-0.100964122,-1.007160187,0.000913651,0.001760897,0.000120828,1.042380571,0.050342958,9.743848801
1784246721.158325,0.004787969,-0.100970119,-1.007162094,0.000355204,0.000919717,0.000123564,1.022036910,0.038055576,9.744198799
1784246721.160327,0.004787343,-0.100968711,-1.007167339,0.000096181,0.000488422,-0.000378648,0.986707628,0.049978696,9.769348145
1784246721.162330,0.004785324,-0.100957394,-1.007173538,-0.000151422,0.001346694,-0.001044946,1.007121205,0.028876271,9.738747597
1784246721.164338,0.004792253,-0.100951992,-1.007168055,0.000265941,0.002213383,-0.000860125,1.017561197,0.039822243,9.755862236
1784246721.166332,0.004801451,-0.100942492,-1.007163882,0.001398946,0.002723949,-0.000093028,0.996611238,0.050916653,9.745603561
1784246721.168333,0.004803571,-0.100938216,-1.007161856,0.001825111,0.002921422,0.000265618,0.998575807,0.064796351,9.743452072
1784246721.170330,0.004804397,-0.100934349,-1.007163048,0.001499002,0.002659932,0.000234789,1.007644892,0.035542242,9.745513916
1784246721.172350,0.004798229,-0.100931786,-1.007166505,0.000664192,0.002351766,-0.000096154,1.016303301,0.046209507,9.742005348
1784246721.174355,0.004794321,-0.100931145,-1.007163882,-0.000180227,0.002074159,-0.000067138,1.002145648,0.064594559,9.765422821
1784246721.176372,0.004794350,-0.100929476,-1.007162690,-0.000344630,0.001811406,0.000225157,0.989769578,0.043641560,9.772896767
1784246721.178353,0.004797327,-0.100921720,-1.007163525,-0.000044216,0.001959108,0.000169870,0.988261044,0.027786579,9.736927986
1784246721.180345,0.004802021,-0.100918539,-1.007163882,0.000483693,0.002190255,-0.000013641,0.997644484,0.024924019,9.744540215
1784246721.182341,0.004803146,-0.100915991,-1.007170558,0.000702568,0.002002770,-0.000528660,1.014820695,0.035018202,9.743276596
1784246721.184349,0.004800766,-0.100913703,-1.007167935,0.000373851,0.001923900,-0.000651575,1.030451059,0.028558230,9.741457939
1784246721.186343,0.004797250,-0.100910977,-1.007163405,-0.000102362,0.001882124,0.000052873,1.051421642,0.055215951,9.735370636
1784246721.188356,0.004796459,-0.100906655,-1.007161736,-0.000322549,0.001850768,0.000494045,1.009166360,0.049472202,9.737088203
1784246721.190346,0.004793281,-0.100903131,-1.007156849,-0.000517595,0.001972180,0.000834235,0.999666870,0.043718569,9.744214058
1784246721.192349,0.004796701,-0.100895986,-1.007151484,-0.000350712,0.002253959,0.001300249,0.996330619,0.064812377,9.745243073
1784246721.194353,0.004800564,-0.100891881,-1.007151604,0.000151244,0.002439456,0.001261142,0.993333161,0.039741978,9.747769356
1784246721.196352,0.004796179,-0.100884780,-1.007158756,-0.000096068,0.002568069,0.000437363,1.010119200,0.017576588,9.747195244
1784246721.198353,0.004795803,-0.100881763,-1.007158637,-0.000440202,0.002555313,-0.000127501,0.992023587,0.043695472,9.761244774
1784246721.200361,0.004799573,-0.100878641,-1.007147312,0.000027068,0.002314983,0.000652274,0.987826645,0.065090127,9.721474648
1784246721.202352,0.004799182,-0.100872755,-1.007144213,0.000387215,0.002336466,0.001420028,0.992100298,0.047543082,9.724056244
1784246721.204358,0.004795282,-0.100868180,-1.007150531,-0.000015842,0.002438261,0.000841488,0.992122054,0.050551623,9.742009163
1784246721.206359,0.004795151,-0.100859262,-1.007157326,-0.000359952,0.002715048,-0.000246841,0.969157159,0.042505275,9.717725754
1784246721.208361,0.004802147,-0.100855500,-1.007158637,0.000147268,0.002834856,-0.000768151,0.976042628,0.019020738,9.731479645
1784246721.210360,0.004802207,-0.100854501,-1.007153988,0.000762015,0.002356866,-0.000392504,0.982225120,0.048451025,9.740192413
1784246721.212366,0.004804148,-0.100849450,-1.007150054,0.000902565,0.002099641,0.000260258,0.986121237,0.035929497,9.729804993
1784246721.214363,0.004807117,-0.100842111,-1.007149696,0.001046877,0.002381553,0.000449640,0.979580820,0.053320877,9.753223419
1784246721.216368,0.004811844,-0.100837328,-1.007146955,0.001332822,0.002567528,0.000497523,0.973892689,0.065887652,9.760471344
1784246721.218371,0.004817276,-0.100837588,-1.007146239,0.001680111,0.002179533,0.000529710,0.957933307,0.044624902,9.754940033
1784246721.220372,0.004819254,-0.100830287,-1.007144928,0.001717109,0.001971653,0.000481024,0.966564476,0.052645739,9.745583534
1784246721.222375,0.004820107,-0.100824133,-1.007143378,0.001441175,0.002254907,0.000537756,0.956984639,0.042205811,9.781823158
1784246721.224371,0.004819931,-0.100816526,-1.007137895,0.001185616,0.002496071,0.000868021,0.972587705,0.032692794,9.768327713
1784246721.226410,0.004823251,-0.100809619,-1.007134318,0.001180519,0.002723027,0.001235552,0.970008254,0.077691309,9.745748520
1784246721.228379,0.004823333,-0.100801043,-1.007135391,0.001107133,0.003035875,0.001052710,0.983810127,0.067340352,9.727314949
1784246721.230378,0.004825050,-0.100796327,-1.007136583,0.000871668,0.003087633,0.000611360,0.980064631,0.055618528,9.744273186
1784246721.232381,0.004821455,-0.100796722,-1.007136703,0.000458258,0.002515420,0.000376318,0.976968944,0.058448285,9.729940414
1784246721.234376,0.004827338,-0.100791477,-1.007131219,0.000463833,0.002128715,0.000620940,0.981007636,0.022429900,9.747199059
1784246721.236378,0.004834453,-0.100784890,-1.007125616,0.001231709,0.002322754,0.001127940,0.943683505,0.052151136,9.730317116
1784246721.238389,0.004833793,-0.100783162,-1.007130623,0.001338382,0.002257097,0.000827496,0.957604766,0.054495331,9.753657341
1784246721.240384,0.004830645,-0.100776553,-1.007135391,0.000639032,0.002113524,-0.000024957,0.938053727,0.071662724,9.768992424
1784246721.242385,0.004829960,-0.100774042,-1.007137418,0.000147749,0.002061517,-0.000447068,0.955983639,0.068452820,9.747020721
1784246721.244392,0.004829416,-0.100766629,-1.007133484,-0.000011839,0.002090058,-0.000194280,0.961653888,0.056959663,9.777887344
1784246721.246389,0.004824372,-0.100761466,-1.007131934,-0.000397989,0.002292093,0.000261232,0.973091960,0.035962675,9.748622894
1784246721.248423,0.004821131,-0.100757100,-1.007132411,-0.000842721,0.002316701,0.000321347,0.969594598,0.080810532,9.748907089
1784246721.250401,0.004825267,-0.100751095,-1.007137299,-0.000659115,0.002350143,-0.000121365,0.966514111,0.084974639,9.735929489
1784246721.252396,0.004827044,-0.100746758,-1.007139683,-0.000199542,0.002371987,-0.000605839,0.952361345,0.066214494,9.753279686
1784246721.254396,0.004823891,-0.100747310,-1.007134914,-0.000287918,0.001866171,-0.000258332,0.938285470,0.053328712,9.763494492
1784246721.256438,0.004820419,-0.100747690,-1.007138729,-0.000717221,0.001178082,-0.000079744,0.933637500,0.037526701,9.725728989
1784246721.258468,0.004824249,-0.100738123,-1.007134676,-0.000496630,0.001481695,-0.000052624,0.940833271,0.041211985,9.761627197
1784246721.260464,0.004826339,-0.100726530,-1.007134199,0.000122461,0.002344354,0.000224160,0.948822975,0.033937939,9.762036324
1784246721.262421,0.004824656,-0.100725070,-1.007136941,0.000152636,0.002422011,-0.000011186,0.944507539,0.047507394,9.751808167
1784246721.264415,0.004821790,-0.100723162,-1.007135630,-0.000175387,0.001905719,-0.000078070,0.935225666,0.022498405,9.757019043
1784246721.266458,0.004823321,-0.100718878,-1.007133126,-0.000159919,0.001722751,0.000217670,0.967456818,0.052189451,9.745134354
1784246721.268437,0.004826462,-0.100709282,-1.007132649,0.000219824,0.002198125,0.000328779,0.954001606,0.052003004,9.732566833
1784246721.270423,0.004826000,-0.100704610,-1.007125974,0.000422476,0.002453462,0.000697926,0.953723311,0.067537941,9.753737450
1784246721.272466,0.004823932,-0.100708209,-1.007125735,0.000216808,0.001743211,0.000979342,0.965424061,0.032502167,9.745005608
1784246721.274439,0.004827629,-0.100708932,-1.007128239,0.000354694,0.000938696,0.000533344,0.964981079,0.034579203,9.768780708
1784246721.276435,0.004841192,-0.100711673,-1.007123828,0.001540247,0.000411805,0.000391010,0.949789166,0.076517120,9.758274078
1784246721.278421,0.004841710,-0.100708790,-1.007114172,0.002169957,0.000313280,0.001136975,0.929837823,0.059725303,9.761286736
1784246721.280424,0.004834661,-0.100700982,-1.007113934,0.001170074,0.000762097,0.001536571,0.922356844,0.071114279,9.748351097
1784246721.282446,0.004831864,-0.100702412,-1.007116795,0.000132962,0.000791378,0.001013192,0.953377724,0.039278246,9.758935928
1784246721.284445,0.004833238,-0.100701883,-1.007117748,-0.000030515,0.000357122,0.000503955,0.942873836,0.062176388,9.771177292
1784246721.286442,0.004826969,-0.100699611,-1.007117748,-0.000364350,0.000293747,0.000350672,0.959804237,0.050066464,9.742423058
1784246721.288435,0.004826008,-0.100700542,-1.007120013,-0.000769457,0.000303878,0.000148804,0.949707031,0.068574645,9.741188049
1784246721.290432,0.004829070,-0.100695953,-1.007121921,-0.000558112,0.000288905,-0.000178093,0.977971375,0.065750428,9.709364891
1784246721.292434,0.004827524,-0.100694306,-1.007118464,-0.000403155,0.000455545,-0.000018104,0.949986517,0.092259340,9.749408722
1784246721.294440,0.004831096,-0.100696012,-1.007118821,-0.000276501,0.000198255,0.000186618,0.960519195,0.072830416,9.753330231
1784246721.296440,0.004832665,-0.100700714,-1.007120013,-0.000007295,-0.000420962,-0.000009353,0.935816348,0.069308944,9.725935936
1784246721.298448,0.004832009,-0.100700669,-1.007114887,0.000082117,-0.000621351,0.000246251,0.941821992,0.047189329,9.738351822
1784246721.300455,0.004831882,-0.100695506,-1.007113814,0.000026307,-0.000209159,0.000615892,0.947898030,0.029679690,9.732418060
1784246721.302450,0.004831662,-0.100695580,-1.007123232,-0.000084474,0.000079964,-0.000107852,0.945156097,0.063669592,9.746083260
1784246721.304445,0.004833518,-0.100701712,-1.007128239,-0.000136012,-0.000445149,-0.001054337,0.971233487,0.066182882,9.723707199
1784246721.306442,0.004834438,-0.100703515,-1.007125378,-0.000013966,-0.000942385,-0.000931894,0.953623712,0.057835426,9.732156754
1784246721.308450,0.004828310,-0.100709170,-1.007127523,-0.000358355,-0.001193387,-0.000608092,0.970259547,0.061943334,9.754613876
1784246721.310446,0.004825859,-0.100711696,-1.007130265,-0.000935054,-0.001478729,-0.000698227,0.943669736,0.054069791,9.775610924
1784246721.312449,0.004827327,-0.100715354,-1.007130504,-0.000829487,-0.001548715,-0.000690078,0.932333767,0.044361558,9.775087357
1784246721.314450,0.004832016,-0.100717179,-1.007127881,-0.000174977,-0.001625807,-0.000376489,0.932699978,0.036410157,9.758450508
1784246721.316451,0.004838141,-0.100723535,-1.007126808,0.000625175,-0.001865777,-0.000094397,0.934592426,0.044047013,9.752223969
1784246721.318467,0.004843539,-0.100728035,-1.007123828,0.001261686,-0.002095279,0.000128936,0.942912400,0.026511814,9.745841980
1784246721.320461,0.004841419,-0.100734532,-1.007123113,0.001181547,-0.002382820,0.000326201,0.969126761,0.043480318,9.769738197
1784246721.322457,0.004831793,-0.100746542,-1.007125616,0.000069564,-0.003101246,0.000194619,0.944199026,0.059156962,9.752330780
1784246721.324460,0.004827386,-0.100748509,-1.007125735,-0.000936171,-0.003334293,0.000063966,0.947506964,0.035813812,9.752631187
1784246721.326460,0.004830031,-0.100747690,-1.007124066,-0.000810035,-0.002632581,0.000173577,0.961620390,0.053858899,9.772936821
1784246721.328460,0.004827979,-0.100748695,-1.007118464,-0.000499919,-0.001927967,0.000615888,0.954864681,0.051314607,9.764842987
1784246721.330459,0.004825181,-0.100752972,-1.007114649,-0.000658586,-0.001825604,0.001115724,0.944584131,0.054191831,9.756782532
1784246721.332462,0.004818896,-0.100757264,-1.007120371,-0.001136557,-0.001976688,0.000755944,0.963405311,0.050516125,9.735704422
1784246721.334465,0.004814668,-0.100758061,-1.007120728,-0.001607538,-0.001795780,0.000224497,0.983326495,0.065449335,9.742096901
1784246721.336528,0.004821284,-0.100762345,-1.007116437,-0.001011713,-0.001659657,0.000416517,0.969512999,0.075708076,9.773531914
1784246721.338522,0.004819392,-0.100770459,-1.007115722,-0.000384181,-0.002048889,0.000608144,0.963698983,0.076338895,9.758287430
1784246721.340513,0.004817346,-0.100769997,-1.007113099,-0.000647971,-0.002126453,0.000711640,0.963623226,0.070067428,9.758247375
1784246721.342495,0.004817182,-0.100769654,-1.007112622,-0.000725339,-0.001608000,0.000754318,0.959434211,0.057582624,9.757266998
1784246721.344507,0.004815752,-0.100770839,-1.007116199,-0.000673547,-0.001354816,0.000351644,0.956389606,0.029303357,9.770084381
1784246721.346512,0.004811553,-0.100772284,-1.007118344,-0.000926103,-0.001292352,-0.000087256,0.978025973,0.035480089,9.744589806
1784246721.348515,0.004807612,-0.100771181,-1.007112503,-0.001198928,-0.000961887,0.000244322,0.971294403,0.035963416,9.751759529
1784246721.350542,0.004806268,-0.100772567,-1.007104039,-0.001128529,-0.000764253,0.001172029,0.960934758,0.032947209,9.753522873
1784246721.352506,0.004807478,-0.100774385,-1.007101655,-0.000753309,-0.000820102,0.001576478,0.958111048,0.022217913,9.755245209
1784246721.354491,0.004802043,-0.100777440,-1.007107615,-0.000769121,-0.001049905,0.000930908,0.950420201,0.053329285,9.741538048
1784246721.356531,0.004796743,-0.100788876,-1.007113218,-0.001274823,-0.001874966,-0.000031231,0.987815082,0.065404564,9.740306854
1784246721.358500,0.004793009,-0.100797549,-1.007110238,-0.001556986,-0.002732587,-0.000137722,1.013571501,0.078658767,9.720241547
1784246721.360494,0.004793333,-0.100800700,-1.007107496,-0.001467120,-0.002679780,0.000312447,1.006540298,0.054081708,9.723663330
1784246721.362508,0.004794559,-0.100805119,-1.007108092,-0.001090535,-0.002355019,0.000371703,0.986549735,0.072138041,9.740797043
1784246721.364494,0.004791344,-0.100808136,-1.007107615,-0.000961697,-0.002224085,0.000287688,0.981806517,0.050315384,9.730790138
1784246721.366495,0.004791415,-0.100809947,-1.007104516,-0.000920735,-0.001949688,0.000480122,0.992080748,0.047793902,9.751855850
1784246721.368499,0.004789630,-0.100816496,-1.007102251,-0.000749055,-0.001985976,0.000727529,0.983284116,0.062278621,9.747007370
1784246721.370499,0.004792726,-0.100817993,-1.007102013,-0.000569271,-0.002011784,0.000709283,1.007116556,0.030461440,9.767897606
1784246721.372499,0.004794615,-0.100818999,-1.007100940,-0.000198915,-0.001654518,0.000590155,0.993670940,0.031161370,9.756681442
1784246721.374505,0.004791493,-0.100826241,-1.007106423,-0.000238714,-0.001676690,0.000140270,1.016382933,0.052916214,9.743841171
1784246721.376504,0.004792778,-0.100827135,-1.007114887,-0.000374620,-0.001687705,-0.000837473,0.996774852,0.026371619,9.731547356
1784246721.378504,0.004795356,-0.100832932,-1.007113218,-0.000058692,-0.001684972,-0.001097734,1.002409458,0.049755208,9.772501945
1784246721.380502,0.004790763,-0.100841135,-1.007108688,-0.000142393,-0.002081224,-0.000369406,1.002436519,0.051184941,9.760404587
1784246721.382506,0.004789463,-0.100841098,-1.007102489,-0.000434893,-0.001973404,0.000487947,0.998298287,0.041937619,9.745098114
1784246721.384547,0.004792331,-0.100844264,-1.007104039,-0.000209868,-0.001608827,0.000663514,0.990933359,0.063159481,9.735363007
1784246721.386513,0.004791705,-0.100851364,-1.007099986,-0.000014696,-0.001828667,0.000644343,0.976745307,0.041282680,9.750004768
1784246721.388508,0.004790267,-0.100858182,-1.007098436,-0.000111231,-0.002275671,0.000863073,1.023352027,0.034956660,9.736558914
1784246721.390512,0.004789317,-0.100864895,-1.007096052,-0.000162003,-0.002492750,0.000896689,1.043521643,0.032902919,9.737013817
1784246721.392509,0.004787824,-0.100873008,-1.007096648,-0.000217696,-0.002739799,0.000776239,1.029101133,0.028543688,9.745939255
1784246721.394510,0.004784296,-0.100881211,-1.007097244,-0.000420938,-0.002952909,0.000507530,1.013691902,0.016586982,9.753916740
1784246721.396513,0.004781454,-0.100883737,-1.007097006,-0.000655432,-0.002729576,0.000367907,0.999218166,0.008971194,9.779857635
1784246721.398517,0.004774175,-0.100883760,-1.007103086,-0.001200853,-0.002164867,-0.000057096,1.007991314,0.063808307,9.739418983
1784246721.400517,0.004767823,-0.100886494,-1.007100940,-0.001887262,-0.001697364,-0.000204386,1.010181904,0.021719521,9.731531143
1784246721.402515,0.004772122,-0.100888044,-1.007099986,-0.001557584,-0.001458171,0.000086208,0.991053164,0.036241088,9.740122795
1784246721.404522,0.004775058,-0.100887977,-1.007098317,-0.000646510,-0.001128609,0.000209575,1.027706623,0.061715804,9.746150970
1784246721.406519,0.004776794,-0.100896209,-1.007091403,-0.000115230,-0.001339625,0.000711915,0.999304712,0.015328501,9.767792702
1784246721.408528,0.004770602,-0.100903787,-1.007087946,-0.000313215,-0.002046122,0.001254373,1.002549887,0.023405608,9.760227203
1784246721.410521,0.004765722,-0.100909613,-1.007093549,-0.000869171,-0.002353387,0.000837717,1.028513670,0.056128453,9.774360657
1784246721.412526,0.004767037,-0.100913502,-1.007094979,-0.000800476,-0.002328021,0.000157242,1.020268440,0.040312026,9.745108604
1784246721.414526,0.004761460,-0.100918755,-1.007097602,-0.000803785,-0.002184190,-0.000139294,1.022062778,0.076659106,9.734135628
1784246721.416525,0.004756875,-0.100920737,-1.007098675,-0.001202706,-0.001949474,-0.000301068,1.020460248,0.056416359,9.748351097
1784246721.418529,0.004756249,-0.100921951,-1.007099152,-0.001238951,-0.001638011,-0.000291369,1.041661978,0.026740311,9.724867821
1784246721.420530,0.004754330,-0.100922704,-1.007100463,-0.000991349,-0.001161859,-0.000318583,1.043511033,0.033223689,9.754949570
1784246721.422534,0.004752293,-0.100922525,-1.007105231,-0.000935860,-0.000721873,-0.000626917,1.035609603,0.047274385,9.746513367
1784246721.424533,0.004755552,-0.100930579,-1.007106900,-0.000629380,-0.000889865,-0.000907989,1.015854955,0.046218444,9.741556168
1784246721.426536,0.004760160,-0.100932404,-1.007106304,0.000079884,-0.001145473,-0.000787784,1.016171098,0.037466135,9.774677277
1784246721.428539,0.004766590,-0.100933969,-1.007105112,0.000816059,-0.001065057,-0.000535916,1.039524674,0.038549222,9.769325256
1784246721.430536,0.004769682,-0.100937806,-1.007099509,0.001315956,-0.000954188,-0.000009215,1.051852584,0.017073708,9.742747307
1784246721.432543,0.004767685,-0.100940347,-1.007099867,0.001100895,-0.000938952,0.000337092,1.016567707,0.030159838,9.730245590
1784246721.434613,0.004767454,-0.100942455,-1.007099986,0.000656019,-0.000904532,0.000228009,1.043474317,0.029287428,9.741473198
1784246721.436542,0.004764291,-0.100945264,-1.007099271,0.000259246,-0.000897117,0.000220537,1.001505971,0.048098873,9.755004883
1784246721.438540,0.004758212,-0.100948535,-1.007101774,-0.000447314,-0.001066541,0.000105145,1.022467732,0.036286596,9.740153313
1784246721.440549,0.004755374,-0.100950301,-1.007104039,-0.000887247,-0.001009452,-0.000194414,1.021317601,0.053656679,9.756853104
1784246721.442548,0.004759542,-0.100950718,-1.007109404,-0.000536003,-0.000775455,-0.000681277,1.040113568,0.046943806,9.721857071
1784246721.444548,0.004762332,-0.100954510,-1.007107735,0.000098000,-0.000700504,-0.000801210,1.019689083,0.029560344,9.745936394
1784246721.446553,0.004757069,-0.100954928,-1.007104754,-0.000020193,-0.000643523,-0.000257675,1.026208758,0.050000213,9.758177757
1784246721.448575,0.004755217,-0.100950286,-1.007108212,-0.000498819,-0.000181917,-0.000166879,0.998173177,0.032034773,9.751760483
1784246721.450552,0.004757411,-0.100946151,-1.007110715,-0.000372490,0.000511876,-0.000531232,0.993181288,0.026385808,9.736027718
1784246721.452557,0.004753537,-0.100942746,-1.007118106,-0.000443541,0.000930609,-0.001050126,1.003363729,0.051815368,9.733060837
1784246721.454558,0.004755694,-0.100941457,-1.007123351,-0.000604945,0.001093835,-0.001591566,1.025868416,0.058155119,9.746126175
1784246721.456557,0.004758194,-0.100942723,-1.007122874,-0.000238871,0.000898554,-0.001499583,1.018512845,0.043886907,9.749612808
1784246721.458573,0.004755407,-0.100942336,-1.007122993,-0.000191764,0.000594454,-0.001072788,1.000838876,0.028953584,9.739190102
1784246721.460563,0.004754737,-0.100941628,-1.007130384,-0.000353351,0.000540125,-0.001266703,1.009826660,0.030973472,9.754005432
1784246721.462602,0.004757300,-0.100943103,-1.007135749,-0.000146046,0.000373482,-0.001805299,1.010052323,0.048965048,9.743809700
1784246721.464583,0.004763006,-0.100945190,-1.007130265,0.000399162,0.000098749,-0.001367506,1.028239846,0.028841348,9.705590248
1784246721.466578,0.004764638,-0.100946486,-1.007126689,0.000795059,-0.000087141,-0.000434739,1.039386511,0.024491096,9.730230331
1784246721.468577,0.004767659,-0.100942411,-1.007130742,0.000889817,0.000125385,-0.000385411,1.022290349,0.059103396,9.745230675
1784246721.470572,0.004770427,-0.100940131,-1.007136583,0.000946382,0.000662199,-0.000979180,1.008705854,0.050195821,9.762197495
1784246721.472581,0.004773906,-0.100937337,-1.007145166,0.000987352,0.000965150,-0.001719107,1.030088782,0.036134809,9.747781754
1784246721.474597,0.004769239,-0.100935467,-1.007142067,0.000635623,0.001150089,-0.001627129,1.026219249,0.050082877,9.746522903
1784246721.476594,0.004766303,-0.100930110,-1.007137656,0.000035619,0.001462867,-0.000639035,1.012213349,0.040990658,9.727172852
1784246721.478585,0.004766527,-0.100927405,-1.007135630,-0.000112771,0.001616166,-0.000009435,1.005771041,0.028051648,9.731118202
1784246721.480579,0.004768318,-0.100923873,-1.007136822,0.000123049,0.001672682,0.000034270,0.992694259,0.024062725,9.748565674
1784246721.482584,0.004773396,-0.100919850,-1.007137537,0.000603685,0.001801848,-0.000149532,1.005152345,0.052958190,9.758177757
1784246721.484583,0.004770807,-0.100919604,-1.007134438,0.000588532,0.001627902,0.000039428,0.998673260,0.035676312,9.742815971
1784246721.486575,0.004768445,-0.100920863,-1.007130861,0.000102750,0.001144326,0.000499274,1.030416727,0.027071273,9.761621475
1784246721.488593,0.004770870,-0.100919224,-1.007132173,0.000093932,0.000862314,0.000510274,1.027079821,0.045321874,9.721385956
1784246721.490584,0.004768497,-0.100919411,-1.007134676,0.000073503,0.000947442,0.000122745,0.977063000,0.031326391,9.763391495
1784246721.492591,0.004764701,-0.100911573,-1.007134557,-0.000353025,0.001427103,-0.000031531,0.987106085,0.045118503,9.759005547
1784246721.494592,0.004765834,-0.100905903,-1.007138014,-0.000480201,0.002009094,-0.000232591,0.995195329,0.045520216,9.750946999
1784246721.496599,0.004769634,-0.100897163,-1.007136106,-0.000047940,0.002498963,-0.000305653,1.021884561,0.061879575,9.733592033
1784246721.498592,0.004770215,-0.100886025,-1.007128954,0.000322967,0.003174780,0.000365061,1.009495497,0.040418200,9.749582291
1784246721.500594,0.004771992,-0.100882865,-1.007126451,0.000463364,0.003380186,0.000906020,0.987219751,0.018152416,9.770489693
1784246721.502593,0.004776976,-0.100883648,-1.007124066,0.000828928,0.002719234,0.000934968,1.007578135,0.067337334,9.747960091
1784246721.504598,0.004773474,-0.100881957,-1.007120728,0.000677789,0.002115578,0.001063024,1.016632676,0.036752064,9.748221397
1784246721.506592,0.004770483,-0.100880593,-1.007113576,0.000062112,0.001822942,0.001535415,0.984629750,0.061851572,9.741625786
1784246721.508602,0.004775363,-0.100875497,-1.007114887,0.000212881,0.001767615,0.001502291,0.965464056,0.036060411,9.748614311
1784246721.510600,0.004774611,-0.100867562,-1.007119536,0.000473592,0.002126647,0.000668294,0.989650309,0.032163087,9.749061584
1784246721.512615,0.004772174,-0.100864522,-1.007120013,0.000173599,0.002248933,0.000149441,0.995292008,0.015177114,9.733267784
1784246721.514610,0.004771723,-0.100861639,-1.007118821,0.000113934,0.002063992,0.000149275,0.987600923,0.012345430,9.767314911
1784246721.516606,0.004778649,-0.100857660,-1.007116556,0.000721799,0.001993463,0.000276910,0.983218074,0.054866783,9.718267441
1784246721.518610,0.004783406,-0.100854486,-1.007114291,0.001345285,0.001939803,0.000424320,0.974093437,0.043661904,9.735222816
1784246721.520612,0.004790327,-0.100850463,-1.007112145,0.001799293,0.001882716,0.000531606,0.978168368,0.047546417,9.748703003
1784246721.522607,0.004797882,-0.100843571,-1.007110476,0.002313730,0.002091579,0.000539243,0.993776619,0.040911581,9.771539688
1784246721.524614,0.004800020,-0.100839838,-1.007114649,0.002345354,0.002195871,0.000146855,0.991786003,0.023178300,9.748558044
1784246721.526611,0.004793613,-0.100835733,-1.007112980,0.001425862,0.002083355,-0.000033232,0.981886506,0.021462064,9.755711555
1784246721.528621,0.004791270,-0.100832812,-1.007104158,0.000518819,0.001998412,0.000737773,0.966349185,0.035546899,9.756234169
1784246721.530618,0.004786163,-0.100830764,-1.007093430,0.000089112,0.001696400,0.001894181,0.980328619,0.042402513,9.775121689
1784246721.532618,0.004790729,-0.100828350,-1.007091999,0.000192811,0.001439215,0.002195513,0.950369895,0.049284916,9.743306160
1784246721.534611,0.004801905,-0.100822628,-1.007095098,0.001176746,0.001428366,0.001388504,0.968354702,0.052181136,9.744686127
1784246721.536625,0.004806156,-0.100821778,-1.007095814,0.001856552,0.001313753,0.000655538,0.980157673,0.064053476,9.755084991
1784246721.538615,0.004803313,-0.100820057,-1.007097840,0.001428177,0.001131225,0.000282027,0.984521627,0.054109041,9.759510040
1784246721.540617,0.004799719,-0.100813836,-1.007098079,0.000613571,0.001363106,0.000101422,0.968794346,0.053725582,9.778769493
1784246721.542620,0.004798404,-0.100809246,-1.007096291,0.000148273,0.001727199,0.000205818,0.973012507,0.029255982,9.746786118
1784246721.544626,0.004800382,-0.100799963,-1.007102132,0.000119606,0.002171629,-0.000131832,0.976299644,0.041717310,9.752696991
1784246721.546631,0.004806099,-0.100795411,-1.007103920,0.000551357,0.002492171,-0.000647881,0.972774744,0.046732210,9.746897697
1784246721.548655,0.004809214,-0.100790873,-1.007101059,0.001006008,0.002432644,-0.000447570,0.950771093,0.045257058,9.741935730
1784246721.550641,0.004814646,-0.100787222,-1.007096887,0.001424752,0.002206019,0.000076560,0.960872591,0.063967198,9.738926888
1784246721.552643,0.004818884,-0.100777693,-1.007091522,0.001823513,0.002380904,0.000622893,0.967107534,0.059464335,9.730834007
1784246721.554646,0.004821671,-0.100768536,-1.007090926,0.001739496,0.002945542,0.000824162,0.991491735,0.074555889,9.769959450
1784246721.556642,0.004818572,-0.100770511,-1.007093549,0.001128507,0.002573828,0.000478149,0.967778802,0.078641430,9.742165565
1784246721.558636,0.004823381,-0.100770161,-1.007097125,0.000895250,0.001762660,-0.000083473,0.934216917,0.050305147,9.754953384
1784246721.560642,0.004830563,-0.100761101,-1.007099271,0.001382700,0.001758840,-0.000524396,0.920902789,0.061768856,9.742012978
1784246721.562644,0.004836009,-0.100758202,-1.007095814,0.001829020,0.001932189,-0.000375131,0.921580076,0.041783523,9.715882301
1784246721.564650,0.004837370,-0.100755177,-1.007091165,0.001876923,0.001608493,0.000218058,0.938184619,0.046453487,9.785419464
1784246721.566649,0.004837280,-0.100754581,-1.007088900,0.001530487,0.001215026,0.000612603,0.964668989,0.044579998,9.749117851
1784246721.568659,0.004833924,-0.100750059,-1.007080436,0.000955303,0.001236086,0.001190054,0.964287639,0.049170293,9.734352112
1784246721.570646,0.004840599,-0.100745410,-1.007075310,0.001008341,0.001461443,0.001757057,0.966425121,0.040198207,9.732055664
1784246721.572645,0.004843595,-0.100746341,-1.007082343,0.001370919,0.001250779,0.001085429,0.972375751,0.050372526,9.739747047
1784246721.574663,0.004840488,-0.100745670,-1.007084131,0.000928185,0.000855380,0.000196545,0.934805155,0.062343467,9.762205124
1784246721.576657,0.004841635,-0.100746669,-1.007083654,0.000532082,0.000564920,0.000072374,0.972135901,0.067426242,9.736268997
1784246721.578651,0.004847491,-0.100746147,-1.007081628,0.000876257,0.000381393,0.000163597,0.973390222,0.059390195,9.729944229
1784246721.580654,0.004848586,-0.100745320,-1.007080674,0.001109404,0.000301661,0.000266428,0.983812094,0.068166316,9.737181664
1784246721.582656,0.004851287,-0.100743726,-1.007076740,0.001080765,0.000316718,0.000503898,0.970781207,0.068186790,9.757793427
1784246721.584673,0.004861278,-0.100738466,-1.007071972,0.001605509,0.000662571,0.000878195,0.953382730,0.078123070,9.778015137
1784246721.586665,0.004874459,-0.100733794,-1.007068038,0.002695387,0.001123326,0.001080947,0.936698675,0.070393316,9.760912895
1784246721.588665,0.004875714,-0.100734450,-1.007071018,0.002944050,0.001089867,0.000738327,0.941226959,0.073093534,9.751070976
1784246721.590667,0.004866631,-0.100736409,-1.007073522,0.001509383,0.000400607,0.000211684,0.950732350,0.078488238,9.731388092
1784246721.592661,0.004863663,-0.100737900,-1.007071972,0.000209722,-0.000154868,0.000170312,0.957573533,0.052627176,9.764406204
1784246721.594657,0.004860824,-0.100733928,-1.007069707,-0.000225843,-0.000044721,0.000414631,0.942813396,0.056025755,9.754101753
1784246721.596665,0.004860630,-0.100739390,-1.007072210,-0.000382664,-0.000234427,0.000302537,0.930168390,0.011470726,9.741699219
1784246721.598675,0.004860272,-0.100742124,-1.007078052,-0.000372903,-0.000730514,-0.000340526,0.966385484,0.037859842,9.745938301
1784246721.600676,0.004862050,-0.100739412,-1.007078290,-0.000198748,-0.000662614,-0.000661918,0.966965139,0.048208069,9.738832474
1784246721.602672,0.004862668,-0.100736484,-1.007072330,0.000075135,-0.000223622,-0.000099366,0.938611865,0.042225685,9.749077797
1784246721.604673,0.004861364,-0.100734808,-1.007065296,0.000091478,-0.000012939,0.000814999,0.932920814,0.052743435,9.729413033
1784246721.606677,0.004866054,-0.100742452,-1.007066131,0.000331789,-0.000578900,0.000990060,0.954843819,0.046692286,9.721773148
1784246721.608682,0.004868431,-0.100749463,-1.007072926,0.000667190,-0.001419040,0.000158715,0.971423388,0.046708129,9.752724648
1784246721.610672,0.004866568,-0.100748777,-1.007070899,0.000446553,-0.001505522,-0.000210048,0.969381094,0.062104277,9.733543396
1784246721.612674,0.004865242,-0.100749508,-1.007067084,0.000107926,-0.001139161,0.000263546,0.963139534,0.065339565,9.730868340
1784246721.614680,0.004869753,-0.100750022,-1.007062078,0.000275115,-0.001021723,0.000770845,0.948742747,0.064004786,9.755502701
1784246721.616680,0.004870078,-0.100748904,-1.007061243,0.000489149,-0.000809953,0.000942687,0.955474615,0.025934672,9.741367340
1784246721.618685,0.004866144,-0.100750849,-1.007066011,0.000086088,-0.000645889,0.000453277,0.943019390,0.036678195,9.765185356
1784246721.620682,0.004857113,-0.100752980,-1.007072330,-0.000825482,-0.000913032,-0.000339633,0.937422514,0.054017100,9.731219292
1784246721.622686,0.004850341,-0.100756533,-1.007073164,-0.001654130,-0.001215635,-0.000629293,0.953548670,0.052380394,9.743330002
1784246721.624688,0.004847558,-0.100759216,-1.007067919,-0.001824888,-0.001373286,-0.000099146,0.943166554,0.048376054,9.758088112
1784246721.626685,0.004844220,-0.100763597,-1.007068396,-0.001714836,-0.001544658,0.000287118,0.958987117,0.059627857,9.785524368
1784246721.628694,0.004835526,-0.100771070,-1.007071853,-0.002088269,-0.001931277,0.000024774,0.948668122,0.058552932,9.766228676
1784246721.630693,0.004833842,-0.100770429,-1.007077098,-0.002338916,-0.001977173,-0.000489926,0.956634998,0.049477510,9.767971992
1784246721.632697,0.004832500,-0.100772902,-1.007083774,-0.002047092,-0.001672078,-0.001133017,0.987663627,0.052861638,9.740225792
1784246721.634689,0.004832724,-0.100775488,-1.007086873,-0.001637492,-0.001596712,-0.001475645,0.971081853,0.018480217,9.753439903
1784246721.636695,0.004835391,-0.100773923,-1.007080078,-0.000976524,-0.001263155,-0.000838578,0.958744884,0.038262453,9.766108513
1784246721.638700,0.004831566,-0.100779615,-1.007081151,-0.000750467,-0.001198394,-0.000213414,0.953358114,0.036692224,9.744572639
1784246721.640704,0.004830653,-0.100779966,-1.007081032,-0.000858859,-0.001415603,-0.000193139,0.971528351,0.054831844,9.744258881
1784246721.642699,0.004830913,-0.100785203,-1.007080078,-0.000648423,-0.001541624,-0.000069419,0.974743366,0.061860405,9.758204460
1784246721.644698,0.004835607,-0.100787327,-1.007083178,-0.000187556,-0.001671193,-0.000231737,0.984659612,0.065330327,9.756443977
1784246721.646695,0.004843345,-0.100791581,-1.007081985,0.000655269,-0.001698833,-0.000384910,0.970388591,0.071877964,9.743471146
1784246721.648726,0.004840633,-0.100795150,-1.007085919,0.000798612,-0.001767889,-0.000497516,0.946871877,0.058969837,9.773850441
1784246721.650708,0.004836855,-0.100801200,-1.007088542,0.000032153,-0.002131684,-0.000763196,0.963758826,0.043679673,9.751353264
1784246721.652710,0.004835432,-0.100812219,-1.007090211,-0.000423534,-0.002902674,-0.000814983,0.990083992,0.030822996,9.747708321
1784246721.654704,0.004834907,-0.100823306,-1.007089615,-0.000377284,-0.003559624,-0.000654069,0.967974961,0.058810916,9.758178711
1784246721.656711,0.004830739,-0.100826405,-1.007084608,-0.000483507,-0.003499599,-0.000064719,0.977014720,0.064077824,9.757324219
1784246721.658707,0.004826656,-0.100826278,-1.007085085,-0.000878585,-0.002750145,0.000313888,0.985551953,0.028904220,9.773695946
1784246721.660713,0.004825457,-0.100832902,-1.007084727,-0.000932878,-0.002420582,0.000245880,0.962241173,0.065748155,9.738042831
1784246721.662712,0.004821276,-0.100838609,-1.007084966,-0.000976763,-0.002576544,0.000212175,0.991667926,0.050109409,9.742006302
1784246721.664722,0.004815078,-0.100842789,-1.007083893,-0.001350897,-0.002543032,0.000278157,0.985604107,0.033367939,9.775965691
1784246721.666717,0.004818605,-0.100849904,-1.007083654,-0.001100081,-0.002614147,0.000308471,0.984823644,0.041598540,9.754049301
1784246721.668719,0.004817719,-0.100859366,-1.007082582,-0.000613828,-0.003028989,0.000292911,0.991085947,0.038932029,9.739691734
1784246721.670713,0.004815696,-0.100864246,-1.007085800,-0.000637032,-0.003163917,0.000083338,1.012442470,0.026687933,9.784914970
1784246721.672722,0.004817629,-0.100867063,-1.007087827,-0.000485783,-0.002812606,-0.000301235,0.993798554,0.042299986,9.765272141
1784246721.674723,0.004823772,-0.100865208,-1.007089138,0.000189364,-0.002131232,-0.000505917,0.979818463,0.073434621,9.759630203
1784246721.676719,0.004823642,-0.100862779,-1.007083654,0.000593444,-0.001277138,-0.000129670,1.006394386,0.045230217,9.771579742
1784246721.678720,0.004821630,-0.100868456,-1.007089376,0.000286300,-0.001150993,-0.000093971,0.977041125,0.029127933,9.757549286
1784246721.680731,0.004821884,-0.100874417,-1.007088661,0.000129604,-0.001615803,-0.000395892,0.983686984,0.021483578,9.749435425
1784246721.682735,0.004814437,-0.100879878,-1.007085800,-0.000293177,-0.001936849,-0.000002469,1.016540289,0.029133549,9.748620033
1784246721.684767,0.004807400,-0.100892037,-1.007079959,-0.001093385,-0.002455843,0.000678904,0.993319690,0.039230421,9.756731987
1784246721.686753,0.004808536,-0.100897774,-1.007082462,-0.001133145,-0.002855236,0.000760830,0.970192730,0.054121681,9.720490456
1784246721.688735,0.004806372,-0.100900508,-1.007089019,-0.000955890,-0.002657122,-0.000042922,0.991260469,0.052872878,9.732159615
1784246721.690729,0.004800255,-0.100899532,-1.007088184,-0.001328954,-0.002077062,-0.000356040,1.014083147,0.047639377,9.733941078
1784246721.692732,0.004793777,-0.100900985,-1.007089019,-0.001853863,-0.001564315,-0.000168851,0.993949354,0.016843125,9.753451347
1784246721.694735,0.004787809,-0.100910343,-1.007088065,-0.002062673,-0.001858627,-0.000035931,1.002351522,0.042813584,9.740625381
1784246721.696783,0.004786286,-0.100918986,-1.007088423,-0.001876546,-0.002562655,0.000058709,0.986119330,0.035913594,9.732047081
1784246721.698748,0.004782944,-0.100919373,-1.007090926,-0.001715835,-0.002480280,-0.000121715,0.994266093,0.043253746,9.756311417
1784246721.700753,0.004774960,-0.100919701,-1.007091165,-0.002008670,-0.001858207,-0.000196517,1.026816487,0.062191166,9.743910789
1784246721.702753,0.004773735,-0.100921482,-1.007088304,-0.002043004,-0.001499063,0.000091736,1.013679981,0.054488182,9.779715538
1784246721.704747,0.004776119,-0.100931659,-1.007086158,-0.001387456,-0.001821297,0.000389812,1.004250884,0.051721200,9.744717598
1784246721.706749,0.004779159,-0.100936949,-1.007083535,-0.000623075,-0.002292902,0.000569990,0.973313093,0.052702583,9.725417137
1784246721.708745,0.004779445,-0.100936845,-1.007085085,-0.000221753,-0.002021373,0.000469754,1.001045227,0.044362325,9.714180946
1784246721.710741,0.004770736,-0.100935668,-1.007080793,-0.000666012,-0.001348753,0.000578727,1.033565521,0.024661228,9.716775894
1784246721.712745,0.004767655,-0.100935541,-1.007080674,-0.001206907,-0.000857188,0.000784138,1.024256825,0.037029155,9.758541107
1784246721.714755,0.004769820,-0.100948043,-1.007086158,-0.000957707,-0.001365558,0.000207900,1.005538702,0.047192544,9.749174118
1784246721.716761,0.004774830,-0.100957528,-1.007090092,-0.000258104,-0.002387467,-0.000539623,1.022062540,0.040282656,9.746006012
1784246721.718788,0.004776201,-0.100959063,-1.007086754,0.000239012,-0.002487573,-0.000466854,1.010486364,0.046818066,9.729897499
1784246721.720802,0.004775438,-0.100961000,-1.007082701,0.000244223,-0.002002218,0.000166359,1.031190157,0.053133111,9.749685287
1784246721.722772,0.004773884,-0.100966230,-1.007079720,0.000046461,-0.001898347,0.000607885,1.022692323,0.057512108,9.779294014
1784246721.724786,0.004770990,-0.100975841,-1.007078290,-0.000228840,-0.002288246,0.000764263,1.038159490,0.036390252,9.760345459
1784246721.726779,0.004771772,-0.100979671,-1.007082224,-0.000318770,-0.002480493,0.000391471,1.029350877,0.048752811,9.738893509
1784246721.728764,0.004774879,-0.100978829,-1.007082343,0.000002358,-0.002011855,-0.000020513,1.042241573,0.039115313,9.747811317
1784246721.730767,0.004777796,-0.100979634,-1.007077932,0.000420032,-0.001279888,0.000241435,1.031527519,0.044142704,9.753214836
1784246721.732764,0.004779517,-0.100978799,-1.007074952,0.000651465,-0.000747200,0.000648765,1.028667688,0.030697031,9.758954048
1784246721.734765,0.004777799,-0.100982368,-1.007083893,0.000530580,-0.000566589,0.000059345,1.032935262,0.048665479,9.744727135
1784246721.736763,0.004773433,-0.100989394,-1.007085085,0.000003328,-0.000968819,-0.000608386,1.018974900,0.046012856,9.764870644
1784246721.738780,0.004774990,-0.100989833,-1.007085919,-0.000200694,-0.001213104,-0.000552709,1.021605253,0.040221632,9.755421638
1784246721.740777,0.004772800,-0.100988694,-1.007090330,-0.000196867,-0.000725188,-0.000760922,1.015483141,0.052505180,9.740251541
1784246721.742773,0.004772841,-0.100988567,-1.007094502,-0.000319723,-0.000331065,-0.001129209,1.019900203,0.048247520,9.763989449
1784246721.744782,0.004768527,-0.100987248,-1.007088423,-0.000519479,-0.000047300,-0.000657571,1.025482059,0.025520733,9.736500740
1784246721.746805,0.004761512,-0.100985013,-1.007086277,-0.001098472,0.000305208,0.000155482,1.037041545,0.055228226,9.759566307
1784246721.748801,0.004768583,-0.100983873,-1.007090926,-0.000814384,0.000451381,-0.000064043,1.030152798,0.043124121,9.772933006
1784246721.750803,0.004769898,-0.100984819,-1.007096171,-0.000082368,0.000501637,-0.000783051,1.014803410,0.036098171,9.780494690
1784246721.752855,0.004770613,-0.100977778,-1.007101059,0.000021197,0.000938642,-0.001269188,1.030611277,0.043601315,9.768005371
1784246721.754800,0.004771924,-0.100975975,-1.007104516,0.000134490,0.001435915,-0.001513966,1.038634539,0.037807878,9.749145508
1784246721.756792,0.004774968,-0.100976691,-1.007106781,0.000391771,0.001273314,-0.001532465,1.033732891,0.041788302,9.765306473
1784246721.758793,0.004776895,-0.100979008,-1.007106185,0.000609983,0.000720777,-0.001259481,1.031044483,0.041851416,9.761268616
1784246721.760792,0.004770051,-0.100983255,-1.007107019,0.000099428,0.000306481,-0.000899279,1.014508843,0.011482559,9.777198792
1784246721.762813,0.004764310,-0.100982055,-1.007107019,-0.000794316,0.000244176,-0.000618318,1.011542916,0.024656771,9.757104874
1784246721.764810,0.004763885,-0.100982793,-1.007107258,-0.000901222,0.000355023,-0.000429958,1.040948033,0.044816144,9.767574310
1784246721.766804,0.004764314,-0.100979008,-1.007107019,-0.000561242,0.000611481,-0.000327200,1.016679883,0.041987695,9.767982483
1784246721.768800,0.004760615,-0.100979440,-1.007106304,-0.000622543,0.000674979,-0.000145209,1.018672347,0.057303485,9.752839088
1784246721.770808,0.004759568,-0.100982904,-1.007100701,-0.000780292,0.000378147,0.000364366,1.022683501,0.018232038,9.758419037
1784246721.772812,0.004763189,-0.100979626,-1.007105589,-0.000439455,0.000411638,0.000304458,1.021676779,0.044837970,9.736172676
1784246721.774858,0.004767532,-0.100978687,-1.007111311,0.000139341,0.000725440,-0.000549378,1.018055558,0.042609185,9.741086960
1784246721.776819,0.004766568,-0.100977562,-1.007108450,0.000304972,0.000809376,-0.000612995,1.043865681,0.023559937,9.727090836
1784246721.778890,0.004762731,-0.100979015,-1.007108927,-0.000084902,0.000567494,-0.000246647,1.039320230,0.019509468,9.737819672
1784246721.780838,0.004760153,-0.100980312,-1.007111788,-0.000385267,0.000465892,-0.000376517,0.987979054,0.041266136,9.732082367
1784246721.782830,0.004761375,-0.100974135,-1.007111192,-0.000255005,0.000909867,-0.000431581,0.989406824,0.048378106,9.737508774
1784246721.784812,0.004766817,-0.100965708,-1.007105827,0.000313804,0.001693068,0.000037070,1.001682281,0.024462478,9.739161491
1784246721.786819,0.004766404,-0.100960344,-1.007102489,0.000636716,0.002209393,0.000576600,0.975000024,0.045343682,9.749132156
1784246721.788815,0.004762310,-0.100953080,-1.007102251,0.000184227,0.002468611,0.000697121,1.032151580,0.058490790,9.750617027
1784246721.790820,0.004764195,-0.100948393,-1.007105947,-0.000089606,0.002695833,0.000297823,1.023668885,0.024183940,9.738732338
1784246721.792817,0.004772360,-0.100941241,-1.007104993,0.000542689,0.002852725,-0.000045944,1.012267828,0.046283506,9.738862038
1784246721.794824,0.004770643,-0.100936785,-1.007094622,0.000911153,0.003016033,0.000678550,1.021154881,0.038997978,9.739273071
1784246721.796817,0.004767436,-0.100937791,-1.007090807,0.000431584,0.002583319,0.001490903,0.989251733,0.036616653,9.753573418
1784246721.798822,0.004772681,-0.100939818,-1.007096291,0.000440068,0.001677122,0.000960758,0.985509634,0.023706749,9.748555183
1784246721.800825,0.004781137,-0.100933313,-1.007096052,0.001320534,0.001531620,0.000235825,1.019168258,0.062533356,9.772598267
1784246721.802828,0.004782124,-0.100923158,-1.007095575,0.001716759,0.002253573,0.000145185,0.988701224,0.066114090,9.764969826
1784246721.804824,0.004783011,-0.100920051,-1.007089734,0.001350735,0.002531812,0.000528030,0.999127567,0.036525149,9.748651505
1784246721.806824,0.004790096,-0.100915000,-1.007089019,0.001496298,0.002388298,0.000769551,0.990546048,-0.004641020,9.756447792
1784246721.808830,0.004789779,-0.100909844,-1.007091880,0.001532970,0.002432032,0.000368555,1.001346827,0.034278851,9.745499611
1784246721.810879,0.004778965,-0.100909010,-1.007097006,0.000400920,0.002262056,-0.000197309,0.987164795,0.050039712,9.759933472
1784246721.812839,0.004777996,-0.100903407,-1.007093430,-0.000424419,0.002171579,-0.000176107,1.013969779,0.039045446,9.745542526
1784246721.814838,0.004783853,-0.100895472,-1.007088780,0.000117873,0.002629992,0.000385630,1.022359014,0.028944345,9.764764786
1784246721.816863,0.004781592,-0.100883953,-1.007090092,0.000391442,0.003363225,0.000471950,1.011999011,0.024708249,9.749035835
1784246721.818854,0.004778720,-0.100878514,-1.007091641,-0.000080690,0.003600733,0.000189128,1.011347532,0.043683555,9.728085518
1784246721.820841,0.004783700,-0.100876324,-1.007094502,0.000076130,0.003229375,-0.000181608,0.997861147,0.043655712,9.756317139
1784246721.822843,0.004788964,-0.100871265,-1.007094502,0.000750506,0.002934474,-0.000396775,0.966814995,0.074481361,9.761864662
1784246721.824840,0.004791154,-0.100860924,-1.007086873,0.000991570,0.003149783,0.000188601,0.985226333,0.073550031,9.733632088
1784246721.826849,0.004786695,-0.100857615,-1.007086039,0.000514703,0.003187010,0.000721648,0.988704443,0.065329462,9.749273300
1784246721.828851,0.004789884,-0.100853741,-1.007094383,0.000237749,0.002806030,0.000024698,0.966064453,0.048194122,9.742417336
1784246721.830850,0.004792536,-0.100845903,-1.007100821,0.000455847,0.002779272,-0.001022514,0.955632746,0.038935073,9.740106583
1784246721.832858,0.004788219,-0.100836009,-1.007098079,0.000183399,0.003173542,-0.000989496,0.988935113,0.047392551,9.750952721
1784246721.834864,0.004786010,-0.100830913,-1.007096291,-0.000271570,0.003279884,-0.000371149,0.983947814,0.042995255,9.748229027
1784246721.836854,0.004787302,-0.100826599,-1.007096648,-0.000244953,0.002976949,-0.000156914,0.969317973,0.021584893,9.761079788
1784246721.838858,0.004785429,-0.100819886,-1.007097125,-0.000223417,0.002919230,-0.000162401,1.000934720,0.037410792,9.746864319
1784246721.840855,0.004785090,-0.100812435,-1.007098794,-0.000277100,0.003130472,-0.000255356,0.997026145,0.048617046,9.753210068
1784246721.842861,0.004786703,-0.100807086,-1.007096887,-0.000064419,0.003190763,-0.000178780,0.982167304,0.044752862,9.756308556
1784246721.844859,0.004785038,-0.100804344,-1.007097006,-0.000040826,0.002821345,0.000000856,0.987179935,0.049753919,9.737067223
1784246721.846864,0.004780243,-0.100804254,-1.007093310,-0.000443753,0.002195777,0.000291532,0.985166609,0.034272786,9.775523186
1784246721.848900,0.004782154,-0.100803673,-1.007092118,-0.000485276,0.001647012,0.000557324,1.007833123,0.050401270,9.734849930
1784246721.850869,0.004780913,-0.100802422,-1.007095456,-0.000241171,0.001427375,0.000246939,0.973023653,0.066528358,9.734920502
1784246721.852868,0.004776190,-0.100795388,-1.007096767,-0.000528422,0.001705142,-0.000103835,0.986863852,0.060532991,9.733998299
1784246721.854865,0.004771165,-0.100786664,-1.007099509,-0.001167470,0.002307666,-0.000285617,0.977792263,0.052988119,9.740218163
1784246721.856869,0.004770688,-0.100786805,-1.007101417,-0.001348873,0.002257888,-0.000474470,0.969215572,0.050260145,9.761263847
1784246721.858882,0.004776071,-0.100787848,-1.007100344,-0.000656827,0.001563660,-0.000433885,1.000994086,0.042741802,9.753176689
1784246721.860877,0.004779032,-0.100785606,-1.007094741,0.000156076,0.001285705,0.000066787,0.976504683,0.060356803,9.777475357
1784246721.862880,0.004781897,-0.100783467,-1.007092357,0.000587631,0.001300275,0.000540786,0.960852087,0.063805036,9.761790276
1784246721.864871,0.004781722,-0.100776047,-1.007092476,0.000597290,0.001478383,0.000525503,0.942421138,0.061340265,9.763550758
1784246721.866880,0.004781946,-0.100768469,-1.007097602,0.000374366,0.001973585,0.000028640,0.939231813,0.056945421,9.757243156
1784246721.868876,0.004781711,-0.100765675,-1.007101417,0.000210432,0.002137910,-0.000587141,0.968207181,0.077259995,9.746641159
1784246721.870877,0.004781789,-0.100764453,-1.007097244,0.000011476,0.001732516,-0.000388918,0.980058849,0.055574011,9.750548363
1784246721.872880,0.004785514,-0.100760743,-1.007092595,0.000191443,0.001502364,0.000297919,0.951272309,0.049718197,9.743757248
1784246721.874901,0.004789522,-0.100752689,-1.007098079,0.000599481,0.001713905,0.000114857,0.928347647,0.047663495,9.758966446
1784246721.876890,0.004788639,-0.100748599,-1.007100701,0.000536427,0.001892663,-0.000470233,0.935759068,0.028023992,9.735085487
1784246721.878890,0.004791512,-0.100753300,-1.007101655,0.000500426,0.001336928,-0.000593390,0.960998535,0.036693051,9.730682373
1784246721.880894,0.004794015,-0.100751184,-1.007105589,0.000743310,0.000713854,-0.000792207,0.961951315,0.041577328,9.735197067
1784246721.882893,0.004792778,-0.100740261,-1.007101417,0.000677771,0.001322304,-0.000570474,0.950368643,0.047248613,9.714598656
1784246721.884889,0.004791672,-0.100727886,-1.007097006,0.000382740,0.002430649,0.000172027,0.974966288,0.042646375,9.750460625
1784246721.886896,0.004795371,-0.100722075,-1.007091999,0.000507529,0.002892199,0.000747648,0.939725518,0.058105860,9.719141960
1784246721.888892,0.004800177,-0.100721277,-1.007087946,0.001007179,0.002558388,0.001109742,0.941804111,0.083422683,9.746654510
1784246721.890899,0.004809154,-0.100720160,-1.007085919,0.001601697,0.001846186,0.001136603,0.950990498,0.064821087,9.762684822
1784246721.892892,0.004806580,-0.100725353,-1.007086158,0.001506578,0.000920507,0.000918392,0.947716594,0.054894894,9.778309822
1784246721.894895,0.004802669,-0.100728065,-1.007090807,0.000603818,0.000005482,0.000377674,0.962800145,0.038344257,9.747282028
1784246721.896899,0.004803023,-0.100730427,-1.007088065,0.000164829,-0.000466576,0.000165716,0.949174941,0.061031822,9.731723785
1784246721.898901,0.004797331,-0.100726545,-1.007088184,-0.000221831,-0.000235762,0.000339335,0.987201512,0.051545762,9.737078667
1784246721.900897,0.004795684,-0.100728698,-1.007093787,-0.000646992,-0.000080637,-0.000094091,0.974476457,0.075864226,9.742602348
1784246721.902906,0.004800654,-0.100734487,-1.007094502,-0.000240302,-0.000622663,-0.000520660,0.959235072,0.079011008,9.768611908
1784246721.904901,0.004800356,-0.100731604,-1.007096052,0.000040161,-0.000749023,-0.000559164,0.964232624,0.047114529,9.771551132
1784246721.906911,0.004797812,-0.100731485,-1.007095933,-0.000257717,-0.000440342,-0.000477467,0.949909389,0.048791833,9.750475883
1784246721.908907,0.004796332,-0.100732975,-1.007095814,-0.000459043,-0.000414295,-0.000310724,0.941890419,0.053403549,9.746461868
1784246721.910915,0.004794972,-0.100734450,-1.007094026,-0.000536379,-0.000648719,-0.000082244,0.948321521,0.066253521,9.755069733
1784246721.912913,0.004795729,-0.100737803,-1.007095218,-0.000449231,-0.000946482,-0.000006538,0.951898456,0.103292294,9.769657135
1784246721.914914,0.004797327,-0.100738332,-1.007100224,-0.000329402,-0.001071133,-0.000420130,0.966784060,0.071806312,9.760054588
1784246721.916914,0.004800266,-0.100738160,-1.007109165,-0.000147873,-0.000925645,-0.001261516,0.963023186,0.055910125,9.733945847
1784246721.918925,0.004798910,-0.100742571,-1.007108092,-0.000054348,-0.000965779,-0.001460140,0.963386238,0.049960058,9.750944138
1784246721.920915,0.004790603,-0.100741938,-1.007116199,-0.000710279,-0.001041982,-0.001479886,0.965778172,0.062855408,9.760444641
1784246721.922922,0.004785690,-0.100741483,-1.007121682,-0.001472879,-0.000767893,-0.001908078,0.952068031,0.042015050,9.754468918
1784246721.924916,0.004789906,-0.100739948,-1.007115006,-0.001108594,-0.000583784,-0.001297994,0.947997272,0.040189102,9.766558647
1784246721.926923,0.004787928,-0.100740150,-1.007112741,-0.000591711,-0.000491471,-0.000347937,0.950856686,0.052821521,9.749157906
1784246721.928921,0.004787056,-0.100741535,-1.007121205,-0.000665347,-0.000467276,-0.000649635,0.940041065,0.049753819,9.758990288
1784246721.930931,0.004787860,-0.100739911,-1.007119656,-0.000557467,-0.000576942,-0.000942079,0.948238075,0.059921645,9.763546944
1784246721.932923,0.004787440,-0.100742802,-1.007114410,-0.000355511,-0.000753803,-0.000234823,0.943621933,0.047207665,9.732526779
1784246721.934999,0.004782642,-0.100740403,-1.007112026,-0.000622914,-0.000734845,0.000388881,0.972922742,0.059653133,9.756844521
1784246721.936948,0.004780459,-0.100743733,-1.007113218,-0.000979819,-0.000752738,0.000427617,0.970130682,0.052415319,9.771590233
1784246721.938953,0.004778947,-0.100747034,-1.007118225,-0.001006020,-0.000998962,-0.000086647,0.957555056,0.050050691,9.748697281
1784246721.940955,0.004778228,-0.100744344,-1.007117629,-0.000931852,-0.000892015,-0.000351228,0.955289483,0.049904563,9.773352623
1784246721.942967,0.004777062,-0.100748762,-1.007115722,-0.000807413,-0.000889739,-0.000074935,0.953886330,0.044203240,9.758520126
1784246721.944947,0.004780097,-0.100754149,-1.007117391,-0.000415022,-0.001448202,-0.000056818,0.956741869,0.057210490,9.751433372
1784246721.946954,0.004783208,-0.100755677,-1.007117867,0.000144600,-0.001658890,-0.000222610,0.972786546,0.083604313,9.728304863
1784246721.948982,0.004781942,-0.100753725,-1.007116914,0.000233195,-0.001180178,-0.000141803,0.977040112,0.028714944,9.752614021
1784246721.950951,0.004782478,-0.100756377,-1.007115245,0.000241980,-0.000939721,0.000060788,0.975968480,0.049945351,9.730333328
1784246721.952944,0.004787276,-0.100765124,-1.007112026,0.000674182,-0.001489885,0.000331370,0.938453615,0.065598547,9.738915443
1784246721.954957,0.004788286,-0.100768082,-1.007111192,0.000805992,-0.002104467,0.000490901,0.927791893,0.038312938,9.751732826
1784246721.956950,0.004787686,-0.100777797,-1.007112741,0.000504184,-0.002618119,0.000317289,0.950599492,0.031338468,9.746329308
1784246721.958952,0.004787690,-0.100784838,-1.007114768,0.000302292,-0.003045282,-0.000008021,0.983501613,0.042210009,9.733428955
1784246721.960947,0.004781931,-0.100782692,-1.007114530,-0.000126213,-0.002598350,-0.000096816,1.006401420,0.045690902,9.769787788
1784246721.962952,0.004776849,-0.100783132,-1.007110715,-0.000741892,-0.001822169,0.000273770,1.006316900,0.074509241,9.749797821
1784246721.964957,0.004779081,-0.100794353,-1.007110357,-0.000836965,-0.002016396,0.000522015,0.972428560,0.055652671,9.753232002
1784246721.966961,0.004779614,-0.100804083,-1.007109880,-0.000550808,-0.002790033,0.000429125,0.947660983,0.048782419,9.755854607
1784246721.968955,0.004780552,-0.100806624,-1.007112741,-0.000318482,-0.002866570,0.000147585,0.974003494,0.036872543,9.745041847
1784246721.970968,0.004777494,-0.100803800,-1.007114172,-0.000412367,-0.002198856,-0.000162212,0.962698340,0.067025878,9.746569633
1784246721.972963,0.004772997,-0.100809753,-1.007113934,-0.000827367,-0.001944124,-0.000155064,0.958614826,0.062667958,9.736674309
1784246721.974976,0.004772252,-0.100811735,-1.007113457,-0.001042326,-0.002012260,-0.000024769,0.986524642,0.033944305,9.756243706
1784246721.976964,0.004771053,-0.100815140,-1.007108688,-0.000944556,-0.001886418,0.000360360,0.986297786,0.050696313,9.732140541
1784246721.978970,0.004767812,-0.100821950,-1.007105112,-0.000931014,-0.002065437,0.000855945,1.004284263,0.018852128,9.767373085
1784246721.980967,0.004765070,-0.100826047,-1.007110238,-0.001028994,-0.002280588,0.000548413,1.001083136,0.049118195,9.738420486
1784246721.982976,0.004764023,-0.100833915,-1.007109880,-0.000974032,-0.002509244,0.000089505,0.969127297,0.041053280,9.732959747
1784246721.985008,0.004758603,-0.100838043,-1.007111430,-0.001115827,-0.002711515,0.000025485,0.995813906,0.060633857,9.766735077
1784246721.986980,0.004752982,-0.100844547,-1.007110834,-0.001525627,-0.002765897,0.000033034,1.001597166,0.053681087,9.725898743
1784246721.988975,0.004747904,-0.100857645,-1.007110953,-0.001830228,-0.003345978,0.000125772,0.991089165,0.039767530,9.748215675
1784246721.990978,0.004737835,-0.100860387,-1.007112503,-0.002284711,-0.003567287,0.000067719,0.997407973,0.042409789,9.743307114
1784246721.992976,0.004727788,-0.100859143,-1.007112384,-0.002948907,-0.002753292,0.000084488,1.002749443,0.038760290,9.742841721
1784246721.994983,0.004718970,-0.100859225,-1.007115245,-0.003429626,-0.001889797,0.000007957,1.019904494,0.047065809,9.741116524
1784246721.996984,0.004718970,-0.100859992,-1.007111311,-0.003076529,-0.001395436,0.000133090,1.000628352,0.049076248,9.745146751
1784246721.998994,0.004723440,-0.100869529,-1.007107496,-0.001887259,-0.001713531,0.000582986,0.959659338,0.039601192,9.765220642
1784246722.000981,0.004721920,-0.100874588,-1.007108808,-0.001115334,-0.002392118,0.000565107,0.955030143,0.026378838,9.742714882
1784246722.002981,0.004719886,-0.100877687,-1.007106304,-0.001000212,-0.002449437,0.000517703,0.994441986,0.054773927,9.711104393
1784246722.004983,0.004718553,-0.100884676,-1.007106423,-0.001005790,-0.002382788,0.000573891,1.002003670,0.050911259,9.736641884
1784246722.006984,0.004711639,-0.100890376,-1.007103443,-0.001337361,-0.002511028,0.000667473,0.990608335,0.035872005,9.729808807
1784246722.008988,0.004703730,-0.100892745,-1.007093191,-0.001885502,-0.002371691,0.001476580,0.987279117,0.023483437,9.776799202
1784246722.010992,0.004708957,-0.100894116,-1.007093430,-0.001467238,-0.001971245,0.001780142,0.985678196,0.001226639,9.759171486
1784246722.012991,0.004713122,-0.100897998,-1.007099032,-0.000455835,-0.001788056,0.000846486,1.002459407,0.052986335,9.759071350
1784246722.014997,0.004712246,-0.100904204,-1.007102370,-0.000191980,-0.001954384,-0.000016613,1.016300321,0.046997327,9.757253647
1784246722.016992,0.004705850,-0.100906722,-1.007101536,-0.000668940,-0.001981441,-0.000140459,0.986325085,0.054559443,9.755927086
1784246722.018996,0.004702851,-0.100908212,-1.007099867,-0.001104547,-0.001714427,0.000131814,0.980392992,0.047368240,9.769774437
1784246722.020997,0.004699919,-0.100909501,-1.007102489,-0.001222207,-0.001502514,0.000077851,1.013220668,0.051977865,9.755488396
1784246722.023001,0.004699446,-0.100910731,-1.007101774,-0.001144794,-0.001331344,-0.000051367,1.031599522,0.049575474,9.745179176
1784246722.025000,0.004702054,-0.100917734,-1.007096410,-0.000711899,-0.001393800,0.000359505,1.032362461,0.038371310,9.744211197
1784246722.027001,0.004702061,-0.100921117,-1.007095575,-0.000361983,-0.001583776,0.000676123,0.990625858,0.036415361,9.716361046
1784246722.029001,0.004700016,-0.100917026,-1.007094741,-0.000389020,-0.001105388,0.000620935,1.009943128,0.039592847,9.738818169
1784246722.031002,0.004704643,-0.100917093,-1.007092357,-0.000044336,-0.000491161,0.000636946,1.014418721,0.038633071,9.739712715
1784246722.033010,0.004705682,-0.100921854,-1.007088542,0.000434926,-0.000641243,0.000826162,1.014760494,0.029274194,9.732030869
1784246722.035010,0.004698064,-0.100930616,-1.007088661,-0.000053260,-0.001281082,0.000887510,1.002130389,0.060016744,9.716076851
1784246722.037012,0.004695531,-0.100936100,-1.007086873,-0.000662377,-0.001797910,0.000841257,1.008435726,0.061337370,9.708021164
1784246722.039011,0.004698693,-0.100937143,-1.007084966,-0.000414549,-0.001750222,0.000865180,1.009713531,0.057132673,9.729963303
1784246722.041008,0.004694548,-0.100938350,-1.007084727,-0.000411033,-0.001388923,0.000775835,1.027233958,0.060317256,9.754658699
1784246722.043014,0.004690342,-0.100942440,-1.007087231,-0.000934546,-0.001334600,0.000474075,1.017994285,0.038882416,9.761237144
1784246722.045017,0.004686102,-0.100947604,-1.007084727,-0.001209741,-0.001477049,0.000397815,0.999934316,0.030124543,9.765199661
1784246722.047014,0.004683588,-0.100953072,-1.007082939,-0.001267210,-0.001674021,0.000612745,0.999193192,0.042717114,9.759899139
1784246722.049047,0.004684884,-0.100956433,-1.007084131,-0.001001074,-0.001819175,0.000499023,1.033648252,0.070603468,9.745764732
1784246722.051036,0.004694067,-0.100958414,-1.007084608,-0.000187884,-0.001552285,0.000202615,1.009255528,0.020692017,9.751697540
1784246722.053021,0.004692465,-0.100960709,-1.007083416,0.000224112,-0.001284913,0.000149272,1.010581017,0.018485835,9.744511604
1784246722.055023,0.004693292,-0.100964092,-1.007083893,0.000215641,-0.001195024,0.000145440,1.005047441,0.044834476,9.766644478
1784246722.057022,0.004694491,-0.100968003,-1.007084250,0.000389353,-0.001238813,0.000034016,1.020326376,0.045226868,9.746933937
1784246722.059029,0.004696171,-0.100970358,-1.007081270,0.000496673,-0.001325943,0.000187179,1.024287939,0.039300766,9.754073143
1784246722.061027,0.004691665,-0.100972764,-1.007078886,0.000160848,-0.001170291,0.000515942,1.028279781,0.034829821,9.745529175
1784246722.063029,0.004689556,-0.100974001,-1.007077932,-0.000353947,-0.000981326,0.000647123,1.023746014,0.032491699,9.767477989
1784246722.065049,0.004694801,-0.100973129,-1.007078052,-0.000039246,-0.000651674,0.000510179,1.006828904,0.043086413,9.757218361
1784246722.067033,0.004706725,-0.100969985,-1.007077813,0.001133797,-0.000114832,0.000269155,1.022710204,0.056438494,9.741180420
1784246722.069044,0.004714034,-0.100967295,-1.007079601,0.002115595,0.000311653,-0.000032392,1.005050540,0.044049844,9.750946999
1784246722.071081,0.004716352,-0.100963049,-1.007081747,0.002181984,0.000791995,-0.000360462,1.017117739,0.039869323,9.750035286
1784246722.073039,0.004718452,-0.100962684,-1.007085085,0.001867180,0.000984285,-0.000673120,1.025676727,0.042457402,9.748713493
1784246722.075047,0.004716813,-0.100966752,-1.007095575,0.001326344,0.000627067,-0.001445708,1.001711726,0.027938051,9.754426003
1784246722.077043,0.004721060,-0.100966692,-1.007096410,0.001094479,0.000346093,-0.001845922,1.007948041,0.024661422,9.762929916
1784246722.079047,0.004713319,-0.100960784,-1.007089615,0.000602840,0.000659335,-0.000907578,1.008756876,0.017466651,9.765127182
1784246722.081047,0.004706874,-0.100964718,-1.007084489,-0.000300535,0.000728648,0.000225540,1.028214574,0.029857732,9.751774788
1784246722.083057,0.004708722,-0.100964956,-1.007082820,-0.000347422,0.000361115,0.000634455,1.027536154,0.049023449,9.767140388
1784246722.085056,0.004700869,-0.100964986,-1.007079244,-0.000630617,0.000456481,0.000861765,1.005033374,0.043103050,9.758112907
1784246722.087052,0.004697531,-0.100958183,-1.007083774,-0.001228686,0.001000481,0.000650292,1.039493561,0.033440780,9.731632233
1784246722.089058,0.004699286,-0.100951165,-1.007088184,-0.001063355,0.001664048,-0.000115082,1.035014391,0.035992078,9.758993149
1784246722.091053,0.004696212,-0.100954644,-1.007093072,-0.000838445,0.001768559,-0.000710697,1.005639791,0.054474395,9.733079910
1784246722.093052,0.004695709,-0.100957178,-1.007094979,-0.000808651,0.001196952,-0.000949848,0.989398122,0.011124816,9.746685028
1784246722.095054,0.004699144,-0.100956023,-1.007099628,-0.000244243,0.000793021,-0.001177291,1.020017862,0.019693093,9.746768951
1784246722.097059,0.004705924,-0.100953378,-1.007098675,0.000676737,0.000852473,-0.001213837,0.981132686,0.029902520,9.704206467
1784246722.099079,0.004704300,-0.100951992,-1.007094622,0.000875992,0.000896774,-0.000573288,0.992675722,0.021889692,9.739135742
1784246722.101065,0.004701518,-0.100947417,-1.007095814,0.000444190,0.001061816,-0.000197090,1.002390623,0.009585588,9.750721931
1784246722.103065,0.004699841,-0.100940660,-1.007098198,0.000080373,0.001545329,-0.000372383,1.014578700,0.052056003,9.742040634
1784246722.105064,0.004696436,-0.100939929,-1.007097244,-0.000295090,0.001753764,-0.000338593,1.056146622,0.038088851,9.741094589
1784246722.107072,0.004696581,-0.100935891,-1.007096767,-0.000426360,0.001722973,-0.000134251,1.002927184,0.055563424,9.773883820
1784246722.109069,0.004696957,-0.100928925,-1.007095814,-0.000265521,0.002003873,-0.000001344,1.009876966,0.072607815,9.758755684
1784246722.111073,0.004697024,-0.100927375,-1.007093906,-0.000221903,0.002118638,0.000203171,0.990366459,0.054126512,9.746513367
1784246722.113066,0.004695877,-0.100927815,-1.007091761,-0.000286200,0.001698748,0.000439459,0.997683942,0.064852372,9.737174034
1784246722.115071,0.004695240,-0.100926496,-1.007094264,-0.000350770,0.001358937,0.000304494,1.021159053,0.039436396,9.740621567
1784246722.117072,0.004692841,-0.100921869,-1.007095098,-0.000502103,0.001455715,0.000009357,1.028534055,0.058720831,9.787825584
1784246722.119076,0.004694223,-0.100918919,-1.007091284,-0.000413889,0.001575528,0.000210134,1.010562539,0.055929538,9.771651268
1784246722.121074,0.004694562,-0.100917496,-1.007092834,-0.000206572,0.001499717,0.000283509,1.019289017,0.033597738,9.745962143
1784246722.123076,0.004689943,-0.100914121,-1.007098198,-0.000524022,0.001471083,-0.000241292,1.011742949,0.040824700,9.751380920
1784246722.125077,0.004690744,-0.100909114,-1.007098079,-0.000644336,0.001700351,-0.000513723,0.977567613,0.034599457,9.743238449
1784246722.127081,0.004693560,-0.100902192,-1.007094741,-0.000170098,0.002109980,-0.000168388,0.974060893,0.078157485,9.735892296
1784246722.129082,0.004695620,-0.100897625,-1.007094741,0.000228642,0.002317819,0.000082765,0.996103704,0.045594562,9.738842964
1784246722.131083,0.004697378,-0.100893185,-1.007094145,0.000409520,0.002327523,0.000084246,1.006688237,0.029412653,9.727092743
1784246722.133120,0.004703335,-0.100889452,-1.007093072,0.000811805,0.002277456,0.000121540,0.952178717,0.050993346,9.751836777
1784246722.135087,0.004706423,-0.100885071,-1.007093072,0.001193833,0.002096363,0.000093888,0.963554084,0.064253479,9.756863594
1784246722.137124,0.004703313,-0.100881569,-1.007089734,0.000874803,0.001951553,0.000289345,0.986900389,0.065279327,9.759583473
1784246722.139103,0.004697635,-0.100875296,-1.007089853,0.000066258,0.002085930,0.000486310,0.981240571,0.041695405,9.746874809
1784246722.141091,0.004693013,-0.100868709,-1.007086515,-0.000628895,0.002400957,0.000630838,0.983067811,0.044360168,9.746892929
1784246722.143099,0.004696562,-0.100862935,-1.007077575,-0.000449833,0.002601629,0.001296660,0.967299342,0.040408924,9.763887405
1784246722.145099,0.004694529,-0.100858130,-1.007079244,-0.000139914,0.002549994,0.001437902,0.975070834,0.049550217,9.724501610
1784246722.147101,0.004694831,-0.100858778,-1.007086039,-0.000241925,0.002072352,0.000490819,0.990582466,0.070421644,9.722857475
1784246722.149122,0.004693698,-0.100858152,-1.007086515,-0.000282593,0.001507599,-0.000128069,0.985294342,0.042171113,9.735671997
1784246722.151153,0.004691757,-0.100852571,-1.007087588,-0.000434662,0.001563047,-0.000179376,0.983613491,0.051604480,9.735282898
1784246722.153124,0.004695471,-0.100852512,-1.007088542,-0.000220274,0.001564267,-0.000270609,0.996525168,0.042942386,9.732998848
1784246722.155111,0.004701495,-0.100855939,-1.007086158,0.000525461,0.000945720,-0.000159068,1.006871223,0.045040421,9.734365463
1784246722.157109,0.004695903,-0.100853473,-1.007082224,0.000472946,0.000661206,0.000301255,0.976887465,0.016162490,9.753878593
1784246722.159114,0.004695497,-0.100846738,-1.007084012,-0.000045870,0.001108534,0.000404806,0.969260633,0.052643038,9.741104126
1784246722.161108,0.004695925,-0.100834988,-1.007086515,-0.000055454,0.001955291,0.000014382,0.993960023,0.055732459,9.766254425
1784246722.163109,0.004696428,-0.100826517,-1.007078648,0.000063965,0.002692901,0.000362649,0.954129755,0.025961457,9.740021706
1784246722.165112,0.004696399,-0.100820720,-1.007066011,0.000252131,0.002772975,0.001624872,0.970953941,0.043308247,9.727595329
1784246722.167113,0.004700709,-0.100819878,-1.007067442,0.000583947,0.002311106,0.001909987,0.971788466,0.037937120,9.725319862
1784246722.169114,0.004703943,-0.100816049,-1.007073522,0.000883187,0.001999877,0.000836243,0.984622657,0.059364125,9.713366508
1784246722.171117,0.004703875,-0.100812770,-1.007076263,0.000795564,0.001920882,-0.000017838,0.978769243,0.060900021,9.759995461
1784246722.173144,0.004702799,-0.100810744,-1.007082343,0.000441012,0.001740254,-0.000605071,0.966591120,0.056099065,9.763989449
1784246722.175128,0.004707355,-0.100812256,-1.007086992,0.000468442,0.001246489,-0.001178842,0.968610466,0.072437964,9.730918884
1784246722.177142,0.004709515,-0.100807421,-1.007087946,0.000742898,0.001080042,-0.001270415,0.961164474,0.052187279,9.756783485
1784246722.179127,0.004710003,-0.100800179,-1.007087827,0.000714042,0.001607234,-0.001008943,0.947585821,0.042920768,9.761196136
