time_sec,roll_rad,pitch_rad,yaw_rad,gyro_x,gyro_y,gyro_z,acc_x,acc_y,acc_z
1784246940.637837,0.014246177,-0.124054484,-1.329457641,-0.000139041,0.000113135,-0.001119409,1.194024801,0.121012703,9.739964485
1784246940.639357,0.014250070,-0.124058820,-1.329462409,0.000405643,0.000059454,-0.001454136,1.229512095,0.124926828,9.755716324
1784246940.640966,0.014250129,-0.124056220,-1.329468131,0.000476058,-0.000083576,-0.001789337,1.250505567,0.113365754,9.705449104
1784246940.642830,0.014246818,-0.124053441,-1.329470515,0.000117875,0.000445398,-0.001832081,1.209762692,0.122292101,9.720710754
1784246940.644836,0.014247785,-0.124051742,-1.329470634,-0.000036034,0.000773384,-0.001502333,1.232270956,0.129063904,9.736017227
1784246940.646821,0.014244825,-0.124057859,-1.329457998,-0.000012971,0.000356692,-0.000254651,1.232841015,0.138122305,9.721281052
1784246940.648782,0.014244623,-0.124059401,-1.329455495,-0.000053225,-0.000163458,0.000851544,1.219322205,0.133786559,9.725275993
1784246940.650750,0.014242783,-0.124054141,-1.329460859,-0.000199027,0.000132150,0.000469550,1.193799853,0.138590708,9.725730896
1784246940.652755,0.014234009,-0.124053590,-1.329451561,-0.000793430,0.000457658,0.000696560,1.222561598,0.105849333,9.741688728
1784246940.654805,0.014235022,-0.124061823,-1.329446673,-0.000948530,-0.000212265,0.001525239,1.225028753,0.122986175,9.721626282
1784246940.656781,0.014235639,-0.124066785,-1.329447865,-0.000521020,-0.001043460,0.001369694,1.205814958,0.165916279,9.704845428
1784246940.658807,0.014232512,-0.124066330,-1.329449534,-0.000545810,-0.001066722,0.000825847,1.199037910,0.163203478,9.720513344
1784246940.660824,0.014232113,-0.124068148,-1.329445720,-0.000616594,-0.000869211,0.000773756,1.213998437,0.138792649,9.723958969
1784246940.662812,0.014230041,-0.124067426,-1.329444647,-0.000524154,-0.000745985,0.000916440,1.197992325,0.149887428,9.704736710
1784246940.664793,0.014229542,-0.124070369,-1.329437852,-0.000439990,-0.000729612,0.001218572,1.216715217,0.140572265,9.720834732
1784246940.666794,0.014226635,-0.124067627,-1.329441786,-0.000502502,-0.000534365,0.001114563,1.228885651,0.145312801,9.725359917
1784246940.668794,0.014225991,-0.124060966,-1.329449892,-0.000683422,0.000245501,0.000031230,1.213744998,0.156144887,9.741554260
1784246940.670800,0.014225284,-0.124059096,-1.329457879,-0.000724864,0.000742535,-0.001065100,1.193080544,0.153381720,9.726272583
1784246940.672798,0.014227902,-0.124056503,-1.329462409,-0.000560645,0.000741101,-0.001630808,1.234473348,0.125063911,9.727476120
1784246940.674794,0.014232053,-0.124051586,-1.329466343,-0.000077695,0.000950580,-0.001788444,1.220864296,0.111505426,9.705408096
1784246940.676812,0.014233748,-0.124053426,-1.329468846,0.000325918,0.000903858,-0.001777946,1.209179401,0.110291913,9.708079338
1784246940.678833,0.014232281,-0.124056868,-1.329462886,0.000322941,0.000310733,-0.001069865,1.201108336,0.110439919,9.701796532
1784246940.680818,0.014234426,-0.124060057,-1.329459906,0.000355086,-0.000213932,-0.000193460,1.222089171,0.101617113,9.707589149
1784246940.682823,0.014228479,-0.124060236,-1.329463124,0.000202109,-0.000320492,-0.000167514,1.212203383,0.138002396,9.712295532
1784246940.684848,0.014218784,-0.124061190,-1.329470396,-0.000792466,-0.000259061,-0.000726899,1.212885261,0.155238569,9.681471825
1784246940.686823,0.014213451,-0.124068849,-1.329477191,-0.001793954,-0.000786081,-0.001336601,1.198364258,0.145627454,9.736092567
1784246940.688799,0.014212553,-0.124072194,-1.329475760,-0.001857366,-0.001324284,-0.001275113,1.214070439,0.144628868,9.722203255
1784246940.690842,0.014217162,-0.124070078,-1.329472780,-0.001065851,-0.001044854,-0.000665641,1.226053238,0.132083356,9.700613976
1784246940.692818,0.014220063,-0.124070466,-1.329468966,-0.000179034,-0.000557315,-0.000111261,1.231538415,0.142129868,9.727134705
1784246940.694797,0.014220168,-0.124077290,-1.329467177,0.000153113,-0.000810514,0.000252607,1.205891490,0.135820806,9.715412140
1784246940.696795,0.014217419,-0.124073200,-1.329464316,-0.000018991,-0.000828510,0.000517951,1.194031835,0.119043171,9.701844215
1784246940.698825,0.014214259,-0.124066584,-1.329456925,-0.000316174,0.000075758,0.001113229,1.213703871,0.113366969,9.708552361
1784246940.700835,0.014216074,-0.124062821,-1.329455018,-0.000242749,0.000768044,0.001439219,1.227003932,0.137761801,9.719481468
1784246940.702786,0.014218432,-0.124063604,-1.329457998,0.000132685,0.000787455,0.000934385,1.211598277,0.163827121,9.736221313
1784246940.704780,0.014215700,-0.124063246,-1.329456687,0.000096258,0.000570837,0.000582893,1.196645975,0.150308102,9.711014748
1784246940.706792,0.014205273,-0.124057598,-1.329450130,-0.000796205,0.000759707,0.001085566,1.204826951,0.159538671,9.721391678
1784246940.708793,0.014197506,-0.124052368,-1.329450965,-0.001804172,0.001225804,0.001344709,1.202972531,0.155037552,9.727639198
1784246940.710764,0.014195911,-0.124050282,-1.329456329,-0.001995907,0.001384933,0.000648810,1.219420910,0.141455933,9.717704773
1784246940.712826,0.014191634,-0.124049746,-1.329454303,-0.001922099,0.001209681,0.000284986,1.223504066,0.145404071,9.722216606
1784246940.714790,0.014197160,-0.124049909,-1.329456568,-0.001364016,0.000931696,0.000164323,1.224886417,0.148509815,9.724031448
1784246940.716787,0.014199674,-0.124048807,-1.329459190,-0.000522339,0.000762595,-0.000265686,1.218357801,0.128406614,9.727482796
1784246940.718766,0.014196362,-0.124052182,-1.329455614,-0.000455035,0.000426425,-0.000111650,1.210776210,0.132516921,9.730191231
1784246940.720912,0.014203283,-0.124054074,-1.329452038,-0.000029547,-0.000040735,0.000360960,1.219558358,0.114677466,9.702736855
1784246940.722883,0.014209771,-0.124053642,-1.329454064,0.001044190,-0.000080427,0.000238793,1.209672570,0.152279437,9.725385666
1784246940.724816,0.014209074,-0.124051079,-1.329455614,0.001269752,0.000186418,-0.000138270,1.186896086,0.163145632,9.750539780
1784246940.726802,0.014201495,-0.124044769,-1.329458594,0.000243196,0.000627199,-0.000341269,1.231177330,0.148905903,9.720005035
1784246940.728806,0.014188270,-0.124046870,-1.329461455,-0.001357962,0.000633298,-0.000456159,1.226210594,0.145077407,9.700247765
1784246940.730824,0.014184467,-0.124049902,-1.329460382,-0.002150942,0.000110299,-0.000307527,1.217916489,0.126849458,9.695192337
1784246940.732788,0.014185402,-0.124051228,-1.329455972,-0.001697796,-0.000176034,0.000163952,1.225053787,0.126020163,9.735991478
1784246940.734783,0.014185159,-0.124049827,-1.329455018,-0.001129252,-0.000080988,0.000473386,1.201673508,0.121890374,9.728769302
1784246940.736786,0.014180014,-0.124053665,-1.329456091,-0.001132890,-0.000257349,0.000389893,1.214865088,0.138132870,9.752199173
1784246940.738793,0.014179440,-0.124051198,-1.329454541,-0.001152926,-0.000313864,0.000365545,1.215367675,0.141390041,9.734287262
1784246940.740799,0.014181169,-0.124043413,-1.329453826,-0.000742861,0.000468018,0.000407225,1.232292414,0.130855739,9.736029625
1784246940.742796,0.014178260,-0.124042429,-1.329451084,-0.000553022,0.001020231,0.000527577,1.222982526,0.139567241,9.724867821
1784246940.744788,0.014177435,-0.124045521,-1.329450130,-0.000585519,0.000686166,0.000646982,1.208496094,0.165389299,9.711121559
1784246940.746799,0.014182146,-0.124046214,-1.329452991,-0.000248946,0.000225474,0.000318137,1.192528367,0.146086544,9.745056152
1784246940.748790,0.014186836,-0.124048382,-1.329446793,0.000412110,-0.000044504,0.000386484,1.221232057,0.142776832,9.717713356
1784246940.750805,0.014186071,-0.124047272,-1.329443932,0.000641089,-0.000097120,0.000869919,1.221541405,0.131540254,9.722125053
1784246940.752793,0.014186601,-0.124046184,-1.329451084,0.000451319,0.000143696,0.000356598,1.213667512,0.112270735,9.736788750
1784246940.754803,0.014186533,-0.124047399,-1.329451799,0.000330006,0.000158501,-0.000270944,1.207904696,0.117762350,9.730990410
1784246940.756799,0.014181303,-0.124044023,-1.329452753,-0.000083908,0.000260026,-0.000276819,1.228554249,0.116760939,9.708586693
1784246940.758803,0.014179828,-0.124037907,-1.329458833,-0.000523986,0.000823561,-0.000621575,1.215175629,0.124879077,9.725214958
1784246940.760800,0.014185666,-0.124041691,-1.329453468,-0.000091184,0.000755774,-0.000513158,1.213568568,0.139757931,9.714997292
1784246940.762814,0.014191533,-0.124045514,-1.329450607,0.000794175,0.000031065,0.000086468,1.204825759,0.159935772,9.728568077
1784246940.764837,0.014197532,-0.124050200,-1.329452753,0.001385390,-0.000565085,-0.000000678,1.195689201,0.144581959,9.698870659
1784246940.766838,0.014200244,-0.124049209,-1.329449177,0.001583999,-0.000709327,0.000009291,1.234675646,0.141250938,9.719060898
1784246940.768818,0.014204163,-0.124048091,-1.329449296,0.001606027,-0.000418097,0.000181033,1.225587249,0.130735666,9.701949120
1784246940.770825,0.014202016,-0.124045767,-1.329452395,0.001262806,-0.000073635,-0.000090828,1.213353872,0.121852189,9.713088989
1784246940.772824,0.014201403,-0.124043196,-1.329456449,0.000742928,0.000253647,-0.000523553,1.235758305,0.120106377,9.729239464
1784246940.774825,0.014202180,-0.124041975,-1.329459429,0.000562338,0.000418046,-0.000856938,1.211306214,0.138017073,9.711845398
1784246940.776823,0.014204316,-0.124044538,-1.329461336,0.000571753,0.000229417,-0.000956886,1.197647333,0.158817410,9.709724426
1784246940.778823,0.014206208,-0.124047354,-1.329462767,0.000665868,-0.000179479,-0.000940811,1.205465436,0.137624770,9.714526176
1784246940.780826,0.014208139,-0.124047771,-1.329464436,0.000717671,-0.000351292,-0.000910373,1.221165061,0.136978775,9.714089394
1784246940.782825,0.014211677,-0.124047980,-1.329468846,0.000902513,-0.000296721,-0.001103586,1.241881967,0.142992124,9.713251114
1784246940.784832,0.014213116,-0.124042802,-1.329470277,0.001005104,0.000121362,-0.001242283,1.206796050,0.135863394,9.707792282
1784246940.786836,0.014208444,-0.124039590,-1.329470158,0.000484066,0.000592024,-0.000964255,1.226028204,0.131886199,9.728408813
1784246940.788828,0.014205743,-0.124038905,-1.329471111,-0.000170183,0.000631429,-0.000691635,1.219394684,0.139222488,9.716793060
1784246940.790835,0.014208504,-0.124041140,-1.329475045,-0.000161143,0.000351015,-0.000836969,1.230587959,0.137671292,9.725761414
1784246940.792839,0.014215820,-0.124047309,-1.329481363,0.000401876,-0.000324586,-0.001377829,1.231191874,0.115890563,9.763280869
1784246940.794837,0.014224505,-0.124049045,-1.329485536,0.001210295,-0.000784718,-0.001825184,1.189649940,0.128441080,9.711316109
1784246940.796841,0.014231389,-0.124045722,-1.329494357,0.001877819,-0.000579684,-0.002328460,1.232401848,0.137797743,9.704690933
1784246940.798843,0.014236918,-0.124043800,-1.329494357,0.002185344,-0.000178173,-0.002405142,1.211680651,0.131345972,9.704181671
1784246940.800838,0.014232337,-0.124042392,-1.329490900,0.001683791,0.000098503,-0.001541603,1.228301048,0.133709714,9.719904900
1784246940.802856,0.014229881,-0.124043755,-1.329494834,0.000756245,0.000109236,-0.001094998,1.219267964,0.130117014,9.737358093
1784246940.804856,0.014234984,-0.124046490,-1.329500675,0.000657607,-0.000172948,-0.001456318,1.218821287,0.130138665,9.735115051
1784246940.806853,0.014235785,-0.124048598,-1.329497337,0.000872764,-0.000492374,-0.001268420,1.202222228,0.167963609,9.738480568
1784246940.808846,0.014233123,-0.124051094,-1.329486132,0.000647362,-0.000692258,0.000059458,1.190345287,0.150239155,9.732078552
1784246940.810851,0.014233380,-0.124049105,-1.329486847,0.000396727,-0.000529293,0.000757607,1.231423616,0.133119762,9.734249115
1784246940.812849,0.014230138,-0.124051578,-1.329492450,0.000036042,-0.000401792,0.000146755,1.242173910,0.129592046,9.706890106
1784246940.814854,0.014233260,-0.124054871,-1.329495192,-0.000049472,-0.000669918,-0.000444388,1.219029665,0.146776810,9.726257324
1784246940.816854,0.014241553,-0.124052942,-1.329497814,0.000650812,-0.000550147,-0.000763752,1.206018448,0.148979858,9.754951477
1784246940.818853,0.014243916,-0.124048874,-1.329498172,0.001129871,0.000040421,-0.000831184,1.220130682,0.123348311,9.679480553
1784246940.820854,0.014242947,-0.124043241,-1.329495311,0.000937778,0.000689812,-0.000446702,1.233659267,0.132623985,9.736938477
1784246940.822864,0.014242415,-0.124038436,-1.329493403,0.000635471,0.001235528,0.000014053,1.224446893,0.148588672,9.713719368
1784246940.824859,0.014243040,-0.124040507,-1.329491138,0.000518197,0.001110321,0.000292804,1.211673021,0.167658821,9.701276779
1784246940.826901,0.014245715,-0.124047957,-1.329486012,0.000603918,0.000170083,0.000689983,1.234486818,0.162355363,9.712920189
1784246940.828868,0.014243752,-0.124050803,-1.329495192,0.000396175,-0.000579415,0.000238411,1.220944285,0.155805245,9.713315010
1784246940.830907,0.014247465,-0.124047272,-1.329495668,0.000326102,-0.000385891,-0.000483446,1.211592555,0.124975942,9.718038559
1784246940.832874,0.014247469,-0.124040648,-1.329489112,0.000550787,0.000393778,0.000023639,1.211480975,0.115584657,9.715736389
1784246940.834875,0.014245752,-0.124041833,-1.329489470,0.000349286,0.000641490,0.000426784,1.220227361,0.133432031,9.710478783
1784246940.836913,0.014250729,-0.124048486,-1.329488635,0.000501484,-0.000042694,0.000300937,1.220430374,0.115275718,9.743091583
1784246940.838881,0.014256832,-0.124050297,-1.329489112,0.001136443,-0.000582322,0.000137655,1.214022398,0.140196949,9.715449333
1784246940.840879,0.014263788,-0.124048166,-1.329487801,0.001713674,-0.000400809,0.000040141,1.236964464,0.144821778,9.716845512
1784246940.842878,0.014267539,-0.124050595,-1.329486489,0.001971900,-0.000195718,0.000113666,1.233314395,0.140743896,9.729816437
1784246940.844878,0.014264495,-0.124054462,-1.329485178,0.001486379,-0.000453583,0.000254148,1.227740407,0.159884200,9.694516182
1784246940.846878,0.014259562,-0.124057390,-1.329475880,0.000569533,-0.000747232,0.000986816,1.204249501,0.150423035,9.744198799
1784246940.848877,0.014253845,-0.124054350,-1.329473972,-0.000274234,-0.000491609,0.001577050,1.187501550,0.138540819,9.744105339
1784246940.850876,0.014258383,-0.124050543,-1.329474330,-0.000267905,0.000106544,0.001252134,1.211678505,0.130516827,9.694761276
1784246940.852880,0.014259696,-0.124046832,-1.329471827,0.000279323,0.000554552,0.000998315,1.214662671,0.155888915,9.712860107
1784246940.854877,0.014261860,-0.124048352,-1.329471231,0.000529179,0.000521877,0.000919485,1.223726153,0.163773626,9.721885681
1784246940.856884,0.014268341,-0.124053791,-1.329472542,0.000904765,-0.000060107,0.000552375,1.220378160,0.145158499,9.699346542
1784246940.858880,0.014269447,-0.124052078,-1.329473615,0.001090622,-0.000266366,0.000159650,1.215862870,0.143776715,9.712782860
1784246940.860883,0.014264540,-0.124050945,-1.329469800,0.000560479,0.000001768,0.000326123,1.234150648,0.134168804,9.707807541
1784246940.862926,0.014263760,-0.124057770,-1.329461098,0.000112887,-0.000310533,0.001148491,1.216367841,0.146646321,9.686351776
1784246940.864893,0.014260311,-0.124061413,-1.329458594,-0.000126032,-0.000862302,0.001637599,1.218011618,0.135300308,9.703764915
1784246940.866886,0.014261816,-0.124058530,-1.329459906,-0.000201125,-0.000630927,0.001275522,1.217192173,0.142005786,9.707393646
1784246940.868887,0.014270136,-0.124059282,-1.329460979,0.000506471,-0.000270499,0.000671049,1.216197968,0.134363770,9.712723732
1784246940.870884,0.014275553,-0.124059461,-1.329462528,0.001272416,-0.000262399,0.000193573,1.209162951,0.147751510,9.732977867
1784246940.872890,0.014277244,-0.124058090,-1.329460382,0.001397360,-0.000109607,0.000134696,1.231604695,0.147518113,9.725376129
1784246940.874890,0.014278432,-0.124055706,-1.329455972,0.001254213,0.000181451,0.000543730,1.229248405,0.137332782,9.712755203
1784246940.876898,0.014281607,-0.124052376,-1.329458237,0.001278828,0.000538080,0.000517784,1.192842126,0.132858187,9.714484215
1784246940.878901,0.014285618,-0.124061286,-1.329460144,0.001434097,0.000025200,0.000043501,1.230448842,0.125630409,9.718061447
1784246940.880903,0.014287199,-0.124064252,-1.329465270,0.001361976,-0.000795302,-0.000485311,1.212631106,0.137831300,9.735607147
1784246940.882902,0.014291275,-0.124061838,-1.329471588,0.001300283,-0.000635083,-0.001173218,1.232024550,0.144446582,9.715494156
1784246940.884919,0.014294832,-0.124065518,-1.329469323,0.001452650,-0.000559480,-0.001186867,1.243470788,0.126350060,9.719424248
1784246940.886918,0.014300675,-0.124074109,-1.329463959,0.001790033,-0.001141466,-0.000441824,1.219990373,0.151724681,9.721804619
1784246940.888915,0.014302570,-0.124073364,-1.329469323,0.001859354,-0.001272448,-0.000403167,1.227715015,0.160493970,9.734870911
1784246940.890910,0.014296087,-0.124072827,-1.329474330,0.000958497,-0.000850089,-0.000951290,1.211910248,0.150989488,9.713723183
1784246940.892910,0.014295745,-0.124070629,-1.329476118,0.000158311,-0.000416520,-0.001079342,1.195078492,0.132772207,9.722556114
1784246940.894942,0.014299348,-0.124071322,-1.329478025,0.000279437,-0.000180922,-0.001063645,1.189061046,0.119639866,9.752953529
1784246940.896932,0.014300106,-0.124071330,-1.329479337,0.000545697,-0.000263309,-0.001035289,1.204841018,0.122870073,9.711294174
1784246940.898921,0.014293272,-0.124064758,-1.329480886,0.000039573,0.000169536,-0.000904689,1.235671639,0.150528967,9.735711098
1784246940.900922,0.014293183,-0.124063514,-1.329483271,-0.000471839,0.000648833,-0.000881068,1.207532406,0.161229238,9.730820656
1784246940.902922,0.014296143,-0.124059483,-1.329482317,-0.000249794,0.000828928,-0.000755547,1.202775955,0.136871457,9.699275970
1784246940.904920,0.014301416,-0.124059297,-1.329476237,0.000344024,0.000898259,-0.000140262,1.232453465,0.141041577,9.689469337
1784246940.906920,0.014305771,-0.124068268,-1.329470277,0.001002329,0.000152485,0.000610770,1.226524353,0.134685889,9.711839676
1784246940.908918,0.014304482,-0.124068372,-1.329471827,0.000976372,-0.000418584,0.000705636,1.204018950,0.130366534,9.729722977
1784246940.910933,0.014298733,-0.124068245,-1.329469800,0.000240376,-0.000303786,0.000596044,1.204862952,0.125475168,9.722969055
1784246940.912932,0.014295003,-0.124067277,-1.329468846,-0.000404742,-0.000220199,0.000714605,1.203534365,0.127252460,9.727460861
1784246940.914935,0.014301036,-0.124065496,-1.329475045,-0.000148798,-0.000055154,0.000152843,1.222522736,0.139890566,9.743251801
1784246940.916941,0.014308560,-0.124065697,-1.329476237,0.000744136,0.000131008,-0.000507630,1.230182886,0.142884061,9.749554634
1784246940.918939,0.014306590,-0.124063142,-1.329478383,0.000888167,0.000323980,-0.000646278,1.211590528,0.161333308,9.708857536
1784246940.920944,0.014302757,-0.124066412,-1.329479575,0.000230338,0.000184021,-0.000623694,1.230581641,0.136000276,9.708712578
1784246940.922940,0.014300198,-0.124067754,-1.329485059,-0.000323215,-0.000149799,-0.000825274,1.220584750,0.126220733,9.715812683
1784246940.924946,0.014296818,-0.124064498,-1.329482675,-0.000667881,0.000055038,-0.000752911,1.238274574,0.140468001,9.696643829
1784246940.926949,0.014301636,-0.124061443,-1.329477787,-0.000355934,0.000572296,-0.000065438,1.218535662,0.141562819,9.704254150
1784246940.929000,0.014310301,-0.124057695,-1.329479337,0.000649985,0.000978929,0.000075747,1.230907679,0.125704139,9.706853867
1784246940.930991,0.014308803,-0.124063343,-1.329481721,0.000924243,0.000580789,-0.000259242,1.206279159,0.128848001,9.687124252
1784246940.932956,0.014308482,-0.124069788,-1.329487681,0.000502497,-0.000385081,-0.000742705,1.206275582,0.131252810,9.727040291
1784246940.934973,0.014312619,-0.124075830,-1.329488158,0.000592592,-0.001111544,-0.001004139,1.229008317,0.119633377,9.744920731
1784246940.936957,0.014305932,-0.124076836,-1.329491735,0.000264291,-0.001241752,-0.000994424,1.194395542,0.151092887,9.730744362
1784246940.938952,0.014300761,-0.124073699,-1.329496264,-0.000636703,-0.000716281,-0.001183512,1.230574012,0.136749938,9.729341507
1784246940.940959,0.014302704,-0.124073379,-1.329493642,-0.000696733,-0.000288128,-0.000959024,1.218391776,0.131917179,9.737816811
1784246940.942959,0.014309224,-0.124071665,-1.329488873,0.000125305,-0.000060764,-0.000271080,1.215025544,0.111942247,9.717510223
1784246940.944955,0.014307316,-0.124068812,-1.329491615,0.000419338,0.000272140,-0.000094405,1.257465005,0.133726731,9.728001595
1784246940.946950,0.014304125,-0.124075606,-1.329495907,-0.000093445,0.000057726,-0.000492903,1.214387059,0.134666219,9.736485481
1784246940.948954,0.014295231,-0.124081120,-1.329488754,-0.000854448,-0.000656699,-0.000064857,1.227887869,0.138858885,9.752664566
1784246940.950971,0.014292963,-0.124084666,-1.329491138,-0.001335799,-0.001088605,0.000355890,1.200274467,0.154214263,9.722250938
1784246940.952967,0.014293414,-0.124081627,-1.329493165,-0.001154464,-0.000846799,-0.000019624,1.199951649,0.165752530,9.738465309
1784246940.954963,0.014296747,-0.124083765,-1.329501629,-0.000694875,-0.000581414,-0.000743459,1.232357383,0.134611160,9.711844444
1784246940.956982,0.014294735,-0.124087110,-1.329502702,-0.000454734,-0.000765489,-0.001200812,1.204533577,0.132905841,9.686699867
1784246940.958972,0.014288086,-0.124083780,-1.329501867,-0.000874012,-0.000519512,-0.000828794,1.214052677,0.143272281,9.723987579
1784246940.960965,0.014285640,-0.124083564,-1.329504848,-0.001267400,-0.000140607,-0.000683173,1.219133019,0.119324610,9.743116379
1784246940.963004,0.014289918,-0.124084741,-1.329506397,-0.000779079,-0.000159371,-0.000830226,1.223834276,0.135142893,9.715425491
1784246940.964981,0.014295547,-0.124084674,-1.329507351,0.000136943,-0.000179524,-0.000864291,1.194407225,0.151185095,9.717742920
1784246940.966975,0.014295059,-0.124084391,-1.329501033,0.000441669,-0.000157839,-0.000311823,1.215327621,0.137425184,9.724846840
1784246940.968992,0.014300452,-0.124094851,-1.329500079,0.000408188,-0.000372834,0.000016746,1.209912658,0.135632366,9.734692574
1784246940.970976,0.014297641,-0.124094263,-1.329503059,0.000205066,-0.000469768,-0.000357609,1.228163481,0.120871462,9.698302269
1784246940.972970,0.014302872,-0.124095500,-1.329505086,0.000275605,-0.000398745,-0.000629186,1.234513760,0.129031971,9.736468315
1784246940.974974,0.014302842,-0.124102078,-1.329504848,0.000521293,-0.000728302,-0.000630272,1.217496753,0.129920989,9.705074310
1784246940.976984,0.014302842,-0.124102078,-1.329504848,0.000353365,-0.001235847,-0.000434535,1.217496753,0.129920989,9.705074310
1784246940.978976,0.014295223,-0.124103807,-1.329501033,-0.000237236,-0.001368430,0.000015515,1.208878398,0.124432117,9.736414909
1784246940.980981,0.014292493,-0.124107398,-1.329502821,-0.000718013,-0.001192490,0.000019877,1.193856835,0.143092543,9.722621918
1784246940.982978,0.014295942,-0.124103308,-1.329505444,-0.000375692,-0.000672595,-0.000497165,1.235393763,0.125233665,9.701923370
1784246940.984983,0.014295830,-0.124104448,-1.329502463,0.000000585,-0.000154331,-0.000367394,1.208608747,0.138413683,9.723951340
1784246940.986979,0.014294550,-0.124107368,-1.329508781,-0.000073595,-0.000257788,-0.000474661,1.192824721,0.130694687,9.703710556
1784246940.988981,0.014292326,-0.124109499,-1.329513669,-0.000381869,-0.000543305,-0.001059829,1.220173836,0.128955573,9.710002899
1784246940.990990,0.014284180,-0.124114059,-1.329509616,-0.000951970,-0.000770224,-0.000728597,1.229185939,0.131572887,9.703751564
1784246940.992986,0.014281741,-0.124111630,-1.329506040,-0.001310924,-0.000615696,0.000092232,1.226658106,0.147088885,9.731645584
1784246940.994988,0.014284475,-0.124106690,-1.329499245,-0.000897809,0.000029136,0.000766442,1.206134081,0.155566081,9.710609436
1784246940.996995,0.014285183,-0.124105804,-1.329499364,-0.000416540,0.000390720,0.000968452,1.221693039,0.142056376,9.692154884
1784246940.998988,0.014287979,-0.124102525,-1.329501033,-0.000083649,0.000567757,0.000555498,1.208693027,0.144348472,9.708296776
1784246941.000997,0.014295134,-0.124097496,-1.329500675,0.000559767,0.000980501,0.000238832,1.180696726,0.131151617,9.724325180
1784246941.002995,0.014296706,-0.124095611,-1.329497099,0.000990487,0.001189381,0.000368608,1.211411953,0.148577347,9.738814354
1784246941.005010,0.014285823,-0.124097921,-1.329500675,0.000069432,0.000833439,0.000368097,1.228365421,0.138675466,9.714556694
1784246941.007002,0.014273171,-0.124098741,-1.329501510,-0.001597620,0.000387995,0.000184587,1.234455585,0.123303875,9.722981453
1784246941.009000,0.014271108,-0.124100029,-1.329497099,-0.002125147,0.000143316,0.000503733,1.213243127,0.113683976,9.727831841
1784246941.011003,0.014270001,-0.124101624,-1.329495788,-0.001641920,-0.000062505,0.000773556,1.212736011,0.144738317,9.709199905
1784246941.013019,0.014263527,-0.124100603,-1.329498649,-0.001648835,-0.000061813,0.000519093,1.224959612,0.153545484,9.708819389
1784246941.015019,0.014261271,-0.124101095,-1.329501867,-0.001905357,0.000033060,0.000063068,1.231736660,0.121101744,9.722517967
1784246941.017018,0.014264748,-0.124101482,-1.329504967,-0.001424009,0.000005635,-0.000376928,1.210981131,0.148319587,9.712808609
1784246941.019015,0.014268436,-0.124101862,-1.329496980,-0.000514738,-0.000042571,-0.000010762,1.200297832,0.155615374,9.714189529
1784246941.021018,0.014270606,-0.124097005,-1.329496980,0.000041974,0.000228109,0.000474144,1.204293609,0.152392939,9.719102859
1784246941.023026,0.014273019,-0.124092080,-1.329499841,0.000272137,0.000773489,0.000125034,1.241148114,0.120078713,9.723415375
1784246941.025025,0.014278231,-0.124094851,-1.329500794,0.000762333,0.000879881,-0.000220657,1.225926638,0.121357717,9.696957588
1784246941.027024,0.014281879,-0.124097690,-1.329501271,0.001221911,0.000433418,-0.000330831,1.248684287,0.149552166,9.723611832
1784246941.029021,0.014285216,-0.124096163,-1.329494834,0.001412179,0.000232516,0.000112874,1.236991405,0.147061557,9.716860771
1784246941.031080,0.014288489,-0.124096304,-1.329488158,0.001499666,0.000479705,0.000925619,1.198423982,0.150558189,9.735675812
1784246941.033025,0.014286467,-0.124100685,-1.329488635,0.001144090,0.000252865,0.001099570,1.185775638,0.143161058,9.727545738
1784246941.035023,0.014280579,-0.124103129,-1.329490900,0.000175180,-0.000459495,0.000698613,1.208257556,0.182859182,9.712130547
1784246941.037058,0.014279610,-0.124104865,-1.329490900,-0.000456437,-0.000799361,0.000425687,1.214662671,0.155482292,9.707029343
1784246941.039028,0.014284132,-0.124102920,-1.329491377,-0.000097774,-0.000569911,0.000248874,1.226074457,0.134682104,9.713182449
1784246941.041033,0.014280005,-0.124097370,-1.329491258,-0.000028975,0.000193179,0.000141134,1.234544992,0.128873363,9.695669174
1784246941.043042,0.014278481,-0.124096885,-1.329495311,-0.000413538,0.000646769,-0.000101080,1.218758702,0.123565495,9.714449883
1784246941.045034,0.014279540,-0.124103390,-1.329494834,-0.000288153,0.000018986,-0.000300277,1.208389282,0.119256273,9.709033966
1784246941.047042,0.014274229,-0.124103926,-1.329498768,-0.000450788,-0.000507826,-0.000410077,1.202151299,0.124950416,9.738654137
1784246941.049029,0.014270959,-0.124105550,-1.329503775,-0.000980410,-0.000525195,-0.000813609,1.230488896,0.166375175,9.721908569
1784246941.051033,0.014274032,-0.124105230,-1.329504371,-0.000912497,-0.000345747,-0.000943321,1.232723951,0.129093125,9.731087685
1784246941.053040,0.014277628,-0.124103591,-1.329503894,-0.000355006,0.000011610,-0.000728864,1.251681566,0.137842685,9.726678848
1784246941.055040,0.014278108,-0.124106772,-1.329509616,-0.000022472,0.000076955,-0.000934874,1.246615767,0.124721460,9.690723419
1784246941.057038,0.014275467,-0.124109127,-1.329515576,-0.000252539,-0.000156123,-0.001448300,1.216400385,0.150550812,9.704309464
1784246941.059040,0.014272881,-0.124113508,-1.329515576,-0.000586582,-0.000578658,-0.001408807,1.236159801,0.153265044,9.728108406
1784246941.061039,0.014278146,-0.124119259,-1.329519749,-0.000324964,-0.001000133,-0.001343764,1.216400385,0.149740726,9.692199707
1784246941.063045,0.014284967,-0.124123774,-1.329517841,0.000516347,-0.001314522,-0.001241232,1.203023791,0.158684820,9.718695641
1784246941.065052,0.014289037,-0.124120429,-1.329521298,0.001062007,-0.001057290,-0.001091729,1.209847331,0.129443571,9.722997665
1784246941.067045,0.014288861,-0.124115191,-1.329524994,0.000942970,-0.000214477,-0.001286868,1.214404821,0.135209575,9.723038673
1784246941.069042,0.014288485,-0.124114290,-1.329525113,0.000619054,0.000256518,-0.001177472,1.217760801,0.152268156,9.712391853
1784246941.071052,0.014297496,-0.124115720,-1.329524159,0.000956770,0.000196025,-0.000864443,1.250108600,0.156232089,9.726794243
1784246941.073051,0.014299016,-0.124114677,-1.329520345,0.001365094,0.000166657,-0.000383339,1.236018300,0.140801623,9.716818810
1784246941.075051,0.014298752,-0.124113172,-1.329511404,0.001211867,0.000398457,0.000563545,1.235405564,0.126949176,9.712694168
1784246941.077055,0.014302541,-0.124112681,-1.329506397,0.001262436,0.000529242,0.001307541,1.229750037,0.104613751,9.713441849
1784246941.079058,0.014301629,-0.124106534,-1.329514742,0.001087203,0.000831767,0.000713087,1.239724636,0.150998309,9.725405693
1784246941.081055,0.014293812,-0.124101393,-1.329512358,0.000041965,0.001458472,0.000208633,1.228850365,0.105822891,9.734072685
1784246941.083061,0.014296698,-0.124100313,-1.329510927,-0.000381001,0.001583510,0.000471647,1.201722264,0.125922024,9.728796005
1784246941.085059,0.014301286,-0.124101438,-1.329516292,0.000228199,0.001092609,0.000029652,1.188953757,0.144630045,9.704245567
1784246941.087063,0.014302600,-0.124099962,-1.329519153,0.000528251,0.000756312,-0.000581275,1.192717552,0.122148454,9.708586693
1784246941.089067,0.014303919,-0.124100126,-1.329519868,0.000530466,0.000637659,-0.000701037,1.207286000,0.140642121,9.727997780
1784246941.091065,0.014309673,-0.124098592,-1.329524398,0.000875739,0.000530403,-0.000932266,1.213477254,0.134172529,9.744551659
1784246941.093063,0.014317134,-0.124097079,-1.329531431,0.001491108,0.000559106,-0.001550836,1.223174334,0.118485041,9.727871895
1784246941.095063,0.014312082,-0.124097146,-1.329534650,0.001269097,0.000496252,-0.001840523,1.203565121,0.129520893,9.723440170
1784246941.097072,0.014310771,-0.124098420,-1.329531789,0.000597456,0.000271543,-0.001331292,1.193406105,0.142272338,9.712753296
1784246941.099072,0.014306486,-0.124100439,-1.329528928,0.000105810,-0.000020670,-0.000545850,1.206962466,0.150957331,9.727167130
1784246941.101069,0.014302906,-0.124101318,-1.329534888,-0.000521998,-0.000209207,-0.000533563,1.204679132,0.146214291,9.705166817
1784246941.103074,0.014299952,-0.124098510,-1.329535604,-0.000920951,-0.000021538,-0.000793486,1.218105197,0.144548506,9.726241112
1784246941.105075,0.014301040,-0.124095038,-1.329536796,-0.000792902,0.000432988,-0.000709624,1.221481323,0.125796258,9.710881233
1784246941.107089,0.014303838,-0.124094181,-1.329536557,-0.000303326,0.000633617,-0.000612525,1.214444757,0.101177864,9.720129967
1784246941.109077,0.014305365,-0.124089688,-1.329532385,0.000107279,0.000830974,-0.000180382,1.229228377,0.136770368,9.728891373
1784246941.111079,0.014305257,-0.124087363,-1.329530954,0.000245029,0.001119927,0.000225241,1.233334899,0.141716138,9.719063759
1784246941.113140,0.014304799,-0.124092638,-1.329526901,0.000211566,0.000665788,0.000534869,1.219864845,0.140601963,9.710974693
1784246941.115089,0.014310193,-0.124093696,-1.329520226,0.000581662,0.000094828,0.001066600,1.208753824,0.149285570,9.706983566
1784246941.117087,0.014314380,-0.124096222,-1.329522848,0.001107505,-0.000140893,0.000967973,1.222709298,0.153116748,9.710159302
1784246941.119095,0.014315021,-0.124096341,-1.329524636,0.001094285,-0.000287132,0.000372133,1.228965163,0.149992734,9.697144508
1784246941.121093,0.014316456,-0.124096192,-1.329524398,0.000924149,-0.000141274,0.000155844,1.227787256,0.127933323,9.714037895
1784246941.123104,0.014320557,-0.124091692,-1.329521418,0.001074210,0.000284241,0.000289322,1.201824903,0.133623227,9.716740608
1784246941.125096,0.014323967,-0.124082059,-1.329522848,0.001316085,0.001115659,0.000245261,1.233308911,0.137862563,9.693931580
1784246941.127098,0.014326452,-0.124080747,-1.329518199,0.001399204,0.001505465,0.000356227,1.230128765,0.136784300,9.725306511
1784246941.129096,0.014324605,-0.124086238,-1.329515576,0.001123063,0.000819228,0.000738004,1.206846118,0.139907748,9.706025124
1784246941.131126,0.014324709,-0.124084957,-1.329517007,0.000741279,0.000251697,0.000618322,1.209935427,0.136623666,9.721250534
1784246941.133107,0.014322238,-0.124084771,-1.329519629,0.000377676,0.000219265,0.000190137,1.214769363,0.164835423,9.714710236
1784246941.135144,0.014318482,-0.124084890,-1.329529166,-0.000375149,0.000113892,-0.000610421,1.224243760,0.132395327,9.723029137
1784246941.137114,0.014314779,-0.124086432,-1.329536915,-0.001050668,-0.000085392,-0.001537488,1.218881488,0.134665966,9.728419304
1784246941.139109,0.014313163,-0.124087818,-1.329540253,-0.001218650,-0.000272386,-0.001833476,1.228860497,0.143898964,9.735213280
1784246941.141121,0.014309605,-0.124087550,-1.329540133,-0.001285749,-0.000196536,-0.001506277,1.222441554,0.132361084,9.731098175
1784246941.143108,0.014305883,-0.124089874,-1.329535484,-0.001408878,-0.000197909,-0.000708744,1.234436393,0.120721020,9.708169937
1784246941.145108,0.014305499,-0.124095827,-1.329533219,-0.001123265,-0.000581603,-0.000020973,1.217053056,0.094401680,9.723228455
1784246941.147113,0.014307000,-0.124096163,-1.329537749,-0.000641039,-0.000733987,-0.000186713,1.197651982,0.122885741,9.722047806
1784246941.149112,0.014311732,-0.124098264,-1.329536080,-0.000071058,-0.000702919,-0.000378521,1.210473180,0.144614443,9.730717659
1784246941.151145,0.014314128,-0.124101050,-1.329541206,0.000450629,-0.000879093,-0.000573345,1.228008866,0.147919878,9.738376617
1784246941.153124,0.014312545,-0.124101549,-1.329538465,0.000415671,-0.000895849,-0.000570895,1.221799970,0.153032854,9.723608017
1784246941.155120,0.014315293,-0.124102756,-1.329533815,0.000354583,-0.000713776,0.000099832,1.221853495,0.158319339,9.736195564
1784246941.157128,0.014311739,-0.124101080,-1.329532027,0.000167181,-0.000435161,0.000516829,1.206281066,0.132917449,9.744984627
1784246941.159118,0.014304758,-0.124100693,-1.329528928,-0.000547207,-0.000171743,0.000783922,1.197432399,0.141315147,9.714095116
1784246941.161122,0.014303625,-0.124097213,-1.329530835,-0.000940077,0.000056327,0.000726175,1.229066253,0.160518035,9.729043961
1784246941.163181,0.014303314,-0.124093771,-1.329537511,-0.000860812,0.000420952,-0.000036279,1.226231217,0.147672951,9.713266373
1784246941.165140,0.014299586,-0.124088660,-1.329531550,-0.000928391,0.000918598,-0.000049071,1.204694748,0.111988619,9.729604721
1784246941.167132,0.014298107,-0.124087378,-1.329523087,-0.000927267,0.001148170,0.000987955,1.234178543,0.138038263,9.730698586
1784246941.169174,0.014304900,-0.124088712,-1.329520822,-0.000225641,0.000841867,0.001416959,1.229033351,0.156206936,9.705254555
1784246941.171141,0.014309929,-0.124091692,-1.329523444,0.000610529,0.000404214,0.000916475,1.212677002,0.139003858,9.696610451
1784246941.173135,0.014308915,-0.124094807,-1.329521179,0.000693831,-0.000035379,0.000622576,1.209420562,0.130837739,9.716729164
1784246941.175133,0.014306635,-0.124093316,-1.329520702,0.000304069,-0.000154319,0.000661605,1.221260667,0.144219279,9.703825951
1784246941.177140,0.014305939,-0.124093428,-1.329522729,0.000004934,-0.000040929,0.000384246,1.229780316,0.144468993,9.716387749
1784246941.179133,0.014302660,-0.124087818,-1.329529166,-0.000335333,0.000333748,-0.000267668,1.207055449,0.118558861,9.683471680
1784246941.181135,0.014297093,-0.124083385,-1.329541326,-0.000886077,0.000883935,-0.001391383,1.196826696,0.129140094,9.726121902
1784246941.183139,0.014300299,-0.124082901,-1.329535961,-0.000750240,0.000950315,-0.001452832,1.205431104,0.132490888,9.680420876
1784246941.185143,0.014310726,-0.124082483,-1.329521656,0.000571819,0.000759422,0.000145729,1.217657328,0.106567197,9.712547302
1784246941.187149,0.014308281,-0.124081999,-1.329514146,0.001172861,0.000623045,0.001508273,1.187081337,0.140392452,9.736496925
1784246941.189142,0.014300083,-0.124082543,-1.329516292,0.000183730,0.000454842,0.001559527,1.200517774,0.173969075,9.716100693
1784246941.191145,0.014301051,-0.124081925,-1.329519868,-0.000463198,0.000282387,0.000802425,1.213838339,0.164986432,9.758199692
1784246941.193148,0.014310689,-0.124080136,-1.329516649,0.000314381,0.000321842,0.000488461,1.214157224,0.153012931,9.740189552
1784246941.195149,0.014316777,-0.124080792,-1.329525232,0.001206788,0.000313396,-0.000119036,1.212883711,0.158872753,9.737536430
1784246941.197151,0.014316948,-0.124078467,-1.329529762,0.001153085,0.000335598,-0.001013846,1.229131460,0.165896758,9.728629112
1784246941.199150,0.014312195,-0.124075912,-1.329518557,0.000588766,0.000582680,-0.000239161,1.234202504,0.141872793,9.758519173
1784246941.201154,0.014310439,-0.124077126,-1.329517841,0.000102963,0.000617385,0.000667245,1.231663465,0.114849344,9.719786644
1784246941.203157,0.014316717,-0.124080017,-1.329528570,0.000308966,0.000250167,-0.000226201,1.236530304,0.108568713,9.712129593
1784246941.205164,0.014317987,-0.124083146,-1.329530478,0.000692790,-0.000180644,-0.001076175,1.205792069,0.128145069,9.723882675
1784246941.207163,0.014313919,-0.124087304,-1.329527378,0.000390652,-0.000566408,-0.000685795,1.195740700,0.112262599,9.707181931
1784246941.209166,0.014314600,-0.124086641,-1.329529524,0.000064216,-0.000648295,-0.000400468,1.213328600,0.120031744,9.717112541
1784246941.211159,0.014318021,-0.124083444,-1.329527497,0.000356365,-0.000226688,-0.000351552,1.213619590,0.144618720,9.724442482
1784246941.213165,0.014325825,-0.124081813,-1.329528689,0.001058115,0.000147173,-0.000314769,1.232746482,0.129271209,9.705981255
1784246941.215164,0.014329175,-0.124086171,-1.329533696,0.001511262,-0.000027171,-0.000723798,1.205842137,0.130972743,9.704174042
1784246941.217168,0.014331175,-0.124091923,-1.329534054,0.001455990,-0.000654665,-0.000916861,1.218073845,0.141870275,9.724879265
1784246941.219170,0.014330899,-0.124089845,-1.329526424,0.001237136,-0.000719192,-0.000189114,1.200034261,0.133678004,9.712254524
1784246941.221173,0.014328210,-0.124089316,-1.329519868,0.000827709,-0.000370510,0.000830247,1.211918592,0.151459694,9.710587502
1784246941.223182,0.014328266,-0.124089584,-1.329515100,0.000528169,-0.000277261,0.001373374,1.189444304,0.148601890,9.711892128
1784246941.225198,0.014332173,-0.124088950,-1.329514623,0.000654312,-0.000228385,0.001336234,1.212415695,0.157105729,9.734833717
1784246941.227182,0.014334458,-0.124083087,-1.329512119,0.000877636,0.000220782,0.001149224,1.234242558,0.140974045,9.695746422
1784246941.229178,0.014333128,-0.124084353,-1.329509139,0.000749798,0.000477913,0.001210707,1.238879561,0.155070111,9.721395493
1784246941.231175,0.014335494,-0.124089688,-1.329512477,0.000632332,0.000001956,0.000854623,1.200750828,0.156861320,9.727199554
1784246941.233178,0.014336611,-0.124092720,-1.329514146,0.000672732,-0.000470133,0.000269789,1.218968391,0.141429901,9.722187042
1784246941.235183,0.014336209,-0.124092773,-1.329513669,0.000559801,-0.000544183,0.000115798,1.220252156,0.136059374,9.719014168
1784246941.237184,0.014330125,-0.124092415,-1.329511285,0.000027301,-0.000361275,0.000329154,1.216977000,0.124096870,9.705933571
1784246941.239183,0.014330735,-0.124092475,-1.329514980,-0.000360121,-0.000244263,0.000195663,1.212404251,0.119830199,9.747147560
1784246941.241190,0.014333467,-0.124096282,-1.329522491,-0.000028800,-0.000431086,-0.000642249,1.199047685,0.127716571,9.733286858
1784246941.243184,0.014329179,-0.124095827,-1.329523563,-0.000094917,-0.000529199,-0.001036315,1.239547729,0.135418236,9.711407661
1784246941.245193,0.014321065,-0.124096647,-1.329517365,-0.000828629,-0.000239496,-0.000311562,1.223549485,0.113847062,9.749361992
1784246941.247191,0.014327596,-0.124097675,-1.329517126,-0.000622854,-0.000126430,0.000217042,1.251080155,0.162479326,9.728628159
1784246941.249193,0.014334042,-0.124098361,-1.329520226,0.000394928,-0.000210765,-0.000155601,1.218707204,0.157911643,9.736189842
1784246941.251194,0.014333720,-0.124097422,-1.329516649,0.000649095,-0.000124725,-0.000138191,1.238856792,0.154888839,9.746950150
1784246941.253197,0.014335330,-0.124096334,-1.329513431,0.000563255,0.000063882,0.000362162,1.235763550,0.157737702,9.729928970
1784246941.255198,0.014339123,-0.124095656,-1.329513788,0.000718564,0.000218701,0.000438278,1.237738729,0.135326773,9.727545738
1784246941.257200,0.014337596,-0.124091156,-1.329519391,0.000546164,0.000554096,-0.000083143,1.245980144,0.147061065,9.700728416
1784246941.259202,0.014335029,-0.124084808,-1.329524994,0.000027119,0.001128647,-0.000786712,1.219955683,0.148207769,9.712368011
1784246941.261204,0.014341347,-0.124088377,-1.329522133,0.000203608,0.001106252,-0.000813430,1.203848839,0.151617229,9.702960014
1784246941.263204,0.014341286,-0.124093451,-1.329514980,0.000611175,0.000325650,0.000029777,1.223988652,0.146897987,9.700258255
1784246941.265203,0.014333262,-0.124094859,-1.329512596,-0.000031132,-0.000125553,0.000751518,1.205105901,0.145630226,9.723545074
1784246941.267204,0.014325550,-0.124090880,-1.329516053,-0.001105703,0.000150360,0.000611787,1.225327253,0.147226959,9.714609146
1784246941.269215,0.014325302,-0.124089949,-1.329517245,-0.001380584,0.000437761,0.000204401,1.208458185,0.125473678,9.716694832
1784246941.271206,0.014327658,-0.124093898,-1.329523206,-0.000845166,0.000064884,-0.000365227,1.197007060,0.143532068,9.718144417
1784246941.273215,0.014332901,-0.124097884,-1.329532266,-0.000150129,-0.000548596,-0.001341221,1.231692433,0.154288411,9.718246460
1784246941.275210,0.014333724,-0.124100536,-1.329534292,0.000122769,-0.000778884,-0.001744506,1.218157411,0.148608774,9.722231865
1784246941.277216,0.014335738,-0.124100484,-1.329532266,0.000196312,-0.000661958,-0.001278731,1.232775927,0.133556843,9.733357430
1784246941.279213,0.014342605,-0.124100998,-1.329530597,0.000774489,-0.000511656,-0.000739653,1.205473781,0.102531806,9.734926224
1784246941.281221,0.014343597,-0.124101266,-1.329528570,0.001249771,-0.000420633,-0.000365009,1.210342765,0.134263635,9.737375259
1784246941.283216,0.014340783,-0.124096438,-1.329536676,0.000859894,-0.000000750,-0.000686994,1.212968349,0.128030822,9.727025986
1784246941.285220,0.014338020,-0.124097452,-1.329541445,0.000214460,0.000239465,-0.001319637,1.215868592,0.144227847,9.712339401
1784246941.287222,0.014337465,-0.124104016,-1.329538941,-0.000012545,-0.000348556,-0.001062303,1.228484869,0.148533762,9.714170456
1784246941.289222,0.014345198,-0.124099918,-1.329530597,0.000565563,-0.000411716,-0.000095394,1.221792936,0.152572170,9.725399017
1784246941.291223,0.014349475,-0.124095149,-1.329529643,0.001248744,0.000332297,0.000469393,1.261924505,0.129399508,9.698389053
1784246941.293230,0.014346089,-0.124098241,-1.329527497,0.000946224,0.000380836,0.000569933,1.254371405,0.100199141,9.722852707
1784246941.295223,0.014336403,-0.124101654,-1.329525232,-0.000002835,-0.000045034,0.000819965,1.215336561,0.138711810,9.732926369
1784246941.297229,0.014332849,-0.124103427,-1.329523921,-0.000711191,-0.000264766,0.000948433,1.216156483,0.129982755,9.698797226
1784246941.299244,0.014339673,-0.124109566,-1.329520106,-0.000253969,-0.000723097,0.001005802,1.196989179,0.143795595,9.744149208
1784246941.301242,0.014340381,-0.124112502,-1.329526544,0.000296003,-0.001181999,0.000505689,1.209568501,0.144568712,9.738786697
1784246941.303240,0.014343828,-0.124118961,-1.329529881,0.000408078,-0.001546424,-0.000310561,1.220450401,0.151807964,9.709253311
1784246941.305237,0.014348865,-0.124121301,-1.329524755,0.000814931,-0.001675955,-0.000163791,1.237045169,0.151538014,9.717337608
1784246941.307238,0.014349603,-0.124114618,-1.329522610,0.000975476,-0.000871328,0.000345061,1.248087406,0.135420293,9.695724487
1784246941.309242,0.014351559,-0.124107756,-1.329527855,0.000865138,0.000279577,0.000014520,1.209969401,0.137700826,9.695703506
1784246941.311248,0.014349927,-0.124109402,-1.329534531,0.000526754,0.000548237,-0.000789467,1.197615862,0.119762748,9.720232964
1784246941.313246,0.014347516,-0.124104433,-1.329537153,0.000007170,0.000619576,-0.001159668,1.211883068,0.112779863,9.731410027
1784246941.315246,0.014339711,-0.124101259,-1.329542994,-0.000675204,0.001016253,-0.001337658,1.231103301,0.143460408,9.729831696
1784246941.317247,0.014333862,-0.124102280,-1.329549074,-0.001429466,0.000895126,-0.001650534,1.219644785,0.122248277,9.709062576
1784246941.319248,0.014330635,-0.124103233,-1.329547882,-0.001693831,0.000513169,-0.001446401,1.231923461,0.136758119,9.725754738
1784246941.321251,0.014327066,-0.124103270,-1.329547167,-0.001651021,0.000355827,-0.000881452,1.224077106,0.118518069,9.721595764
1784246941.323267,0.014329023,-0.124106191,-1.329542875,-0.001241967,0.000110030,-0.000289506,1.202167034,0.124264359,9.709057808
1784246941.325259,0.014327882,-0.124106273,-1.329537392,-0.000727957,-0.000091241,0.000448821,1.207788706,0.143089220,9.697977066
1784246941.327263,0.014327670,-0.124107130,-1.329528332,-0.000461204,-0.000094703,0.001312244,1.211230516,0.168118894,9.700381279
1784246941.329259,0.014323229,-0.124112710,-1.329532981,-0.000613306,-0.000503486,0.001288559,1.218624830,0.149155900,9.707441330
1784246941.331254,0.014322447,-0.124119014,-1.329540253,-0.000924276,-0.001152465,0.000185922,1.208430529,0.159197316,9.699873924
1784246941.333264,0.014321248,-0.124118172,-1.329536080,-0.000858017,-0.001181848,-0.000054796,1.189430952,0.148090348,9.720855713
1784246941.335262,0.014320428,-0.124117725,-1.329529405,-0.000699047,-0.000796221,0.000710981,1.213343501,0.159766093,9.737093925
1784246941.337267,0.014314507,-0.124115773,-1.329525948,-0.000907887,-0.000439798,0.001268747,1.216814160,0.149054900,9.724924088
1784246941.339262,0.014309918,-0.124110281,-1.329528451,-0.001362041,0.000186745,0.001080927,1.238092303,0.126466751,9.712694168
1784246941.341271,0.014313674,-0.124107614,-1.329529524,-0.001057402,0.000800750,0.000548851,1.228195548,0.125176191,9.722987175
1784246941.343269,0.014319972,-0.124105513,-1.329527259,-0.000060969,0.001022266,0.000395885,1.252710462,0.111815065,9.730547905
1784246941.345310,0.014326117,-0.124108337,-1.329520583,0.000949466,0.000853484,0.000788515,1.255076766,0.121266618,9.720297813
1784246941.347278,0.014330122,-0.124113955,-1.329515696,0.001552871,0.000208764,0.001269993,1.235418677,0.127457559,9.704179764
1784246941.349272,0.014329589,-0.124118388,-1.329512954,0.001429539,-0.000523608,0.001419817,1.227347016,0.130032599,9.734674454
1784246941.351280,0.014324921,-0.124111198,-1.329511642,0.000770946,-0.000185933,0.001352395,1.218862891,0.132492915,9.718991280
1784246941.353277,0.014319968,-0.124110058,-1.329507589,0.000005688,0.000440346,0.001431306,1.217993021,0.136774182,9.748606682
1784246941.355279,0.014318419,-0.124118552,-1.329500675,-0.000328743,-0.000133989,0.001844441,1.222143412,0.144496754,9.726243973
1784246941.357284,0.014322264,-0.124119587,-1.329498410,0.000005083,-0.000701389,0.001946923,1.219959855,0.150266334,9.737936020
1784246941.359277,0.014320144,-0.124120042,-1.329495430,0.000163986,-0.000608188,0.001753491,1.227065086,0.143512174,9.729829788
1784246941.361284,0.014326999,-0.124124967,-1.329495907,0.000440597,-0.000756799,0.001413057,1.250248790,0.130285934,9.720800400
1784246941.363297,0.014334614,-0.124129258,-1.329504490,0.001201681,-0.001135880,0.000316000,1.192232609,0.120651335,9.730994225
1784246941.365295,0.014332449,-0.124129534,-1.329503775,0.001233229,-0.001245291,-0.000338682,1.188607335,0.117984124,9.734560013
1784246941.367292,0.014325759,-0.124129556,-1.329494596,0.000442786,-0.001018317,0.000502587,1.198219776,0.132328510,9.716280937
1784246941.369289,0.014319000,-0.124131523,-1.329493403,-0.000494998,-0.000867509,0.001186994,1.213383436,0.162917733,9.734872818
1784246941.371300,0.014315601,-0.124129400,-1.329498410,-0.001155985,-0.000589916,0.000711750,1.219953537,0.149001941,9.726718903
1784246941.373296,0.014314774,-0.124126829,-1.329501033,-0.001271825,-0.000083658,0.000042881,1.211106420,0.121849149,9.717570305
1784246941.375292,0.014310570,-0.124128774,-1.329505444,-0.001250706,0.000013910,-0.000427674,1.199435949,0.156719938,9.686399460
1784246941.377296,0.014304817,-0.124126449,-1.329507709,-0.001561161,0.000069948,-0.000680811,1.208185434,0.139026374,9.701538086
1784246941.379298,0.014304188,-0.124124251,-1.329505682,-0.001568641,0.000357857,-0.000448303,1.202410221,0.144826055,9.715467453
1784246941.381328,0.014302321,-0.124125458,-1.329506636,-0.001360387,0.000276971,-0.000226048,1.225394011,0.115838490,9.717992783
1784246941.383307,0.014305544,-0.124126650,-1.329509974,-0.000993347,-0.000015940,-0.000444187,1.202610850,0.125030518,9.726549149
1784246941.385303,0.014307380,-0.124125622,-1.329510212,-0.000362470,-0.000053360,-0.000583489,1.228430867,0.145677477,9.737914085
1784246941.387314,0.014309280,-0.124127410,-1.329509497,0.000041838,-0.000117683,-0.000414486,1.244486213,0.136590794,9.726663589
1784246941.389309,0.014307126,-0.124127045,-1.329508662,0.000028568,-0.000179885,-0.000183633,1.227918983,0.139103726,9.718145370
1784246941.391305,0.014302365,-0.124123931,-1.329508066,-0.000393502,0.000103012,0.000021818,1.229781032,0.143258631,9.697550774
1784246941.393314,0.014297350,-0.124126635,-1.329510093,-0.000919832,0.000096575,-0.000010563,1.220556378,0.124374829,9.723424911
1784246941.395311,0.014289542,-0.124133281,-1.329512835,-0.001489813,-0.000480859,-0.000236209,1.250121951,0.120773800,9.735533714
1784246941.397315,0.014281820,-0.124137044,-1.329514623,-0.002086698,-0.000971774,-0.000365167,1.221715093,0.145878196,9.721770287
1784246941.399320,0.014282612,-0.124135695,-1.329511166,-0.001974899,-0.000869418,-0.000112695,1.200594664,0.144280255,9.732499123
1784246941.401321,0.014285346,-0.124134094,-1.329516649,-0.001274467,-0.000475548,-0.000250943,1.233110189,0.120894074,9.686202049
1784246941.403320,0.014285704,-0.124139503,-1.329518914,-0.000840726,-0.000653559,-0.000715403,1.203682065,0.101363532,9.713396072
1784246941.405322,0.014283648,-0.124139726,-1.329516411,-0.000581267,-0.000875945,-0.000512809,1.202670813,0.129961252,9.726132393
1784246941.407325,0.014280867,-0.124139205,-1.329510450,-0.000533795,-0.000625985,0.000214507,1.212965965,0.128011748,9.729716301
1784246941.409322,0.014280452,-0.124139726,-1.329516649,-0.000606494,-0.000457192,0.000166447,1.197733998,0.130421594,9.733304024
1784246941.411321,0.014282798,-0.124140628,-1.329523683,-0.000441652,-0.000456926,-0.000789545,1.205920339,0.137263268,9.701524734
1784246941.413363,0.014289743,-0.124140657,-1.329520226,0.000256124,-0.000412616,-0.000889101,1.204560995,0.137582228,9.722146988
1784246941.415343,0.014291358,-0.124138564,-1.329514861,0.000836911,-0.000188218,-0.000130058,1.226974845,0.135099486,9.715877533
1784246941.417340,0.014292538,-0.124136388,-1.329512477,0.000863866,0.000123629,0.000405042,1.213060617,0.134836093,9.714965820
1784246941.419343,0.014292441,-0.124137238,-1.329517126,0.000684243,0.000176948,0.000143707,1.198647857,0.130540475,9.714924812
1784246941.421344,0.014288325,-0.124139063,-1.329524755,0.000118082,-0.000045631,-0.000680635,1.195843577,0.120773859,9.707236290
1784246941.423356,0.014288411,-0.124134630,-1.329528213,-0.000272556,0.000151530,-0.001206915,1.223419309,0.102282755,9.737630844
1784246941.425339,0.014288377,-0.124132045,-1.329533100,-0.000138493,0.000577857,-0.001461702,1.243314266,0.112552285,9.706781387
1784246941.427337,0.014288794,-0.124133974,-1.329535604,-0.000009524,0.000455671,-0.001577465,1.240257144,0.119737640,9.709962845
1784246941.429338,0.014282329,-0.124132946,-1.329538703,-0.000459598,0.000263313,-0.001464668,1.228608847,0.158023626,9.702576637
1784246941.431341,0.014282638,-0.124135882,-1.329540133,-0.000842079,0.000105329,-0.001310476,1.221367955,0.152765527,9.698947906
1784246941.433349,0.014287344,-0.124139674,-1.329534173,-0.000293593,-0.000327765,-0.000693155,1.198460221,0.152464509,9.719548225
1784246941.435355,0.014291644,-0.124140061,-1.329534411,0.000378593,-0.000502547,-0.000188071,1.233608007,0.164539903,9.722349167
1784246941.437352,0.014291365,-0.124134734,-1.329530597,0.000513576,-0.000013413,0.000074438,1.238451838,0.119271360,9.715785980
1784246941.439365,0.014293876,-0.124128297,-1.329530001,0.000562371,0.000792987,0.000340309,1.210739493,0.129390746,9.728826523
1784246941.441346,0.014298073,-0.124123879,-1.329535723,0.000834209,0.001346101,-0.000151792,1.203175783,0.134047568,9.717640877
1784246941.443386,0.014301703,-0.124127783,-1.329536080,0.001097172,0.001046923,-0.000604349,1.209843278,0.128195077,9.709539413
1784246941.445356,0.014302772,-0.124130301,-1.329536319,0.001155335,0.000287892,-0.000522068,1.222905636,0.095696270,9.719655037
1784246941.447361,0.014303494,-0.124125920,-1.329538345,0.000987015,0.000295746,-0.000549596,1.206699610,0.128619686,9.718505859
1784246941.449355,0.014303632,-0.124129519,-1.329538703,0.000755529,0.000266643,-0.000570017,1.222235680,0.152115270,9.725844383
1784246941.451364,0.014305462,-0.124136731,-1.329538226,0.000650785,-0.000494321,-0.000408395,1.230187058,0.141702324,9.726682663
1784246941.453356,0.014310257,-0.124133147,-1.329540730,0.000869491,-0.000564661,-0.000486060,1.209401011,0.167058349,9.726825714
1784246941.455352,0.014315745,-0.124127969,-1.329541922,0.001218144,0.000138908,-0.000682546,1.201200485,0.154835179,9.696252823
1784246941.457356,0.014317499,-0.124124467,-1.329539657,0.001308552,0.000651001,-0.000464911,1.218826294,0.129366741,9.717626572
1784246941.459360,0.014323214,-0.124125183,-1.329541445,0.001461041,0.000663470,-0.000362392,1.212712526,0.106963933,9.728684425
1784246941.461361,0.014328508,-0.124127366,-1.329541922,0.001947483,0.000219965,-0.000524307,1.217528582,0.133819073,9.723930359
1784246941.463398,0.014331776,-0.124128640,-1.329541445,0.002156393,-0.000138660,-0.000462172,1.216102004,0.163089916,9.705734253
1784246941.465364,0.014335076,-0.124126062,-1.329544187,0.001879964,0.000073239,-0.000505211,1.220196128,0.131157234,9.715396881
1784246941.467372,0.014335542,-0.124120742,-1.329540014,0.001520097,0.000677633,-0.000263531,1.207630038,0.130895689,9.711795807
1784246941.469364,0.014335345,-0.124123178,-1.329533458,0.001215775,0.000700527,0.000541950,1.210093498,0.150434166,9.732099533
1784246941.471369,0.014329433,-0.124123462,-1.329531670,0.000519795,0.000309002,0.001017396,1.233630419,0.129151568,9.721224785
1784246941.473373,0.014327643,-0.124121226,-1.329531193,-0.000145664,0.000333910,0.000968090,1.219352484,0.136458427,9.727535248
1784246941.475373,0.014334369,-0.124122933,-1.329533100,0.000236868,0.000218923,0.000571771,1.211735845,0.135021865,9.691203117
1784246941.477372,0.014338348,-0.124126293,-1.329534054,0.000891457,-0.000245995,0.000137116,1.196109056,0.143943816,9.724871635
1784246941.479369,0.014335732,-0.124126166,-1.329533696,0.000736927,-0.000399322,0.000055178,1.209465265,0.133620858,9.703297615
1784246941.481375,0.014334115,-0.124122918,-1.329525232,0.000374900,-0.000026446,0.000665707,1.187514305,0.137425870,9.711818695
1784246941.483380,0.014337002,-0.124121808,-1.329523563,0.000491525,0.000312865,0.001147556,1.224233985,0.131508946,9.721679688
1784246941.485376,0.014338441,-0.124120444,-1.329532146,0.000650455,0.000458450,0.000324762,1.203879356,0.119132541,9.734582901
1784246941.487386,0.014338218,-0.124124229,-1.329536080,0.000510244,0.000227386,-0.000619904,1.236330628,0.129587308,9.718091965
1784246941.489381,0.014336924,-0.124127291,-1.329535723,0.000239969,-0.000302988,-0.000678555,1.229226351,0.135944381,9.719022751
1784246941.491381,0.014334972,-0.124126948,-1.329530597,0.000063967,-0.000297366,-0.000105302,1.231438875,0.132833973,9.711382866
1784246941.493389,0.014337860,-0.124125369,-1.329526663,0.000246132,0.000026151,0.000513149,1.192928910,0.140432194,9.720362663
1784246941.495384,0.014341570,-0.124119446,-1.329528093,0.000671423,0.000459655,0.000477853,1.220093727,0.159429058,9.709300995
1784246941.497388,0.014334115,-0.124113396,-1.329531431,0.000225942,0.001073914,0.000073514,1.229707360,0.139029860,9.725319862
1784246941.499390,0.014330706,-0.124111347,-1.329534888,-0.000624814,0.001329632,-0.000313205,1.203185558,0.135340586,9.724822044
1784246941.501389,0.014329682,-0.124114186,-1.329532385,-0.000818086,0.000897355,-0.000272763,1.212239265,0.104748964,9.725979805
1784246941.503388,0.014329310,-0.124117181,-1.329524398,-0.000656866,0.000250556,0.000513506,1.220181584,0.130232707,9.719426155
1784246941.505385,0.014335375,-0.124114916,-1.329532146,-0.000027282,0.000156479,0.000331033,1.237378955,0.141708896,9.712791443
1784246941.507394,0.014332081,-0.124113820,-1.329538822,0.000111010,0.000349365,-0.000775747,1.217483521,0.130626127,9.731979370
1784246941.509393,0.014330130,-0.124113992,-1.329537272,-0.000316189,0.000311264,-0.000879837,1.228063107,0.151182771,9.720464706
1784246941.511391,0.014325979,-0.124112785,-1.329535484,-0.000646132,0.000352054,-0.000359604,1.243607759,0.138778493,9.735643387
1784246941.513397,0.014324828,-0.124112010,-1.329529643,-0.000796010,0.000451019,0.000308738,1.226628304,0.143206686,9.710548401
1784246941.515404,0.014325085,-0.124111354,-1.329526186,-0.000544561,0.000446786,0.000867974,1.230140805,0.138093203,9.730245590
1784246941.517400,0.014323364,-0.124113686,-1.329532981,-0.000506512,0.000216479,0.000425440,1.226871967,0.127398297,9.727932930
1784246941.519407,0.014320550,-0.124111205,-1.329532981,-0.000730257,0.000160627,-0.000095288,1.225093007,0.128761977,9.728386879
1784246941.521403,0.014319231,-0.124110378,-1.329532266,-0.000765336,0.000349562,0.000014249,1.223122239,0.115238041,9.743541718
1784246941.523422,0.014319746,-0.124114677,-1.329537749,-0.000614167,0.000019860,-0.000323469,1.225974798,0.127816394,9.733761787
1784246941.525412,0.014318851,-0.124115579,-1.329546809,-0.000521490,-0.000306037,-0.001237915,1.210276127,0.128065333,9.727024078
1784246941.527420,0.014313744,-0.124113813,-1.329547763,-0.000793868,-0.000128018,-0.001541269,1.196530819,0.140888199,9.712746620
1784246941.529413,0.014312627,-0.124113210,-1.329546332,-0.000993251,0.000069248,-0.001039811,1.236556172,0.111205615,9.719320297
1784246941.531421,0.014313674,-0.124108717,-1.329538226,-0.000431353,0.000508105,-0.000148234,1.224378109,0.143181354,9.718168259
1784246941.533417,0.014313063,-0.124104708,-1.329534292,0.000034322,0.001060083,0.000683172,1.232875943,0.142045856,9.736550331
1784246941.535414,0.014313510,-0.124104045,-1.329536557,0.000046621,0.001181826,0.000618845,1.215224624,0.128507286,9.718962669
1784246941.537419,0.014320133,-0.124102563,-1.329540968,0.000471019,0.001090027,-0.000078228,1.196058750,0.139492840,9.720808029
1784246941.539413,0.014325797,-0.124108322,-1.329542637,0.001118042,0.000497532,-0.000588430,1.212175488,0.136566311,9.725287437
1784246941.541419,0.014328918,-0.124109618,-1.329535365,0.001514296,-0.000010373,-0.000130267,1.200835943,0.127642706,9.740462303
1784246941.543415,0.014334030,-0.124106713,-1.329532146,0.001808571,0.000211434,0.000549790,1.222014666,0.133348614,9.719000816
1784246941.545423,0.014339179,-0.124105714,-1.329528451,0.002060342,0.000428272,0.000774795,1.210255384,0.126279831,9.726116180
1784246941.547429,0.014336306,-0.124101624,-1.329527855,0.001684336,0.000664930,0.000829947,1.220751762,0.142938018,9.758961678
1784246941.549427,0.014331168,-0.124100715,-1.329524279,0.000722992,0.000826192,0.000959229,1.219129801,0.117679045,9.722483635
1784246941.551438,0.014328456,-0.124106586,-1.329519510,0.000195202,0.000238181,0.001320531,1.211007237,0.149739757,9.702055931
1784246941.553429,0.014329604,-0.124109372,-1.329521418,0.000188691,-0.000443587,0.001149681,1.208884597,0.159639552,9.699876785
1784246941.555428,0.014331649,-0.124101728,-1.329526186,0.000231656,-0.000018708,0.000362512,1.201251149,0.159692794,9.706147194
1784246941.557433,0.014335978,-0.124093771,-1.329522610,0.000523234,0.001023870,0.000136549,1.207906127,0.152931631,9.699832916
1784246941.559434,0.014336458,-0.124088854,-1.329524994,0.000715420,0.001620606,0.000133465,1.221040606,0.125865594,9.701913834
1784246941.561437,0.014332387,-0.124091223,-1.329534292,0.000235621,0.001418903,-0.000667592,1.225909829,0.121630795,9.721617699
1784246941.563439,0.014328799,-0.124093689,-1.329536915,-0.000390600,0.000770860,-0.001236333,1.229884028,0.117019951,9.732799530
1784246941.565442,0.014328716,-0.124094881,-1.329530597,-0.000432666,0.000359990,-0.000620703,1.227630734,0.114538997,9.707676888
1784246941.567441,0.014332793,-0.124093518,-1.329529881,0.000081602,0.000323791,-0.000007424,1.222652555,0.147804797,9.701160431
1784246941.569445,0.014343306,-0.124095500,-1.329537868,0.000981890,0.000190178,-0.000607425,1.223422289,0.139491528,9.734732628
1784246941.571440,0.014342303,-0.124098569,-1.329538226,0.001327554,-0.000173581,-0.001082599,1.196654201,0.151588410,9.719987869
1784246941.573446,0.014339142,-0.124096140,-1.329535365,0.000749035,-0.000128727,-0.000597969,1.212484241,0.161293194,9.712892532
1784246941.575446,0.014339015,-0.124095209,-1.329538822,0.000221736,0.000104299,-0.000442543,1.196118593,0.143613517,9.708281517
1784246941.577453,0.014336347,-0.124095038,-1.329540014,-0.000163499,0.000113735,-0.000600989,1.219431043,0.181152180,9.743064880
1784246941.579455,0.014331839,-0.124096535,-1.329537511,-0.000591179,-0.000006456,-0.000284113,1.208635688,0.139843434,9.711854935
1784246941.581450,0.014333106,-0.124096863,-1.329537511,-0.000668228,-0.000132873,0.000001039,1.203066945,0.124678545,9.712200165
1784246941.583454,0.014330881,-0.124097817,-1.329536080,-0.000579116,-0.000189981,0.000118936,1.212627172,0.136179373,9.715869904
1784246941.585458,0.014324462,-0.124098793,-1.329544783,-0.001110142,-0.000275946,-0.000319874,1.240880370,0.137319669,9.756702423
1784246941.587461,0.014325778,-0.124091610,-1.329553485,-0.001344769,0.000204192,-0.001358349,1.238398194,0.152384877,9.721827507
1784246941.589462,0.014326393,-0.124089420,-1.329550862,-0.000900155,0.000777003,-0.001408626,1.226776123,0.120157778,9.738197327
1784246941.591460,0.014319079,-0.124091074,-1.329548120,-0.000999928,0.000653790,-0.000618553,1.225386381,0.117398225,9.750731468
1784246941.593465,0.014316833,-0.124088027,-1.329548478,-0.001288589,0.000621354,-0.000205483,1.222168446,0.146720678,9.728501320
1784246941.595469,0.014317655,-0.124079682,-1.329548240,-0.001075468,0.001242568,-0.000134975,1.217531800,0.133034438,9.708233833
1784246941.597481,0.014318224,-0.124078251,-1.329547405,-0.000722595,0.001584769,-0.000047807,1.221962929,0.128888085,9.716280937
1784246941.599474,0.014317693,-0.124078006,-1.329542160,-0.000472443,0.001273945,0.000373598,1.217116714,0.099767685,9.724607468
1784246941.601474,0.014320469,-0.124079190,-1.329542637,-0.000056284,0.000919660,0.000571936,1.194432259,0.117035724,9.731422424
1784246941.603471,0.014326779,-0.124079674,-1.329542637,0.000663123,0.000605626,0.000301582,1.220170975,0.130150020,9.731081963
1784246941.605478,0.014334920,-0.124074139,-1.329543471,0.001481086,0.000788002,0.000053233,1.223444700,0.142099813,9.745956421
1784246941.607476,0.014333392,-0.124073364,-1.329536796,0.001606616,0.001012718,0.000395581,1.219400883,0.142107040,9.752229691
1784246941.609480,0.014328889,-0.124076061,-1.329540849,0.000788120,0.000610922,0.000532070,1.215701699,0.168747470,9.729980469
1784246941.611480,0.014327558,-0.124073900,-1.329546809,0.000032307,0.000433025,-0.000198496,1.208478093,0.167273000,9.761346817
1784246941.613547,0.014324097,-0.124072418,-1.329548001,-0.000425169,0.000589415,-0.000566498,1.210152864,0.153738394,9.708359718
1784246941.615489,0.014319789,-0.124072157,-1.329544663,-0.000816100,0.000520211,-0.000221934,1.235409975,0.126577541,9.701931953
1784246941.617492,0.014317470,-0.124070212,-1.329544306,-0.001010363,0.000504154,0.000137723,1.233771086,0.139178440,9.697079659
1784246941.619490,0.014323095,-0.124069899,-1.329542994,-0.000500115,0.000522756,0.000184313,1.199968219,0.128699586,9.719396591
1784246941.621494,0.014326415,-0.124066323,-1.329544425,0.000270750,0.000623107,0.000038852,1.225562334,0.130135089,9.723465919
1784246941.623502,0.014327353,-0.124064595,-1.329546571,0.000490218,0.000791003,-0.000247648,1.223837972,0.135578141,9.717221260
1784246941.625503,0.014326605,-0.124064736,-1.329546571,0.000358143,0.000699585,-0.000313600,1.230960488,0.132200986,9.738279343
1784246941.627496,0.014324992,-0.124070950,-1.329548240,0.000093234,0.000094500,-0.000310758,1.225597262,0.132841945,9.720792770
1784246941.629499,0.014317883,-0.124074981,-1.329548717,-0.000536815,-0.000629684,-0.000292910,1.199243426,0.143446088,9.726215363
1784246941.631652,0.014317414,-0.124072477,-1.329546213,-0.000881736,-0.000584160,-0.000005756,1.204472661,0.167178854,9.718750000
1784246941.633574,0.014318162,-0.124069318,-1.329540133,-0.000549879,-0.000055520,0.000568156,1.226202250,0.144607186,9.703383446
1784246941.635558,0.014315420,-0.124070831,-1.329544067,-0.000544735,0.000100585,0.000587453,1.217519403,0.130909115,9.692079544
1784246941.637533,0.014311831,-0.124074295,-1.329548836,-0.000924072,-0.000245336,-0.000087628,1.211465955,0.115060374,9.726493835
1784246941.639545,0.014308993,-0.124073289,-1.329552889,-0.001180690,-0.000353334,-0.000614687,1.214654446,0.118232183,9.715756416
1784246941.641525,0.014317704,-0.124070711,-1.329550862,-0.000423654,-0.000012310,-0.000651821,1.218710065,0.157527268,9.727221489
1784246941.643516,0.014324071,-0.124067627,-1.329544783,0.000833210,0.000386746,-0.000063152,1.185264707,0.135380149,9.688490868
1784246941.645519,0.014324776,-0.124066286,-1.329545975,0.001150753,0.000522685,0.000237512,1.211342454,0.140733451,9.707828522
1784246941.647570,0.014327848,-0.124064386,-1.329545736,0.001110785,0.000536859,0.000094603,1.216717362,0.139374629,9.700201988
1784246941.649531,0.014328739,-0.124059036,-1.329542875,0.001102800,0.000887281,0.000263201,1.240881920,0.136115685,9.736968994
1784246941.651526,0.014329038,-0.124057338,-1.329542041,0.000880247,0.001180451,0.000458096,1.208516002,0.131198630,9.730628967
1784246941.653521,0.014326214,-0.124058679,-1.329546452,0.000406832,0.000932278,0.000127662,1.207320333,0.140508950,9.683613777
1784246941.655557,0.014327897,-0.124060385,-1.329549193,0.000150078,0.000482209,-0.000385194,1.210767865,0.132856801,9.745436668
1784246941.657534,0.014328266,-0.124061473,-1.329555511,0.000162450,0.000171072,-0.000902809,1.210366011,0.135258138,9.723484039
1784246941.659531,0.014321448,-0.124060743,-1.329555869,-0.000369922,0.000092805,-0.001045245,1.217855215,0.123122685,9.715343475
1784246941.661533,0.014308357,-0.124065310,-1.329549432,-0.001485759,-0.000196218,-0.000194712,1.205761194,0.125470027,9.722071648
1784246941.663527,0.014309344,-0.124065995,-1.329550028,-0.001775134,-0.000501966,0.000352987,1.223254681,0.123984590,9.710423470
1784246941.665526,0.014318676,-0.124069884,-1.329548955,-0.000573087,-0.000610620,0.000213306,1.218765855,0.125242874,9.730601311
1784246941.667538,0.014322782,-0.124070339,-1.329548597,0.000519652,-0.000674336,0.000148084,1.237765908,0.172726333,9.697748184
1784246941.669531,0.014320162,-0.124064602,-1.329549789,0.000472340,-0.000135353,0.000048337,1.232247829,0.163635790,9.725928307
1784246941.671528,0.014319231,-0.124065377,-1.329549432,0.000058512,0.000297158,0.000011395,1.229488730,0.156252071,9.698081017
1784246941.673536,0.014318974,-0.124071918,-1.329549193,-0.000071349,-0.000218130,0.000070388,1.240204215,0.114860959,9.702757835
1784246941.675531,0.014313451,-0.124072373,-1.329548597,-0.000346442,-0.000555788,0.000149392,1.218990207,0.107255101,9.739452362
1784246941.677541,0.014317257,-0.124072589,-1.329548001,-0.000270933,-0.000372653,0.000191722,1.211981177,0.119632825,9.712625504
1784246941.679540,0.014324754,-0.124076858,-1.329544902,0.000593961,-0.000572402,0.000294198,1.237194657,0.126475051,9.713140488
1784246941.681548,0.014322394,-0.124080800,-1.329543471,0.000878115,-0.000912843,0.000475525,1.218195319,0.152554572,9.734362602
1784246941.683538,0.014319980,-0.124077395,-1.329548597,0.000350453,-0.000646073,0.000139974,1.202700257,0.132626772,9.729288101
1784246941.685542,0.014321933,-0.124076292,-1.329548836,0.000204402,-0.000183320,-0.000265064,1.204388261,0.160433993,9.722294807
1784246941.687548,0.014322517,-0.124075904,-1.329537630,0.000436959,-0.000036497,0.000522458,1.209413886,0.167970181,9.724589348
1784246941.689548,0.014319071,-0.124073118,-1.329536915,0.000227769,0.000199764,0.001222640,1.203494191,0.162497684,9.748757362
1784246941.691542,0.014322681,-0.124072522,-1.329538941,0.000076574,0.000287403,0.000829656,1.222524166,0.137876511,9.711407661
1784246941.693547,0.014324458,-0.124076240,-1.329535484,0.000341069,-0.000085658,0.000685947,1.224550962,0.157516122,9.718259811
1784246941.695577,0.014334011,-0.124081038,-1.329535365,0.000983222,-0.000578709,0.000652945,1.200613618,0.145646393,9.729370117
1784246941.697579,0.014341626,-0.124084085,-1.329539657,0.001778231,-0.000901880,0.000051966,1.227260232,0.157615170,9.699434280
1784246941.699551,0.014335561,-0.124080174,-1.329541206,0.001350554,-0.000604585,-0.000366421,1.228368640,0.137890816,9.698860168
1784246941.701554,0.014330281,-0.124080598,-1.329537272,0.000208123,-0.000167044,-0.000021435,1.236325622,0.129142523,9.717640877
1784246941.703558,0.014327759,-0.124085434,-1.329542160,-0.000412999,-0.000443000,-0.000025820,1.207172990,0.130834669,9.721209526
1784246941.705561,0.014330784,-0.124090128,-1.329545498,-0.000290079,-0.001060785,-0.000590028,1.181041241,0.123028517,9.731894493
1784246941.707556,0.014334000,-0.124096133,-1.329547048,0.000214078,-0.001588409,-0.000820303,1.230625629,0.141210467,9.732059479
1784246941.709558,0.014334152,-0.124094576,-1.329553485,0.000316052,-0.001464834,-0.001166165,1.233974338,0.120215230,9.717133522
1784246941.711564,0.014327312,-0.124098592,-1.329557061,-0.000239578,-0.001115697,-0.001471835,1.226450801,0.127216801,9.691168785
1784246941.713565,0.014325122,-0.124096163,-1.329553485,-0.000717580,-0.000792886,-0.000990226,1.224447250,0.111001909,9.706752777
1784246941.715562,0.014325718,-0.124096386,-1.329543591,-0.000432140,-0.000299768,0.000211500,1.226546407,0.136480913,9.711401939
1784246941.717567,0.014326452,-0.124095522,-1.329541922,-0.000044186,-0.000049477,0.000924157,1.188635349,0.157416806,9.733916283
1784246941.719572,0.014321590,-0.124090604,-1.329542518,-0.000300042,0.000358638,0.000793858,1.213963747,0.174082398,9.738980293
1784246941.721627,0.014320431,-0.124087535,-1.329547763,-0.000810036,0.000734088,0.000265614,1.224010348,0.149499893,9.712380409
1784246941.723797,0.014317257,-0.124087177,-1.329544902,-0.001040718,0.000698878,0.000077867,1.224429011,0.149662316,9.751834869
1784246941.725643,0.014313577,-0.124084093,-1.329548478,-0.001261945,0.000799019,0.000068075,1.242718339,0.176443547,9.733195305
1784246941.727596,0.014309880,-0.124083608,-1.329552174,-0.001512460,0.000875591,-0.000372424,1.235424280,0.128312156,9.710012436
1784246941.729619,0.014307048,-0.124089561,-1.329552889,-0.001576094,0.000262903,-0.000498289,1.227471113,0.102742553,9.728671074
1784246941.731598,0.014307655,-0.124090388,-1.329549670,-0.001171900,-0.000226946,-0.000156262,1.228009224,0.110736519,9.737689972
1784246941.733596,0.014310283,-0.124085777,-1.329550028,-0.000507978,0.000132409,0.000061374,1.209287763,0.120064400,9.719798088
1784246941.735592,0.014309735,-0.124084100,-1.329552531,-0.000166871,0.000506052,-0.000158772,1.215170622,0.124434292,9.724763870
1784246941.737618,0.014304152,-0.124080777,-1.329551697,-0.000462081,0.000693229,-0.000176069,1.252544045,0.134717703,9.723520279
1784246941.739600,0.014308456,-0.124075688,-1.329552412,-0.000421516,0.001078264,-0.000096618,1.206715107,0.129957214,9.719410896
1784246941.741604,0.014309078,-0.124080934,-1.329550385,0.000072011,0.000795669,-0.000023088,1.188624263,0.155707628,9.722249031
1784246941.743595,0.014306200,-0.124083802,-1.329545975,-0.000009167,0.000052143,0.000423922,1.225382805,0.152529344,9.724955559
1784246941.745597,0.014311244,-0.124082252,-1.329552293,0.000083416,0.000034485,0.000157015,1.201478601,0.140110299,9.687191010
1784246941.747619,0.014313431,-0.124085262,-1.329556108,0.000423290,0.000004336,-0.000632797,1.225756884,0.145855069,9.717739105
1784246941.749606,0.014314626,-0.124086939,-1.329560399,0.000468265,-0.000322535,-0.001029669,1.215785027,0.137892812,9.721263885
1784246941.751632,0.014320799,-0.124084570,-1.329561353,0.000703561,-0.000185966,-0.001135859,1.192518830,0.105990060,9.712966919
1784246941.753615,0.014323352,-0.124079645,-1.329563260,0.000987930,0.000361290,-0.001048077,1.229660153,0.097824402,9.723261833
1784246941.755609,0.014322152,-0.124076940,-1.329566717,0.000871569,0.000908327,-0.001128231,1.231124997,0.144035578,9.711902618
1784246941.757625,0.014322216,-0.124077529,-1.329570413,0.000602216,0.000931619,-0.001315368,1.210501909,0.146056890,9.716828346
1784246941.759607,0.014315066,-0.124075785,-1.329569936,-0.000066992,0.000753703,-0.001128600,1.215083003,0.153227195,9.708359718
1784246941.761615,0.014312955,-0.124074697,-1.329565644,-0.000753399,0.000748690,-0.000414506,1.217456937,0.126769349,9.707295418
1784246941.763672,0.014316430,-0.124072671,-1.329570532,-0.000583225,0.000758578,-0.000344451,1.199716568,0.145254463,9.723088264
1784246941.765627,0.014322685,-0.124076292,-1.329575539,0.000098805,0.000386097,-0.000998666,1.202382445,0.144606620,9.746400833
1784246941.767622,0.014330151,-0.124076344,-1.329582691,0.000847642,-0.000030854,-0.001656183,1.201835275,0.133299261,9.699253082
1784246941.769615,0.014325920,-0.124078661,-1.329580188,0.000796715,-0.000187716,-0.001557649,1.214567780,0.150274903,9.746448517
1784246941.771619,0.014320320,-0.124080405,-1.329577804,-0.000075223,-0.000423630,-0.000729697,1.238124967,0.131181255,9.742762566
1784246941.773620,0.014321265,-0.124080256,-1.329579830,-0.000400492,-0.000434736,-0.000468138,1.228494883,0.113860130,9.738607407
1784246941.775631,0.014314139,-0.124086559,-1.329579592,-0.000621750,-0.000694100,-0.000423385,1.199606180,0.135872692,9.719441414
1784246941.777625,0.014308497,-0.124083892,-1.329584599,-0.001250896,-0.000715120,-0.000535005,1.235774279,0.158633590,9.729933739
1784246941.779622,0.014306226,-0.124083184,-1.329586983,-0.001505193,-0.000299434,-0.000812164,1.208416939,0.123526044,9.738649368
1784246941.781639,0.014306017,-0.124086432,-1.329592466,-0.001333364,-0.000431999,-0.001088136,1.221774817,0.114029050,9.726944923
1784246941.783631,0.014305745,-0.124085858,-1.329589486,-0.001028220,-0.000532615,-0.000945932,1.201020360,0.106096663,9.745704651
1784246941.785629,0.014303077,-0.124086544,-1.329580069,-0.000715579,-0.000396984,0.000151820,1.208970904,0.131240562,9.723904610
1784246941.787632,0.014304107,-0.124085687,-1.329578757,-0.000415008,-0.000280189,0.000825374,1.205047727,0.141118824,9.727999687
1784246941.789633,0.014304047,-0.124089532,-1.329579711,-0.000232893,-0.000406492,0.000628846,1.227607846,0.151544273,9.733468056
1784246941.791637,0.014304415,-0.124087363,-1.329590797,-0.000223613,-0.000384086,-0.000344264,1.212429285,0.158023924,9.731699944
1784246941.793633,0.014309839,-0.124083787,-1.329594135,0.000132635,0.000133774,-0.001266437,1.229656935,0.134985492,9.727087021
1784246941.795633,0.014312299,-0.124091886,-1.329592109,0.000690208,-0.000163468,-0.001075028,1.212639689,0.138304695,9.732024193
1784246941.797642,0.014310920,-0.124094397,-1.329593062,0.000657485,-0.000790582,-0.000721951,1.209129572,0.143840685,9.715915680
1784246941.799690,0.014310920,-0.124094397,-1.329593062,0.000512682,-0.000811819,-0.000841592,1.219074726,0.149566323,9.711927414
1784246941.801653,0.014298633,-0.124100238,-1.329525948,0.000582205,-0.000662793,-0.000691826,1.223209262,0.144226164,9.699343681
1784246941.803650,0.014298633,-0.124100238,-1.329525948,0.000399144,-0.000230881,-0.000092839,1.231080532,0.140848964,9.719056129
1784246941.805647,0.014298677,-0.124101110,-1.329526067,0.000002940,0.000296697,0.000326234,1.238654375,0.136675060,9.725314140
1784246941.807651,0.014298677,-0.124101110,-1.329526067,-0.000281072,0.000955287,-0.000070961,1.207690477,0.136639699,9.723041534
1784246941.809650,0.014298677,-0.124101110,-1.329526067,0.000104531,0.000998133,-0.000596480,1.201909423,0.143204898,9.755357742
1784246941.811653,0.014298595,-0.124099277,-1.329526067,0.000460887,-0.000199730,-0.000282023,1.233050585,0.156393304,9.734849930
1784246941.813657,0.014298595,-0.124099277,-1.329526067,0.000198180,-0.000886625,-0.000070790,1.206323624,0.134468004,9.715852737
1784246941.815649,0.014298204,-0.124098271,-1.329526186,0.000360468,-0.000472322,-0.000001511,1.220691085,0.135164067,9.718112946
1784246941.817655,0.014298204,-0.124098271,-1.329526186,0.000491874,-0.000533178,0.000462150,1.260490775,0.123053104,9.711348534
1784246941.819660,0.014298204,-0.124098271,-1.329526186,0.000020060,-0.001237030,0.000741191,1.230444789,0.125598580,9.722543716
1784246941.821661,0.014298185,-0.124099642,-1.329526067,-0.000515460,-0.001204636,0.000441751,1.212751746,0.110515848,9.733190536
1784246941.823666,0.014298185,-0.124099642,-1.329526067,-0.001132750,-0.000405950,0.000444192,1.224629045,0.128646910,9.745423317
1784246941.825662,0.014296881,-0.124099903,-1.329526067,-0.001293239,0.000295107,0.001042803,1.230421662,0.125010744,9.742266655
1784246941.827698,0.014296881,-0.124099903,-1.329526067,-0.001012450,0.000696414,0.001009560,1.229852200,0.151521876,9.732573509
1784246941.829668,0.014296881,-0.124099903,-1.329526067,-0.001135185,0.000707514,0.000459754,1.216349959,0.148936659,9.742406845
1784246941.831662,0.014298070,-0.124099776,-1.329526067,-0.001443931,0.000501864,0.000075738,1.211370945,0.144606128,9.730268478
1784246941.833664,0.014298070,-0.124099776,-1.329526067,-0.001454128,0.000151522,-0.000168686,1.231077075,0.140820354,9.723091125
1784246941.835666,0.014298324,-0.124100909,-1.329526067,-0.001389848,-0.000071019,0.000068742,1.232453465,0.143878415,9.731630325
1784246941.837672,0.014298324,-0.124100909,-1.329526067,-0.001324793,-0.000110439,0.000747868,1.214504719,0.142888501,9.714121819
1784246941.839669,0.014298324,-0.124100909,-1.329526067,-0.001262568,-0.000497640,0.000969854,1.191587687,0.141297668,9.727090836
1784246941.841674,0.014298785,-0.124099486,-1.329526186,-0.001020745,-0.001137940,0.000498071,1.199700594,0.143913731,9.722632408
1784246941.843670,0.014298785,-0.124099486,-1.329526186,-0.000240876,-0.001050270,-0.000274814,1.222416520,0.129730538,9.723011017
1784246941.845683,0.014298559,-0.124100119,-1.329526186,0.000424708,-0.000304370,-0.000689484,1.217233181,0.144356877,9.691716194
1784246941.847692,0.014298559,-0.124100119,-1.329526186,0.000108084,-0.000170203,-0.000363307,1.188136339,0.152568117,9.723573685
1784246941.849679,0.014298559,-0.124100119,-1.329526186,-0.000273620,-0.000612250,0.000105736,1.198070645,0.156584561,9.707916260
1784246941.851679,0.014299852,-0.124098815,-1.329526186,0.000119136,-0.000884191,-0.000092781,1.217941284,0.131096959,9.727947235
1784246941.853688,0.014299852,-0.124098815,-1.329526186,0.000410348,-0.000736826,-0.000813123,1.228463888,0.146341652,9.707431793
1784246941.855682,0.014301010,-0.124099702,-1.329526186,0.000356936,-0.000122188,-0.001407688,1.214934707,0.142329872,9.728914261
1784246941.857686,0.014301010,-0.124099702,-1.329526186,0.000428254,0.000556377,-0.001514429,1.218726277,0.122904517,9.744483948
1784246941.859690,0.014301010,-0.124099702,-1.329526186,0.000636161,0.000541725,-0.001053222,1.213800073,0.122230805,9.722058296
1784246941.861693,0.014299606,-0.124099359,-1.329526305,0.001016866,0.000041273,-0.000502980,1.220060110,0.120358467,9.722052574
1784246941.863688,0.014299606,-0.124099359,-1.329526305,0.001513734,-0.000056565,0.000044115,1.227761388,0.086896382,9.688219070
1784246941.865689,0.014297470,-0.124100089,-1.329526186,0.001789501,0.000268851,0.000480844,1.216611624,0.132054642,9.721674919
1784246941.867691,0.014297470,-0.124100089,-1.329526186,0.001321569,0.000460898,0.000508855,1.229352951,0.146669999,9.722679138
1784246941.869697,0.014297470,-0.124100089,-1.329526186,0.000471434,0.000248523,0.000165452,1.204146862,0.177881598,9.726441383
1784246941.871698,0.014299474,-0.124100216,-1.329526186,-0.000133006,-0.000194559,-0.000050192,1.205125093,0.149023145,9.750467300
1784246941.873697,0.014299474,-0.124100216,-1.329526186,-0.000283004,-0.000395251,-0.000079783,1.211304665,0.138814420,9.725747108
1784246941.875699,0.014298957,-0.124100715,-1.329526186,0.000171563,-0.000293884,-0.000369842,1.225143671,0.133619606,9.738281250
1784246941.877701,0.014298957,-0.124100715,-1.329526186,0.000109127,0.000039847,-0.001176033,1.192811131,0.130586579,9.718955040
1784246941.879706,0.014298957,-0.124100715,-1.329526186,-0.000371734,0.000143888,-0.001800906,1.218813658,0.128051475,9.713582039
1784246941.881706,0.014298152,-0.124101296,-1.329526305,-0.000584683,-0.000290427,-0.001500566,1.193028212,0.113351643,9.747984886
1784246941.883706,0.014298152,-0.124101296,-1.329526305,-0.001260845,-0.000295327,-0.001262813,1.222289205,0.156995133,9.732601166
1784246941.885708,0.014299095,-0.124101415,-1.329526305,-0.001241416,0.000182889,-0.001302736,1.219478488,0.145150915,9.702034950
1784246941.887706,0.014299095,-0.124101415,-1.329526305,-0.000270597,0.000464517,-0.000933532,1.222689271,0.152957767,9.732574463
1784246941.889725,0.014299095,-0.124101415,-1.329526305,0.000253677,0.000386100,-0.001063581,1.206199288,0.125785053,9.740006447
1784246941.891723,0.014298398,-0.124100156,-1.329526305,0.000541374,-0.000012325,-0.001106216,1.199166894,0.099984929,9.726384163
1784246941.893722,0.014298398,-0.124100156,-1.329526305,0.001000276,-0.000577464,-0.000777374,1.206155419,0.121791556,9.734601974
1784246941.895719,0.014297704,-0.124099769,-1.329526424,0.001301241,-0.000806596,-0.000897889,1.199406862,0.119304501,9.718439102
1784246941.897719,0.014297704,-0.124099769,-1.329526424,0.001077450,-0.000053326,-0.000566067,1.237570047,0.121026993,9.722521782
1784246941.899715,0.014297704,-0.124099769,-1.329526424,0.000575072,0.000894733,-0.000268498,1.212010264,0.123915277,9.740448952
1784246941.901717,0.014296490,-0.124099657,-1.329526424,0.000261017,0.001281384,-0.000468525,1.236617446,0.153735876,9.724075317
1784246941.903716,0.014296490,-0.124099657,-1.329526424,0.000063277,0.001129632,-0.000436090,1.203024268,0.157877922,9.706135750
1784246941.905720,0.014297801,-0.124098778,-1.329526424,-0.000013246,0.000673603,0.000037017,1.247270346,0.143361568,9.714604378
1784246941.907729,0.014297801,-0.124098778,-1.329526424,0.000361752,-0.000021356,0.000073452,1.239762545,0.152917340,9.707485199
1784246941.909728,0.014297801,-0.124098778,-1.329526424,0.000617376,-0.000561112,-0.000279307,1.218651056,0.151389360,9.708352089
1784246941.911731,0.014298864,-0.124099240,-1.329526424,0.000284925,-0.000304296,0.000044166,1.240925193,0.138889313,9.724880219
1784246941.913730,0.014298864,-0.124099240,-1.329526424,0.000008028,0.000079386,0.000569683,1.224435925,0.147286162,9.707882881
1784246941.915730,0.014299826,-0.124099806,-1.329526424,0.000363935,0.000048112,0.000753100,1.204290867,0.151153997,9.704301834
1784246941.917733,0.014299826,-0.124099806,-1.329526424,0.000619962,-0.000332959,0.000613940,1.201178193,0.154660285,9.720909119
1784246941.919733,0.014299826,-0.124099806,-1.329526424,0.000571489,-0.000677926,0.000168829,1.213993192,0.139561385,9.741896629
1784246941.921740,0.014300001,-0.124099873,-1.329526424,0.001065743,-0.000518967,-0.000477234,1.193114996,0.118495420,9.717531204
1784246941.923747,0.014300001,-0.124099873,-1.329526424,0.001481185,-0.000208318,-0.000531519,1.204195261,0.107946835,9.731821060
1784246941.925769,0.014298047,-0.124099001,-1.329526305,0.001203991,-0.000084089,-0.000518400,1.241217613,0.126302481,9.730180740
1784246941.927758,0.014298047,-0.124099001,-1.329526305,0.000604121,-0.000112304,-0.000997535,1.236050129,0.143889651,9.723564148
1784246941.929794,0.014298047,-0.124099001,-1.329526305,-0.000212438,-0.000075985,-0.001148297,1.212615252,0.134463847,9.705100060
1784246941.931762,0.014297795,-0.124098793,-1.329526305,-0.000571700,0.000089380,-0.000841785,1.212678909,0.141046524,9.724418640
1784246941.933747,0.014297795,-0.124098793,-1.329526305,-0.000040444,0.000089871,-0.000058296,1.200194001,0.147501215,9.721309662
1784246941.935746,0.014298402,-0.124098137,-1.329526305,0.000765711,0.000321691,0.000189489,1.219358087,0.136906371,9.727538109
1784246941.937756,0.014298402,-0.124098137,-1.329526305,0.000485985,0.000414460,-0.000371927,1.240152955,0.148803651,9.718219757
1784246941.939756,0.014298402,-0.124098137,-1.329526305,0.000094416,-0.000111347,-0.000549844,1.222593546,0.144097090,9.718620300
1784246941.941755,0.014298119,-0.124099396,-1.329526186,0.000366524,-0.000770833,-0.000607902,1.215674043,0.129317954,9.730175018
1784246941.943796,0.014298119,-0.124099396,-1.329526186,0.000024278,-0.001100554,-0.000794630,1.228724957,0.132696778,9.735589981
1784246941.945777,0.014297611,-0.124100447,-1.329526186,0.000231550,-0.000826356,-0.000493824,1.244454265,0.134312823,9.732028961
1784246941.947791,0.014297611,-0.124100447,-1.329526186,0.000948117,-0.000199617,-0.000451931,1.210624933,0.157970607,9.742459297
1784246941.949766,0.014297611,-0.124100447,-1.329526186,0.000998400,0.000065269,-0.000621800,1.202197552,0.166552961,9.747886658
1784246941.951782,0.014299599,-0.124099731,-1.329526305,0.000668158,-0.000136337,-0.000333137,1.222741961,0.159047961,9.758170128
1784246941.953791,0.014299599,-0.124099731,-1.329526305,0.000088036,0.000098108,-0.000067109,1.232760787,0.167379066,9.702639580
1784246941.955776,0.014300860,-0.124101132,-1.329526305,-0.000227139,0.000125074,-0.000090563,1.210983872,0.149151891,9.721780777
1784246941.957789,0.014300860,-0.124101132,-1.329526305,-0.000336639,-0.000503109,-0.000345741,1.225740671,0.144511193,9.717728615
1784246941.959775,0.014300860,-0.124101132,-1.329526305,-0.000796571,-0.001010411,-0.000568620,1.213149428,0.144049302,9.742373466
1784246941.961781,0.014300869,-0.124101177,-1.329526305,-0.000730289,-0.000990092,-0.000439346,1.196861744,0.132253543,9.729280472
1784246941.963812,0.014300869,-0.124101177,-1.329526305,-0.000008997,-0.000552115,-0.000089018,1.231645346,0.150269464,9.716426849
1784246941.965788,0.014301796,-0.124101803,-1.329526186,0.000334627,-0.000408760,-0.000214165,1.213437676,0.129807368,9.728383064
1784246941.967783,0.014301796,-0.124101803,-1.329526186,0.000476932,-0.000284500,-0.000413705,1.188045144,0.144552514,9.716796875
1784246941.969795,0.014301796,-0.124101803,-1.329526186,0.000476757,0.000344018,-0.000050784,1.234328747,0.113791764,9.737716675
1784246941.971786,0.014300783,-0.124102525,-1.329526305,0.000167327,0.000730237,0.000700108,1.230127335,0.135961503,9.714987755
1784246941.973782,0.014300783,-0.124102525,-1.329526305,-0.000047070,0.000328390,0.001098922,1.221254468,0.145385101,9.728940010
1784246941.975786,0.014301249,-0.124101818,-1.329526305,0.000123216,-0.000000217,0.000794062,1.209048152,0.136714652,9.710042000
1784246941.977790,0.014301249,-0.124101818,-1.329526305,0.000343774,0.000229992,0.000141502,1.212275982,0.145871744,9.739693642
1784246941.979789,0.014301249,-0.124101818,-1.329526305,0.000214529,0.000364160,-0.000226219,1.217552900,0.136036634,9.727081299
1784246941.981788,0.014301989,-0.124101728,-1.329526305,-0.000085021,0.000044931,0.000351687,1.227187514,0.114182636,9.695568085
1784246941.983792,0.014301989,-0.124101728,-1.329526305,-0.000323875,-0.000438948,0.000699044,1.202555776,0.120137915,9.721584320
1784246941.985787,0.014301107,-0.124101281,-1.329526424,-0.000094454,-0.000431276,0.000214614,1.220314622,0.141009197,9.715908051
1784246941.987796,0.014301107,-0.124101281,-1.329526424,0.000004453,-0.000046968,-0.000136286,1.219106436,0.153057814,9.724951744
1784246941.989800,0.014301107,-0.124101281,-1.329526424,-0.000520719,0.000237886,-0.000140110,1.233336091,0.179719076,9.730516434
1784246941.991803,0.014303211,-0.124102004,-1.329526305,-0.000923069,0.000266284,-0.000252236,1.218456388,0.135262743,9.708249092
1784246941.993807,0.014303211,-0.124102004,-1.329526305,-0.000493890,0.000154406,-0.000532080,1.213398814,0.126665294,9.729259491
1784246941.995800,0.014302589,-0.124102227,-1.329526305,0.000110392,0.000268305,-0.000824650,1.208947420,0.129839450,9.731966019
1784246941.997799,0.014302589,-0.124102227,-1.329526305,-0.000063680,0.000376455,-0.001128879,1.212568283,0.132878304,9.739162445
1784246941.999804,0.014302589,-0.124102227,-1.329526305,-0.000195300,0.000092984,-0.000973444,1.241905332,0.144393250,9.705190659
1784246942.001803,0.014303084,-0.124103762,-1.329526305,0.000069924,-0.000083631,-0.000498435,1.225960612,0.123651586,9.689352036
1784246942.003809,0.014303084,-0.124103762,-1.329526305,-0.000526871,0.000212752,-0.000566475,1.218953729,0.141315430,9.738325119
1784246942.005810,0.014303397,-0.124103859,-1.329526305,-0.001394797,0.000505221,-0.000598251,1.241454601,0.145599812,9.725373268
1784246942.007814,0.014303397,-0.124103859,-1.329526305,-0.000927376,0.000470885,-0.000368305,1.204530716,0.171283618,9.708466530
1784246942.009811,0.014303397,-0.124103859,-1.329526305,-0.000169976,0.000496591,-0.000398417,1.202462912,0.148079410,9.698900223
1784246942.011858,0.014304400,-0.124103874,-1.329526305,0.000148831,0.000663151,-0.000636522,1.197177172,0.156221256,9.697603226
1784246942.013823,0.014304400,-0.124103874,-1.329526305,0.000219683,0.000982117,-0.000466150,1.209125042,0.142995656,9.708736420
1784246942.015824,0.014304223,-0.124103881,-1.329526305,-0.000018860,0.001197839,-0.000053760,1.222089767,0.137993559,9.695715904
1784246942.017822,0.014304223,-0.124103881,-1.329526305,-0.000104535,0.001138160,0.000227542,1.226631761,0.144855440,9.730734825
1784246942.019820,0.014304223,-0.124103881,-1.329526305,-0.000078937,0.000912636,0.000612111,1.246091247,0.120075904,9.714901924
1784246942.021823,0.014303513,-0.124106415,-1.329526305,-0.000206175,0.000431687,-0.000048425,1.226560593,0.102245681,9.737186432
1784246942.023825,0.014303513,-0.124106415,-1.329526305,-0.000335887,-0.000165510,-0.001307280,1.224855661,0.106624655,9.691483498
1784246942.025826,0.014302295,-0.124107555,-1.329526186,-0.000145904,-0.000843375,-0.001286549,1.221328259,0.112430558,9.700482368
1784246942.027855,0.014302295,-0.124107555,-1.329526186,0.000176685,-0.000857959,-0.000492256,1.210966110,0.146578610,9.705622673
1784246942.029835,0.014302295,-0.124107555,-1.329526186,-0.000053673,-0.000484034,-0.000164945,1.235849977,0.126908466,9.717626572
1784246942.031842,0.014301536,-0.124109119,-1.329526186,-0.000247256,-0.000913546,0.000105651,1.211169958,0.125998437,9.701008797
1784246942.033830,0.014301536,-0.124109119,-1.329526186,0.000044607,-0.001321215,0.000320988,1.225966096,0.125722870,9.713125229
1784246942.035837,0.014300828,-0.124109037,-1.329526186,-0.000294678,-0.000837839,0.000409123,1.187715292,0.118443586,9.734561920
1784246942.037839,0.014300828,-0.124109037,-1.329526186,-0.000721467,-0.000340770,0.000636316,1.208014846,0.126737460,9.728806496
1784246942.039846,0.014300828,-0.124109037,-1.329526186,-0.000461532,-0.000617001,0.001160211,1.207613349,0.166731969,9.712923050
1784246942.041839,0.014301577,-0.124108352,-1.329526186,-0.000093307,-0.000947594,0.001776100,1.222422481,0.167368218,9.722804070
1784246942.043841,0.014301577,-0.124108352,-1.329526186,0.000451961,-0.000809004,0.001505250,1.222570658,0.140268967,9.689902306
1784246942.045844,0.014301264,-0.124109551,-1.329526186,0.000540037,-0.000866814,0.001324615,1.217008233,0.127991796,9.725236893
1784246942.047846,0.014301264,-0.124109551,-1.329526186,0.000079204,-0.000905038,0.001481040,1.222258091,0.153506845,9.719128609
1784246942.049846,0.014301264,-0.124109551,-1.329526186,0.000145485,-0.000646353,0.001127883,1.214069605,0.144622520,9.723098755
1784246942.051847,0.014301685,-0.124109603,-1.329526067,0.000535610,-0.000623361,0.000834129,1.202113390,0.159404650,9.745150566
1784246942.053848,0.014301685,-0.124109603,-1.329526067,0.000892391,-0.000676735,0.000186614,1.204622746,0.142122254,9.713659286
1784246942.055851,0.014302445,-0.124109350,-1.329526067,0.001157549,-0.000387261,-0.001005329,1.210189342,0.120894760,9.727426529
1784246942.057845,0.014302445,-0.124109350,-1.329526067,0.001203261,-0.000321996,-0.001351190,1.210433245,0.102656163,9.708478928
1784246942.059851,0.014302445,-0.124109350,-1.329526067,0.000668903,-0.000671728,-0.000396790,1.228475809,0.111277305,9.723795891
1784246942.061851,0.014300779,-0.124109618,-1.329526067,-0.000244736,-0.000938517,0.000243425,1.231276393,0.121015280,9.735517502
1784246942.063889,0.014300779,-0.124109618,-1.329526067,-0.000940726,-0.000820358,-0.000299394,1.211927891,0.115969636,9.723810196
1784246942.065858,0.014299941,-0.124108195,-1.329526186,-0.000792994,-0.000346353,-0.000529164,1.200918078,0.133965045,9.733330727
1784246942.067856,0.014299941,-0.124108195,-1.329526186,0.000471593,0.000073709,-0.000242999,1.210946321,0.144802645,9.703370094
1784246942.069858,0.014299941,-0.124108195,-1.329526186,0.000829513,0.000168475,0.000180019,1.227571487,0.145987883,9.695772171
1784246942.071859,0.014300869,-0.124109484,-1.329526186,-0.000288651,-0.000127598,0.000808891,1.226444364,0.128786087,9.722561836
1784246942.073861,0.014300869,-0.124109484,-1.329526186,-0.001120410,-0.000358330,0.000815611,1.213842511,0.126618236,9.735088348
1784246942.075861,0.014300146,-0.124109499,-1.329526186,-0.001163191,-0.000385617,0.000352839,1.205925226,0.140138254,9.738305092
1784246942.077864,0.014300146,-0.124109499,-1.329526186,-0.000938885,-0.000174703,0.000089613,1.204142094,0.140253484,9.725302696
1784246942.079866,0.014300146,-0.124109499,-1.329526186,-0.000808066,0.000355953,0.000116526,1.214815140,0.133281603,9.741408348
1784246942.081863,0.014299900,-0.124109097,-1.329526305,-0.000553239,0.000540162,0.000568502,1.230910778,0.163722977,9.716063499
1784246942.083874,0.014299900,-0.124109097,-1.329526305,-0.000154528,0.000434638,0.001456370,1.247307181,0.147704437,9.733910561
1784246942.085873,0.014299699,-0.124111108,-1.329526305,-0.000201513,0.000866930,0.001852748,1.213997126,0.140403256,9.749523163
1784246942.087883,0.014299699,-0.124111108,-1.329526305,-0.000342220,0.001188089,0.001310988,1.222980857,0.138337806,9.708721161
1784246942.089874,0.014299699,-0.124111108,-1.329526305,-0.000125641,0.000824857,0.000877397,1.213953376,0.132762834,9.689846039
1784246942.091874,0.014300351,-0.124112137,-1.329526186,-0.000167758,0.000507297,0.000741437,1.192748666,0.124420062,9.704118729
1784246942.093874,0.014300351,-0.124112137,-1.329526186,-0.000417924,-0.000025670,0.000315429,1.206699610,0.128619686,9.718505859
1784246942.095882,0.014299949,-0.124112472,-1.329526186,0.000137663,-0.000710649,0.000130969,1.203164339,0.134361982,9.736473083
1784246942.097883,0.014299949,-0.124112472,-1.329526186,0.000660581,-0.000311073,0.000019837,1.216657996,0.136067212,9.724391937
1784246942.099881,0.014299949,-0.124112472,-1.329526186,0.000431763,0.000419232,-0.000167954,1.227251172,0.120765336,9.714889526
1784246942.101888,0.014299165,-0.124112852,-1.329526186,0.000078600,0.000518737,0.000107729,1.220982552,0.121760815,9.712197304
1784246942.103885,0.014299165,-0.124112852,-1.329526186,0.000003071,0.000696707,0.000399696,1.211319089,0.140549034,9.733830452
1784246942.105884,0.014299121,-0.124112085,-1.329526305,0.000182757,0.000735490,0.000341480,1.204659224,0.144841805,9.709192276
1784246942.107888,0.014299121,-0.124112085,-1.329526305,0.000072842,0.000209028,0.000187287,1.217133522,0.175891221,9.730923653
1784246942.109886,0.014299121,-0.124112085,-1.329526305,0.000337295,-0.000088101,0.000057935,1.196903944,0.133397490,9.694317818
1784246942.111894,0.014298510,-0.124112256,-1.329526305,0.001184918,0.000048918,-0.000123545,1.173235297,0.145126611,9.725753784
1784246942.113962,0.014298510,-0.124112256,-1.329526305,0.001389807,0.000388945,-0.000543897,1.230211496,0.143109813,9.717724800
1784246942.115900,0.014298070,-0.124113470,-1.329526305,0.001050381,0.000658037,-0.000543896,1.230634451,0.104500525,9.727789879
1784246942.117894,0.014298070,-0.124113470,-1.329526305,0.000929622,0.000957599,-0.000037667,1.190052867,0.126452684,9.738202095
1784246942.119904,0.014298070,-0.124113470,-1.329526305,0.000373496,0.001255750,-0.000138530,1.224053502,0.155920431,9.754564285
1784246942.121900,0.014298681,-0.124113083,-1.329526305,-0.000745566,0.000653016,-0.000271865,1.232883811,0.141296193,9.715923309
1784246942.123905,0.014298681,-0.124113083,-1.329526305,-0.001458662,-0.000310918,-0.000082932,1.222687125,0.116972044,9.752519608
1784246942.125904,0.014297887,-0.124113567,-1.329526305,-0.001267247,-0.000515936,-0.000085811,1.207146764,0.167001262,9.738926888
1784246942.127917,0.014297887,-0.124113567,-1.329526305,-0.000887705,-0.000129895,0.000240389,1.250217080,0.164787859,9.720573425
1784246942.129908,0.014297887,-0.124113567,-1.329526305,-0.000741581,-0.000172022,0.000602376,1.209133863,0.145495832,9.735204697
1784246942.131909,0.014298115,-0.124113545,-1.329526305,-0.000802696,-0.000703333,0.000610299,1.210894585,0.141962260,9.724872589
1784246942.133908,0.014298115,-0.124113545,-1.329526305,-0.000789749,-0.000890249,0.000165982,1.227691054,0.119879559,9.712641716
1784246942.135914,0.014296747,-0.124114610,-1.329526305,-0.000069267,-0.000511331,-0.000280061,1.250208735,0.126321048,9.711359978
1784246942.137918,0.014296747,-0.124114610,-1.329526305,0.000670075,-0.000348921,-0.000063737,1.229536295,0.162707612,9.735334396
1784246942.139915,0.014296747,-0.124114610,-1.329526305,0.000879546,-0.000534041,0.000254106,1.201248050,0.124510780,9.739097595
1784246942.141918,0.014296624,-0.124113798,-1.329526186,0.000940426,-0.000828796,0.000304096,1.212011099,0.157864690,9.691798210
1784246942.143915,0.014296624,-0.124113798,-1.329526186,0.000839537,-0.001148512,0.000105025,1.232894421,0.143812239,9.740148544
1784246942.145922,0.014296367,-0.124114513,-1.329526305,0.000463717,-0.000910293,-0.000019801,1.229639411,0.133225441,9.722592354
1784246942.147928,0.014296367,-0.124114513,-1.329526305,0.000068727,-0.000144240,0.000343669,1.203068018,0.125091553,9.717134476
1784246942.149920,0.014296367,-0.124114513,-1.329526305,-0.000451170,0.000721203,0.000790315,1.233678937,0.133183226,9.721250534
1784246942.151930,0.014295909,-0.124115616,-1.329526186,-0.000664812,0.001530988,0.000936435,1.235157728,0.143939301,9.718183517
1784246942.153927,0.014295909,-0.124115616,-1.329526186,0.000010727,0.001970719,0.000592071,1.228520751,0.152060226,9.722264290
1784246942.155933,0.014296609,-0.124117061,-1.329526067,0.000384693,0.001340035,0.000064941,1.212260723,0.142507449,9.708736420
1784246942.157933,0.014296609,-0.124117061,-1.329526067,-0.000020410,0.000078372,-0.000396820,1.207920432,0.117886357,9.713506699
1784246942.159930,0.014296609,-0.124117061,-1.329526067,-0.000455783,-0.000408018,-0.000604658,1.206980944,0.152723745,9.730766296
1784246942.161928,0.014296922,-0.124116860,-1.329526067,-0.000422685,-0.000048813,-0.000318290,1.228826046,0.138358474,9.695276260
1784246942.163935,0.014296922,-0.124116860,-1.329526067,-0.000433843,0.000268016,-0.000235785,1.233674645,0.131934747,9.707792282
1784246942.165942,0.014296944,-0.124117963,-1.329525948,-0.000806222,0.000233427,-0.000286050,1.237542272,0.154750660,9.705700874
1784246942.167941,0.014296944,-0.124117963,-1.329525948,-0.000910903,0.000513857,-0.000555373,1.237986565,0.119553350,9.739997864
1784246942.169940,0.014296944,-0.124117963,-1.329525948,-0.000609013,0.000535185,-0.000932509,1.230927706,0.129510045,9.738709450
1784246942.171938,0.014296501,-0.124119386,-1.329525948,0.000127736,-0.000016479,-0.000613878,1.201314092,0.165459022,9.714253426
1784246942.173939,0.014296501,-0.124119386,-1.329525948,0.000450682,-0.000145404,-0.000488888,1.219317675,0.134155020,9.736487389
1784246942.175943,0.014295726,-0.124119803,-1.329525948,-0.000361855,-0.000173475,-0.000489391,1.216762900,0.106197529,9.703127861
1784246942.177965,0.014295726,-0.124119803,-1.329525948,-0.001064120,-0.000267499,-0.000039047,1.207495570,0.120106474,9.717106819
1784246942.179959,0.014295726,-0.124119803,-1.329525948,-0.001338473,-0.000157896,0.000182082,1.221937537,0.127471074,9.726583481
1784246942.181960,0.014295223,-0.124120615,-1.329526067,-0.001554203,0.000032770,-0.000089480,1.211547971,0.121382713,9.719361305
1784246942.183957,0.014295223,-0.124120615,-1.329526067,-0.001310843,0.000419450,-0.000303344,1.212207556,0.138440832,9.713643074
1784246942.185954,0.014294921,-0.124120019,-1.329526067,-0.001101170,0.000446148,-0.000027268,1.199290752,0.147468194,9.727584839
1784246942.187959,0.014294921,-0.124120019,-1.329526067,-0.001151913,0.000088480,0.000388048,1.205527425,0.142978042,9.717700005
1784246942.189955,0.014294921,-0.124120019,-1.329526067,-0.001348713,0.000169528,0.001035235,1.196402669,0.167739823,9.717402458
1784246942.191964,0.014297220,-0.124118544,-1.329526186,-0.001510091,0.000141426,0.001072947,1.201663136,0.120187573,9.716205597
1784246942.193961,0.014297220,-0.124118544,-1.329526186,-0.001518629,-0.000071351,-0.000019692,1.219632864,0.124179669,9.752563477
1784246942.195960,0.014296352,-0.124118619,-1.329526186,-0.001344446,-0.000264300,-0.000815592,1.232063174,0.146371990,9.696675301
1784246942.197966,0.014296352,-0.124118619,-1.329526186,-0.000927836,-0.000214311,-0.000689854,1.226491332,0.134425148,9.748599052
1784246942.199963,0.014296352,-0.124118619,-1.329526186,-0.000620160,0.000270270,-0.000306923,1.203780651,0.146622896,9.712343216
1784246942.201962,0.014296419,-0.124118596,-1.329526186,-0.000255350,0.000209112,-0.000246668,1.212615967,0.135280252,9.716312408
1784246942.203966,0.014296419,-0.124118596,-1.329526186,0.000276748,-0.000270737,-0.000132567,1.186271787,0.147580862,9.735196114
1784246942.205962,0.014296460,-0.124117032,-1.329526305,0.000197216,-0.000362832,-0.000120961,1.205311298,0.125466257,9.723415375
1784246942.207970,0.014296460,-0.124117032,-1.329526305,-0.000270023,0.000028677,-0.000796570,1.207709193,0.138409302,9.726191521
1784246942.209967,0.014296460,-0.124117032,-1.329526305,-0.000683349,0.000330570,-0.000945783,1.210921288,0.144198895,9.725335121
1784246942.211971,0.014296464,-0.124117643,-1.329526305,-0.000863186,0.000185663,-0.000478665,1.210687041,0.159676969,9.691361427
1784246942.213978,0.014296464,-0.124117643,-1.329526305,-0.000612230,0.000186853,-0.000606519,1.182822227,0.157243907,9.705664635
1784246942.215975,0.014296914,-0.124116272,-1.329526305,-0.000571338,0.000423684,-0.000770779,1.196860671,0.131433949,9.718514442
1784246942.217977,0.014296914,-0.124116272,-1.329526305,-0.000774633,0.000883725,-0.000401809,1.224491477,0.153398618,9.730338097
1784246942.219979,0.014296914,-0.124116272,-1.329526305,-0.000792234,0.001577547,-0.000148865,1.221635699,0.137957990,9.701543808
1784246942.221980,0.014296378,-0.124116451,-1.329526424,-0.000805879,0.001975889,-0.000109610,1.223824620,0.134256497,9.714076042
1784246942.223980,0.014296378,-0.124116451,-1.329526424,-0.000766476,0.001798008,-0.000155750,1.217774510,0.116813071,9.720682144
1784246942.225986,0.014295182,-0.124116428,-1.329526424,-0.000776161,0.001470625,-0.000154422,1.221045017,0.126710653,9.709093094
1784246942.227986,0.014295182,-0.124116428,-1.329526424,-0.000457746,0.001228732,-0.000171008,1.196281552,0.119872175,9.707231522
1784246942.229982,0.014295182,-0.124116428,-1.329526424,0.000461858,0.001134211,-0.000037128,1.224648356,0.129206166,9.729734421
1784246942.231988,0.014294486,-0.124116600,-1.329526544,0.000826205,0.001283200,0.000295803,1.216801286,0.110553116,9.720642090
1784246942.233991,0.014294486,-0.124116600,-1.329526544,0.000368847,0.001365524,0.000212114,1.240569353,0.110143468,9.735456467
1784246942.235995,0.014293503,-0.124117769,-1.329526544,0.000106619,0.001298736,0.000150553,1.243653059,0.143594787,9.751365662
1784246942.237990,0.014293503,-0.124117769,-1.329526544,0.000271477,0.000759159,0.000284055,1.195382237,0.122301184,9.745354652
1784246942.239995,0.014293503,-0.124117769,-1.329526544,0.000589080,0.000342966,0.000868894,1.208881259,0.161234260,9.727684975
1784246942.241996,0.014293984,-0.124117017,-1.329526424,0.000718298,0.000652073,0.001424555,1.208761692,0.187342584,9.710814476
1784246942.244000,0.014293984,-0.124117017,-1.329526424,0.000286316,0.000598261,0.001285403,1.225232601,0.177179322,9.724215508
1784246942.245993,0.014294896,-0.124117613,-1.329526424,-0.000193602,0.000204399,0.000604136,1.210532904,0.149948657,9.736579895
1784246942.248003,0.014294896,-0.124117613,-1.329526424,-0.000539492,0.000276974,0.000182056,1.235759735,0.157302439,9.728133202
1784246942.249996,0.014294896,-0.124117613,-1.329526424,-0.000626852,0.000647960,0.000544526,1.238173127,0.135209739,9.743236542
1784246942.252005,0.014294918,-0.124119043,-1.329526305,-0.000582623,0.000810499,0.000573480,1.200318933,0.122247480,9.744012833
1784246942.254044,0.014294918,-0.124119043,-1.329526305,-0.000533599,0.000732949,0.000232471,1.227212310,0.117620073,9.716214180
1784246942.256016,0.014294284,-0.124119468,-1.329526424,-0.000100640,0.000653396,0.000110915,1.225530505,0.126236975,9.704610825
1784246942.258006,0.014294284,-0.124119468,-1.329526424,0.000304925,0.000576361,0.000040451,1.220717311,0.136587426,9.706913948
1784246942.260012,0.014294284,-0.124119468,-1.329526424,0.000313055,0.000668330,-0.000172978,1.222831249,0.125404179,9.700568199
1784246942.262009,0.014294047,-0.124120221,-1.329526424,-0.000043693,0.000701468,-0.000040395,1.220881343,0.112855643,9.704520226
1784246942.264007,0.014294047,-0.124120221,-1.329526424,-0.000050580,0.000775109,0.000345697,1.230505347,0.130535707,9.721231461
1784246942.266012,0.014293741,-0.124120966,-1.329526424,0.000471110,0.000951726,0.000195239,1.226923823,0.131048754,9.718540192
1784246942.268013,0.014293741,-0.124120966,-1.329526424,0.001065162,0.000790537,0.000012150,1.235419035,0.127460748,9.703731537
1784246942.270012,0.014293741,-0.124120966,-1.329526424,0.001533235,0.000653072,0.000149494,1.237564921,0.156552047,9.704368591
1784246942.272016,0.014294717,-0.124122657,-1.329526305,0.001500579,0.001062375,0.000017118,1.233362198,0.143145859,9.706968307
1784246942.274018,0.014294717,-0.124122657,-1.329526305,0.001223031,0.001221615,-0.000459582,1.184884071,0.142813638,9.714987755
1784246942.276018,0.014294984,-0.124121122,-1.329526424,0.000869251,0.000778955,-0.000431118,1.248509049,0.133581385,9.701540947
1784246942.278024,0.014294984,-0.124121122,-1.329526424,0.000537582,0.000365623,-0.000140229,1.248518109,0.136894792,9.739670753
1784246942.280027,0.014294984,-0.124121122,-1.329526424,0.000803943,0.000151026,-0.000251963,1.220328093,0.144357607,9.749106407
1784246942.282023,0.014295259,-0.124122210,-1.329526424,0.000868829,-0.000220568,-0.000226453,1.221740723,0.148108453,9.723129272
1784246942.284027,0.014295259,-0.124122210,-1.329526424,0.000498020,-0.000702532,-0.000245815,1.193375587,0.139600471,9.710494041
1784246942.286026,0.014295313,-0.124121323,-1.329526424,0.000525976,-0.000281778,-0.000435664,1.222975969,0.139516354,9.732041359
1784246942.288035,0.014295313,-0.124121323,-1.329526424,0.000407470,0.000530986,-0.000697729,1.230528712,0.169120178,9.713856697
1784246942.290031,0.014295313,-0.124121323,-1.329526424,0.000193025,0.000945462,-0.001052301,1.222556353,0.141777813,9.729814529
1784246942.292031,0.014295409,-0.124122642,-1.329526305,0.000343438,0.001154764,-0.001418942,1.218812943,0.129261792,9.732419968
1784246942.294032,0.014295409,-0.124122642,-1.329526305,0.000231554,0.000983095,-0.001273003,1.199576259,0.134420708,9.734676361
1784246942.296039,0.014294813,-0.124121837,-1.329526305,0.000164334,0.000550678,-0.000969807,1.186045885,0.127562538,9.715341568
1784246942.298037,0.014294813,-0.124121837,-1.329526305,0.000173025,0.000558810,-0.000710937,1.207343817,0.144340277,9.711881638
1784246942.300037,0.014294813,-0.124121837,-1.329526305,-0.000126911,0.000780817,0.000001867,1.214020014,0.177767828,9.724655151
1784246942.302045,0.014297253,-0.124121577,-1.329526305,-0.000111850,0.000761254,0.000321928,1.226664782,0.147142947,9.724023819
1784246942.304044,0.014297253,-0.124121577,-1.329526305,-0.000080827,0.000839328,0.000140444,1.213514447,0.172461674,9.715656281
1784246942.306043,0.014299038,-0.124122135,-1.329526424,-0.000383675,0.000882156,-0.000064568,1.229405999,0.149519950,9.699831963
1784246942.308047,0.014299038,-0.124122135,-1.329526424,-0.000533733,0.000750602,-0.000214711,1.214630723,0.154014394,9.724504471
1784246942.310047,0.014299038,-0.124122135,-1.329526424,-0.000138000,0.000681334,0.000326726,1.208850861,0.159372449,9.737534523
1784246942.312046,0.014300031,-0.124121472,-1.329526424,0.000689850,0.000407848,0.000919342,1.229478717,0.158199355,9.739340782
1784246942.314046,0.014300031,-0.124121472,-1.329526424,0.001400742,-0.000126783,0.000085733,1.205454707,0.137135491,9.720352173
1784246942.316051,0.014299684,-0.124120772,-1.329526544,0.001201276,-0.000091109,-0.001079920,1.218422055,0.132965699,9.716303825
1784246942.318052,0.014299684,-0.124120772,-1.329526544,0.000280156,0.000192356,-0.001459537,1.218310833,0.123577610,9.713553429
1784246942.320057,0.014299684,-0.124120772,-1.329526544,-0.000760516,-0.000317789,-0.001632354,1.225643396,0.135637820,9.705567360
1784246942.322059,0.014299046,-0.124122381,-1.329526424,-0.001666084,-0.000975048,-0.001886437,1.210951090,0.146460950,9.722211838
1784246942.324059,0.014299046,-0.124122381,-1.329526424,-0.001471483,-0.001013860,-0.001941362,1.241313457,0.134353086,9.732026100
1784246942.326060,0.014298238,-0.124124482,-1.329526424,-0.000245004,-0.000983938,-0.001636342,1.202894807,0.147130057,9.705619812
1784246942.328062,0.014298238,-0.124124482,-1.329526424,-0.000002949,-0.000921553,-0.001017808,1.208693266,0.143538401,9.696186066
1784246942.330068,0.014298238,-0.124124482,-1.329526424,-0.000780852,-0.000593172,-0.001000395,1.208843827,0.120511755,9.720697403
1784246942.332067,0.014297727,-0.124123536,-1.329526424,-0.001186044,-0.000533801,-0.001295336,1.238264322,0.104822129,9.731834412
1784246942.334071,0.014297727,-0.124123536,-1.329526424,-0.001088939,-0.000858749,-0.000861761,1.238343239,0.111119024,9.728286743
1784246942.336068,0.014295462,-0.124124624,-1.329526305,-0.001017574,-0.000971364,-0.000238332,1.216324687,0.108716145,9.727802277
1784246942.338070,0.014295462,-0.124124624,-1.329526305,-0.001067759,-0.000458660,0.000273136,1.214088917,0.146395266,9.725800514
1784246942.340075,0.014295462,-0.124124624,-1.329526305,-0.000618450,-0.000323725,0.000536867,1.214199662,0.154160053,9.704778671
1784246942.342076,0.014296046,-0.124125175,-1.329526305,0.000118649,-0.000787820,0.000726510,1.208309054,0.150539801,9.720440865
1784246942.344074,0.014296046,-0.124125175,-1.329526305,0.000329430,-0.001141830,0.001098729,1.221698642,0.145344377,9.733870506
1784246942.346112,0.014296341,-0.124124922,-1.329526305,0.000557815,-0.001289102,0.000811016,1.222671866,0.150794253,9.721801758
1784246942.348094,0.014296341,-0.124124922,-1.329526305,0.000782785,-0.001088378,0.000169986,1.221153498,0.135673046,9.708702087
1784246942.350080,0.014296341,-0.124124922,-1.329526305,0.000459481,-0.000724450,0.000281099,1.219087958,0.113294803,9.709005356
1784246942.352087,0.014295011,-0.124123737,-1.329526305,0.000009171,-0.000241468,0.000435124,1.236964941,0.107641615,9.715710640
1784246942.354084,0.014295011,-0.124123737,-1.329526305,-0.000484621,-0.000175600,0.000509369,1.220700502,0.135643825,9.713632584
1784246942.356085,0.014294672,-0.124123871,-1.329526305,-0.000739572,-0.000470730,0.000561710,1.206553698,0.115714669,9.706316948
1784246942.358087,0.014294672,-0.124123871,-1.329526305,-0.000720904,-0.000236292,0.000331892,1.180591345,0.122214638,9.721130371
1784246942.360088,0.014294672,-0.124123871,-1.329526305,0.000018251,0.000142771,0.000148733,1.193008661,0.107118689,9.679350853
1784246942.362098,0.014291871,-0.124122590,-1.329526305,0.001205340,0.000248712,0.000213957,1.215443373,0.145228103,9.698446274
1784246942.364127,0.014291871,-0.124122590,-1.329526305,0.001526941,0.000242192,0.000187934,1.245625496,0.155104667,9.704366684
1784246942.366101,0.014293164,-0.124124303,-1.329526305,0.000782365,-0.000056109,-0.000141094,1.200884461,0.164804161,9.681072235
1784246942.368099,0.014293164,-0.124124303,-1.329526305,-0.000505374,-0.000660811,-0.000474389,1.188918948,0.143543333,9.731138229
1784246942.370099,0.014293164,-0.124124303,-1.329526305,-0.001391344,-0.001229769,-0.000410944,1.230666399,0.143558398,9.716832161
1784246942.372104,0.014293399,-0.124124922,-1.329526186,-0.001601021,-0.001381726,0.000088726,1.217531085,0.131811380,9.691188812
1784246942.374101,0.014293399,-0.124124922,-1.329526186,-0.001693160,-0.000986777,0.000076556,1.205636263,0.114757121,9.716622353
1784246942.376105,0.014292270,-0.124124907,-1.329526305,-0.001919117,-0.000459927,-0.000490836,1.231016278,0.098293275,9.717887878
1784246942.378105,0.014292270,-0.124124907,-1.329526305,-0.001960095,-0.000277439,-0.000580168,1.236554503,0.110786267,9.715282440
1784246942.380109,0.014292270,-0.124124907,-1.329526305,-0.001921878,-0.000436098,-0.000177414,1.246317148,0.139284164,9.722647667
1784246942.382110,0.014292009,-0.124126218,-1.329526186,-0.002023927,-0.000908824,-0.000120882,1.219901443,0.144538224,9.724449158
1784246942.384109,0.014292009,-0.124126218,-1.329526186,-0.001642927,-0.000987015,-0.000258011,1.228162050,0.158045277,9.700333595
1784246942.386109,0.014292061,-0.124127135,-1.329526186,-0.000816778,-0.000421469,-0.000100843,1.241894007,0.144304201,9.717743874
1784246942.388118,0.014292061,-0.124127135,-1.329526186,-0.000416346,-0.000171289,0.000337364,1.200503349,0.171424404,9.695909500
1784246942.390114,0.014292061,-0.124127135,-1.329526186,-0.000436796,-0.000277974,0.001358508,1.213954091,0.170359179,9.695467949
1784246942.392113,0.014293067,-0.124127455,-1.329526186,-0.000504243,-0.000140796,0.002374291,1.202029109,0.150229573,9.712362289
1784246942.394115,0.014293067,-0.124127455,-1.329526186,-0.000710129,0.000273565,0.002014621,1.221324801,0.148778409,9.692646027
1784246942.396122,0.014293339,-0.124127440,-1.329526067,-0.000841012,0.000455310,0.000759117,1.204542160,0.137026146,9.737386703
1784246942.398123,0.014293339,-0.124127440,-1.329526067,-0.000612924,0.000439121,0.000024699,1.213768840,0.119959205,9.726526260
1784246942.400128,0.014293339,-0.124127440,-1.329526067,-0.000465974,0.000459660,0.000121646,1.198844433,0.147896469,9.731175423
1784246942.402123,0.014293745,-0.124126345,-1.329526186,-0.000646893,0.000656059,0.000463602,1.211402416,0.148907661,9.755403519
1784246942.404126,0.014293745,-0.124126345,-1.329526186,-0.000997352,0.000604607,0.000530764,1.222775698,0.123345241,9.738214493
1784246942.406131,0.014292639,-0.124126203,-1.329526305,-0.001402144,0.000066309,0.000323937,1.218485236,0.138328537,9.718132019
1784246942.408134,0.014292639,-0.124126203,-1.329526305,-0.001515782,-0.000309126,0.000065337,1.208704233,0.145247564,9.707854271
1784246942.410133,0.014292639,-0.124126203,-1.329526305,-0.000905879,-0.000015561,0.000115882,1.234947801,0.126478374,9.716726303
1784246942.412134,0.014292359,-0.124127664,-1.329526186,-0.000243041,0.000497501,0.000876791,1.222821236,0.125324681,9.711775780
1784246942.414133,0.014292359,-0.124127664,-1.329526186,-0.000089065,0.000550932,0.001410746,1.232054234,0.145491958,9.694428444
1784246942.416143,0.014292490,-0.124129057,-1.329526067,-0.000446952,0.000384911,0.000823040,1.228873730,0.106007308,9.708069801
1784246942.418139,0.014292490,-0.124129057,-1.329526067,-0.000870318,0.000283386,0.000448908,1.212763429,0.111418121,9.732299805
1784246942.420144,0.014292490,-0.124129057,-1.329526067,-0.000957823,0.000689702,0.000720937,1.229214668,0.135042101,9.719914436
1784246942.422142,0.014292303,-0.124129757,-1.329526067,-0.001290831,0.001151038,0.000847394,1.218147755,0.110942490,9.726474762
1784246942.424169,0.014292303,-0.124129757,-1.329526067,-0.001698258,0.001168450,0.000359822,1.215587258,0.122147404,9.730578423
1784246942.426149,0.014291950,-0.124130242,-1.329526067,-0.001653873,0.000909016,-0.000249069,1.220603108,0.128797218,9.731520653
1784246942.428148,0.014291950,-0.124130242,-1.329526067,-0.001013236,0.000259609,-0.000062425,1.213980556,0.135409296,9.695692062
1784246942.430160,0.014291950,-0.124130242,-1.329526067,-0.000365374,-0.000266994,-0.000323607,1.233166695,0.163389370,9.695889473
1784246942.432154,0.014293723,-0.124130614,-1.329526067,-0.000195518,-0.000213942,-0.000746596,1.226806283,0.159199730,9.729482651
1784246942.434153,0.014293723,-0.124130614,-1.329526067,-0.000269097,0.000145839,-0.000240932,1.215320110,0.136961311,9.727086067
1784246942.436155,0.014293775,-0.124131523,-1.329526067,-0.000067118,0.000586499,-0.000087782,1.226785660,0.157010794,9.722294807
1784246942.438157,0.014293775,-0.124131523,-1.329526067,0.000532373,0.000921079,-0.000047627,1.215402961,0.144910127,9.743277550
1784246942.440164,0.014293775,-0.124131523,-1.329526067,0.000817463,0.000606043,0.000375412,1.195305705,0.114403218,9.721990585
1784246942.442158,0.014293432,-0.124131635,-1.329526067,0.000497536,0.000006240,0.000355757,1.193118215,0.118520863,9.713944435
1784246942.444160,0.014293432,-0.124131635,-1.329526067,0.000199241,0.000095622,-0.000251442,1.215100765,0.119424053,9.736388206
1784246942.446164,0.014292274,-0.124131992,-1.329526186,0.000344235,0.000281164,-0.000421757,1.224282026,0.135940850,9.728432655
1784246942.448170,0.014292274,-0.124131992,-1.329526186,0.000171865,-0.000018077,0.000335848,1.230951786,0.130510882,9.723920822
1784246942.450166,0.014292274,-0.124131992,-1.329526186,-0.000785394,-0.000367224,0.000253889,1.243313074,0.114162885,9.732347488
1784246942.452165,0.014290257,-0.124133028,-1.329526186,-0.001947628,-0.000340817,-0.000743685,1.217196107,0.143657714,9.727130890
1784246942.454171,0.014290257,-0.124133028,-1.329526186,-0.002612756,-0.000129089,-0.000891389,1.201654315,0.156897515,9.720476151
1784246942.456169,0.014291611,-0.124133259,-1.329526067,-0.002610304,0.000069472,-0.000275896,1.192503572,0.142649129,9.724411011
1784246942.458171,0.014291611,-0.124133259,-1.329526067,-0.001866417,0.000155775,-0.000422372,1.217781901,0.116870314,9.712612152
1784246942.460172,0.014291611,-0.124133259,-1.329526067,-0.001018755,-0.000033763,-0.000999346,1.240963936,0.142031386,9.724004745
1784246942.462178,0.014291760,-0.124134958,-1.329526067,-0.000565713,-0.000227053,-0.000932835,1.220845222,0.112166025,9.738589287
1784246942.464182,0.014291760,-0.124134958,-1.329526067,-0.000396161,-0.000097915,-0.000594305,1.243454337,0.124192908,9.707753181
1784246942.466178,0.014290797,-0.124135956,-1.329526067,-0.000437158,-0.000129166,-0.000168131,1.232704163,0.126100481,9.710892677
1784246942.468183,0.014290797,-0.124135956,-1.329526067,-0.000305478,-0.000331675,-0.000183345,1.216137409,0.129426673,9.714037895
1784246942.470179,0.014290797,-0.124135956,-1.329526067,-0.000112805,0.000008502,-0.000642852,1.221026301,0.126157746,9.723882675
1784246942.472183,0.014289721,-0.124136046,-1.329526067,-0.000258379,0.000582943,-0.000904026,1.228325605,0.136333883,9.728886604
