time_sec,roll_rad,pitch_rad,yaw_rad,gyro_x,gyro_y,gyro_z,acc_x,acc_y,acc_z
1784246959.143705,0.015562364,-0.119293936,0.251658708,0.000290672,0.000644213,-0.000847529,1.163482904,0.193104818,9.738157272
1784246959.145685,0.015554937,-0.119291984,0.251661092,-0.000761159,0.000671220,0.000016922,1.163648725,0.204138905,9.698326111
1784246959.147698,0.015547844,-0.119287163,0.251654923,-0.001686153,0.000895247,-0.000110625,1.144716024,0.199640006,9.735042572
1784246959.149704,0.015541753,-0.119286112,0.251651287,-0.002196440,0.001041342,-0.000636620,1.163475990,0.192644149,9.739945412
1784246959.151674,0.015536292,-0.119290292,0.251648486,-0.002556706,0.000588233,-0.000788228,1.145712018,0.204054415,9.679477692
1784246959.153658,0.015530660,-0.119293265,0.251647264,-0.002768233,-0.000013385,-0.000737638,1.153603077,0.190734312,9.711231232
1784246959.155649,0.015529503,-0.119289979,0.251644373,-0.002609585,0.000031281,-0.000751752,1.163322568,0.182112113,9.772159576
1784246959.157639,0.015525740,-0.119296916,0.251640677,-0.002388026,-0.000206204,-0.000943888,1.163014412,0.191738084,9.742181778
1784246959.159637,0.015520047,-0.119303420,0.251641870,-0.002397482,-0.001063218,-0.000781058,1.162575126,0.190196797,9.707649231
1784246959.161642,0.015515704,-0.119299844,0.251638025,-0.002541207,-0.000966099,-0.000658637,1.150908828,0.191966429,9.731861115
1784246959.163656,0.015513705,-0.119298227,0.251642615,-0.002369154,-0.000341576,-0.000367359,1.169270635,0.186997101,9.704498291
1784246959.165657,0.015516140,-0.119299352,0.251646250,-0.001723524,-0.000164982,0.000295404,1.180228949,0.202134311,9.698328972
1784246959.167671,0.015507276,-0.119303793,0.251640588,-0.001798727,-0.000458560,0.000143188,1.175144911,0.191300243,9.718877792
1784246959.169656,0.015504030,-0.119306877,0.251630813,-0.002251317,-0.000860817,-0.000835868,1.160318136,0.188903943,9.704501152
1784246959.171674,0.015506893,-0.119312830,0.251626402,-0.001894984,-0.001251250,-0.001548553,1.160236955,0.183401227,9.722399712
1784246959.173671,0.015501223,-0.119320691,0.251629472,-0.001695079,-0.001846442,-0.001185024,1.171114206,0.191412404,9.710355759
1784246959.175724,0.015493592,-0.119321942,0.251626581,-0.002197036,-0.001932173,-0.000738770,1.163649440,0.168175399,9.715131760
1784246959.177755,0.015489318,-0.119323254,0.251620978,-0.002538515,-0.001559254,-0.001006924,1.159225821,0.173192263,9.710677147
1784246959.179697,0.015481696,-0.119330235,0.251620322,-0.002701713,-0.001703376,-0.001060038,1.145840406,0.181256354,9.734926224
1784246959.181681,0.015471123,-0.119331703,0.251622915,-0.003256566,-0.001861427,-0.000485957,1.181334019,0.183598027,9.719731331
1784246959.183671,0.015461545,-0.119332843,0.251612365,-0.003872066,-0.001592319,-0.000715806,1.162769318,0.207940355,9.732421875
1784246959.185708,0.015460877,-0.119334012,0.251607478,-0.003776292,-0.001362603,-0.001459854,1.156737566,0.191046655,9.724687576
1784246959.187680,0.015453327,-0.119333223,0.251604706,-0.003507304,-0.001056511,-0.001495345,1.181352139,0.148177937,9.723091125
1784246959.189696,0.015442546,-0.119335070,0.251601815,-0.003836323,-0.000847082,-0.001323539,1.174789429,0.162557572,9.729005814
1784246959.191692,0.015436806,-0.119337931,0.251599133,-0.004005641,-0.000875266,-0.001199276,1.165662408,0.151333645,9.748651505
1784246959.193674,0.015432410,-0.119336389,0.251597047,-0.003692549,-0.000666514,-0.001106781,1.169430017,0.163633779,9.713315010
1784246959.195665,0.015432457,-0.119339161,0.251600236,-0.002995033,-0.000503606,-0.000695608,1.162285209,0.165619358,9.698973656
1784246959.197673,0.015426870,-0.119348280,0.251600325,-0.002549325,-0.001105220,-0.000237720,1.185749650,0.142144322,9.744576454
1784246959.199692,0.015419002,-0.119349957,0.251588881,-0.002855389,-0.001549043,-0.000825828,1.154774666,0.140399784,9.730636597
1784246959.201666,0.015412070,-0.119347848,0.251589566,-0.003106606,-0.001134313,-0.001214088,1.153876185,0.139998302,9.725701332
1784246959.203654,0.015411170,-0.119349778,0.251598001,-0.002659727,-0.000828838,-0.000214233,1.151798248,0.153897926,9.728030205
1784246959.205643,0.015410308,-0.119352296,0.251593798,-0.002066411,-0.001002958,0.000151330,1.182561159,0.175752431,9.749719620
1784246959.207641,0.015401594,-0.119353421,0.251593798,-0.002229199,-0.001084289,-0.000088504,1.183946848,0.177263483,9.723728180
1784246959.209659,0.015394957,-0.119360358,0.251591623,-0.002675794,-0.001339099,-0.000084313,1.177152514,0.171577081,9.716511726
1784246959.211657,0.015390539,-0.119360410,0.251589060,-0.002800614,-0.001417674,-0.000278914,1.196378827,0.165932059,9.719632149
1784246959.213644,0.015384475,-0.119361639,0.251580566,-0.002904488,-0.001094136,-0.000851822,1.178421855,0.129312232,9.735071182
1784246959.215644,0.015375528,-0.119364291,0.251580536,-0.003055249,-0.001074731,-0.001089986,1.164271474,0.147347853,9.744588852
1784246959.217650,0.015369163,-0.119363181,0.251585722,-0.003074947,-0.000887219,-0.000341734,1.155621290,0.136340737,9.732853889
1784246959.219651,0.015365630,-0.119365513,0.251589268,-0.002836317,-0.000718677,0.000420561,1.152958393,0.137417421,9.712233543
1784246959.221679,0.015368818,-0.119372964,0.251588702,-0.002016535,-0.001157958,0.000504433,1.146567106,0.130555913,9.743566513
1784246959.223663,0.015368305,-0.119371973,0.251585424,-0.001271187,-0.001260588,0.000079581,1.156613708,0.145590141,9.753536224
1784246959.225660,0.015362632,-0.119370349,0.251576215,-0.001444513,-0.000802553,-0.000733540,1.167673588,0.168012396,9.730826378
1784246959.227682,0.015359889,-0.119368888,0.251564920,-0.001786277,-0.000445347,-0.001849604,1.183767200,0.163281292,9.737088203
1784246959.229669,0.015356123,-0.119366303,0.251562089,-0.001854090,-0.000063631,-0.002246489,1.148073792,0.142748088,9.727506638
1784246959.231711,0.015350733,-0.119366810,0.251565039,-0.001925279,0.000082708,-0.001561585,1.148483396,0.140407130,9.740942001
1784246959.233671,0.015345145,-0.119372755,0.251565456,-0.002074339,-0.000387050,-0.000831333,1.177659988,0.139309227,9.716753960
1784246959.235704,0.015346201,-0.119376667,0.251570463,-0.001751386,-0.000932462,-0.000209539,1.168002605,0.118935034,9.700922012
1784246959.237674,0.015342839,-0.119378753,0.251574904,-0.001333008,-0.001063325,0.000497932,1.166835785,0.135768130,9.730170250
1784246959.239667,0.015336272,-0.119377971,0.251570582,-0.001638456,-0.000860659,0.000454402,1.164869308,0.122682594,9.746671677
1784246959.241668,0.015334482,-0.119374402,0.251566678,-0.001692927,-0.000351195,-0.000170736,1.170748115,0.126617253,9.749841690
1784246959.243675,0.015328050,-0.119374149,0.251563489,-0.001715093,-0.000016686,-0.000554111,1.175895810,0.140383944,9.694789886
1784246959.245668,0.015321423,-0.119377196,0.251561940,-0.002133405,-0.000129976,-0.000619402,1.182430387,0.162561581,9.714665413
1784246959.247682,0.015315690,-0.119377904,0.251552969,-0.002437966,-0.000282071,-0.001064493,1.174907565,0.135626480,9.735556602
1784246959.249672,0.015315801,-0.119375437,0.251553565,-0.002222834,-0.000092149,-0.001296108,1.175681353,0.124101549,9.716653824
1784246959.251672,0.015320916,-0.119371258,0.251553595,-0.001177153,0.000429504,-0.000955839,1.182925820,0.129388258,9.716245651
1784246959.253682,0.015318318,-0.119368218,0.251554340,-0.000595876,0.000847246,-0.000671929,1.184902191,0.145386934,9.731146812
1784246959.255680,0.015311779,-0.119375221,0.251551986,-0.001048481,0.000387379,-0.000524909,1.195884109,0.162331864,9.722746849
1784246959.257680,0.015309799,-0.119377255,0.251553923,-0.001327839,-0.000290600,-0.000347430,1.183711171,0.119575672,9.708562851
1784246959.259681,0.015310606,-0.119373381,0.251551121,-0.001053466,-0.000087131,-0.000303753,1.175552845,0.114576690,9.733181000
1784246959.261679,0.015310728,-0.119373865,0.251546055,-0.000651550,0.000242005,-0.000776056,1.160592198,0.102614239,9.741159439
1784246959.263679,0.015309284,-0.119374290,0.251545876,-0.000488911,0.000193976,-0.000923365,1.130939603,0.135417983,9.718029022
1784246959.265684,0.015308542,-0.119373590,0.251550168,-0.000427401,0.000047622,-0.000381523,1.192713737,0.123739980,9.736842155
1784246959.267685,0.015306866,-0.119374245,0.251549751,-0.000400823,-0.000076687,-0.000004976,1.189918041,0.151630118,9.726259232
1784246959.269690,0.015310674,-0.119372018,0.251548618,-0.000161215,0.000048806,-0.000126252,1.165435672,0.130495667,9.718030930
1784246959.271694,0.015317447,-0.119371004,0.251542360,0.000594174,0.000244835,-0.000682441,1.148355961,0.128458455,9.720241547
1784246959.273690,0.015314748,-0.119371049,0.251539350,0.000690902,0.000230982,-0.001161420,1.153878450,0.139610752,9.717179298
1784246959.275691,0.015314030,-0.119370632,0.251540214,0.000325772,0.000186267,-0.000969682,1.172643900,0.134279549,9.740029335
1784246959.277684,0.015315988,-0.119373627,0.251536161,0.000365242,-0.000046928,-0.000938946,1.173566341,0.135681868,9.730175018
1784246959.279686,0.015318365,-0.119372755,0.251537800,0.000538934,-0.000182595,-0.000880031,1.162622571,0.120659135,9.720207214
1784246959.281699,0.015316582,-0.119373992,0.251540840,0.000611615,-0.000139841,-0.000349009,1.131124496,0.115498446,9.746594429
1784246959.283705,0.015315410,-0.119376451,0.251538336,0.000391446,-0.000338191,-0.000216604,1.156399488,0.126877546,9.739069939
1784246959.285694,0.015314607,-0.119372956,0.251531720,0.000162640,-0.000261974,-0.000768891,1.170579076,0.113934420,9.769487381
1784246959.287699,0.015325159,-0.119369723,0.251530379,0.000795779,0.000181018,-0.001185850,1.159223795,0.138016626,9.742731094
1784246959.289701,0.015329689,-0.119369790,0.251536340,0.001633166,0.000350703,-0.000677523,1.166775584,0.130024120,9.718926430
1784246959.291698,0.015321498,-0.119375244,0.251535118,0.001025251,-0.000089522,-0.000149822,1.159804821,0.147567511,9.721721649
1784246959.293716,0.015322538,-0.119377397,0.251529902,0.000256945,-0.000564278,-0.000488846,1.160287261,0.149449006,9.708283424
1784246959.295711,0.015332531,-0.119373411,0.251527339,0.000826133,-0.000236896,-0.000964950,1.177542090,0.131083742,9.739565849
1784246959.297707,0.015338400,-0.119369954,0.251529187,0.001623693,0.000390796,-0.000875766,1.147432923,0.127456397,9.736823082
1784246959.299707,0.015339666,-0.119370744,0.251531422,0.001800981,0.000417114,-0.000272285,1.170349836,0.128640622,9.718024254
1784246959.301713,0.015350341,-0.119370021,0.251627326,0.001625726,0.000589960,0.000156915,1.174093127,0.141696647,9.723490715
1784246959.303713,0.015355363,-0.119367950,0.251620710,0.001576060,0.000954109,-0.000303961,1.161834955,0.130049199,9.724300385
1784246959.305714,0.015357115,-0.119374141,0.251619548,0.001657416,0.000349191,-0.000812849,1.177754521,0.148160309,9.732053757
1784246959.307709,0.015361975,-0.119373776,0.251618505,0.001750761,-0.000202172,-0.000805044,1.155651093,0.137792721,9.717618942
1784246959.309711,0.015358977,-0.119372800,0.251618207,0.001390444,-0.000059904,-0.000688696,1.159720540,0.140822664,9.725264549
1784246959.311713,0.015346909,-0.119375154,0.251619607,0.000111310,-0.000271058,-0.000318479,1.170602798,0.150091872,9.725333214
1784246959.313716,0.015346369,-0.119373746,0.251621217,-0.000639603,-0.000391498,0.000060005,1.157868385,0.173120484,9.723228455
1784246959.315717,0.015355476,-0.119367778,0.251627326,0.000085545,0.000154021,0.000503743,1.170467496,0.137269497,9.701490402
1784246959.317714,0.015359712,-0.119362488,0.251631916,0.000959848,0.000816687,0.000991495,1.170788527,0.164525151,9.711527824
1784246959.319717,0.015365030,-0.119362086,0.251629382,0.001359575,0.000981435,0.000785062,1.168407917,0.153745621,9.719527245
1784246959.321719,0.015363414,-0.119361483,0.251631439,0.001285980,0.000782175,0.000505957,1.167969704,0.153834030,9.707871437
1784246959.323716,0.015360842,-0.119361348,0.251631975,0.000725299,0.000622824,0.000572525,1.159346581,0.143850029,9.678209305
1784246959.325717,0.015367455,-0.119360700,0.251632601,0.000823266,0.000484275,0.000459232,1.142756224,0.148208499,9.725295067
1784246959.327722,0.015377178,-0.119360179,0.251633584,0.001726846,0.000410811,0.000305967,1.157625079,0.153772309,9.735208511
1784246959.329719,0.015385423,-0.119359121,0.251635760,0.002493938,0.000409565,0.000285038,1.135835648,0.171009764,9.744713783
1784246959.331758,0.015393224,-0.119354688,0.251633912,0.002855444,0.000519776,0.000107631,1.156468868,0.170284629,9.746520996
1784246959.333732,0.015397530,-0.119356103,0.251641721,0.002899092,0.000437895,0.000392331,1.174722433,0.156759545,9.725380898
1784246959.335766,0.015398643,-0.119357601,0.251650065,0.002529220,0.000180047,0.001338114,1.162091494,0.153552651,9.758076668
1784246959.337765,0.015398447,-0.119356610,0.251646578,0.001865323,0.000144881,0.001305258,1.166588902,0.189951107,9.735000610
1784246959.339742,0.015396762,-0.119353577,0.251646727,0.001204920,0.000376479,0.000740921,1.161776543,0.162314519,9.723610878
1784246959.341772,0.015393178,-0.119352713,0.251650631,0.000559850,0.000543754,0.000853041,1.163944840,0.158044264,9.753174782
1784246959.343746,0.015393848,-0.119357266,0.251657188,0.000300419,0.000156819,0.001347411,1.165327907,0.158722967,9.718211174
1784246959.345737,0.015398247,-0.119356081,0.251662254,0.000636072,-0.000094829,0.001726608,1.170095444,0.144769758,9.718574524
1784246959.347752,0.015396202,-0.119351059,0.251656741,0.000600057,0.000359716,0.001211678,1.172213316,0.171208262,9.714262962
1784246959.349742,0.015399696,-0.119347133,0.251651824,0.000450626,0.000858263,0.000169376,1.151368499,0.154863194,9.719069481
1784246959.351743,0.015404042,-0.119344682,0.251659811,0.000861448,0.000976544,0.000276019,1.130448341,0.169839829,9.729906082
1784246959.353741,0.015403719,-0.119344331,0.251661718,0.000958149,0.000827917,0.000839475,1.131386280,0.173389763,9.733066559
1784246959.355745,0.015408567,-0.119346596,0.251655638,0.000864434,0.000385185,0.000309129,1.150476813,0.156135902,9.730732918
1784246959.357744,0.015412061,-0.119343847,0.251655072,0.001033428,0.000223312,-0.000274520,1.155701160,0.180640593,9.740758896
1784246959.359751,0.015417865,-0.119339861,0.251657665,0.001395876,0.000621355,-0.000136841,1.159469366,0.159004018,9.752279282
1784246959.361744,0.015418347,-0.119340293,0.251661181,0.001457576,0.000659636,0.000268613,1.157454967,0.176646352,9.732216835
1784246959.363747,0.015422327,-0.119338885,0.251660854,0.001356374,0.000510214,0.000382244,1.157623053,0.189319611,9.713916779
1784246959.365746,0.015432566,-0.119335540,0.251659751,0.001792512,0.000650178,0.000088132,1.154088616,0.195474923,9.736817360
1784246959.367753,0.015431841,-0.119331092,0.251667500,0.001858073,0.000967309,0.000452330,1.181404471,0.189828157,9.725599289
1784246959.369751,0.015427656,-0.119326986,0.251668394,0.001092674,0.001295661,0.000951568,1.146980524,0.197749823,9.681680679
1784246959.371753,0.015424586,-0.119326875,0.251667202,0.000152676,0.001164434,0.000752980,1.145990729,0.192169577,9.712130547
1784246959.373762,0.015429883,-0.119329505,0.251668930,0.000113923,0.000612001,0.000588740,1.171752334,0.172332153,9.746101379
1784246959.375767,0.015445284,-0.119330034,0.251669884,0.001405916,0.000231434,0.000453261,1.148960233,0.216613963,9.734706879
1784246959.377761,0.015452236,-0.119330660,0.251675874,0.002492662,0.000094959,0.000626359,1.165792584,0.197651088,9.724737167
1784246959.379764,0.015451679,-0.119334862,0.251679301,0.002322717,-0.000247852,0.001038403,1.144993901,0.183695242,9.708489418
1784246959.381808,0.015452382,-0.119340621,0.251677155,0.001653223,-0.000902695,0.000848051,1.165139198,0.180640668,9.723731995
1784246959.383784,0.015455413,-0.119341269,0.251675665,0.001367779,-0.001145719,0.000349970,1.147983789,0.209921941,9.732420921
1784246959.385766,0.015460473,-0.119337216,0.251678973,0.001401450,-0.000643498,0.000334276,1.166952133,0.181570813,9.715667725
1784246959.387772,0.015460013,-0.119334504,0.251682192,0.001228817,-0.000043621,0.000666818,1.144076586,0.181524187,9.700403214
1784246959.389775,0.015461581,-0.119333342,0.251681924,0.000993389,0.000234011,0.000673335,1.169577003,0.176951826,9.730437279
1784246959.391780,0.015461381,-0.119334623,0.251684755,0.000764764,0.000167002,0.000658440,1.159546494,0.162854806,9.714645386
1784246959.393780,0.015457182,-0.119335592,0.251687527,0.000234459,-0.000023434,0.000898948,1.165452957,0.204595625,9.693846703
1784246959.395784,0.015462240,-0.119336233,0.251683861,0.000066803,-0.000107647,0.000605459,1.163013220,0.227291718,9.719993591
1784246959.397784,0.015463573,-0.119337305,0.251678675,0.000253212,-0.000186779,-0.000185611,1.178059936,0.210045114,9.723932266
1784246959.399785,0.015469227,-0.119334958,0.251682371,0.000643134,-0.000052051,-0.000291075,1.142820120,0.190354377,9.721082687
1784246959.401786,0.015481004,-0.119331449,0.251688391,0.001578929,0.000268853,0.000320341,1.149173379,0.197320446,9.738170624
1784246959.403786,0.015491609,-0.119331457,0.251688659,0.002566891,0.000338994,0.000494549,1.158158064,0.194857895,9.690191269
1784246959.405784,0.015494165,-0.119332224,0.251689345,0.002652190,0.000182713,0.000330466,1.172189474,0.206583858,9.717179298
1784246959.407786,0.015489465,-0.119337171,0.251691431,0.001697576,-0.000263707,0.000460189,1.174271107,0.193929538,9.728756905
1784246959.409788,0.015490375,-0.119340323,0.251696169,0.001036097,-0.000734939,0.000824709,1.168941855,0.200107813,9.751656532
1784246959.411790,0.015498716,-0.119342506,0.251694053,0.001298526,-0.000885936,0.000713424,1.166841865,0.209779039,9.718540192
1784246959.413820,0.015503172,-0.119336620,0.251694649,0.001695942,-0.000384305,0.000329208,1.164975047,0.204775900,9.732404709
1784246959.415798,0.015502709,-0.119338155,0.251695126,0.001316497,0.000040789,0.000301306,1.159831405,0.188204169,9.740811348
1784246959.417830,0.015499691,-0.119336151,0.251695096,0.000530888,0.000085858,0.000296748,1.140563726,0.191091463,9.747536659
1784246959.419810,0.015499437,-0.119332351,0.251696706,0.000179105,0.000457966,0.000349824,1.176902771,0.191391334,9.765954971
1784246959.421804,0.015501819,-0.119331554,0.251695514,0.000193116,0.000618798,0.000279993,1.159408450,0.191653714,9.760559082
1784246959.423801,0.015501513,-0.119330764,0.251701683,0.000236599,0.000535730,0.000534940,1.166881680,0.178177536,9.751962662
1784246959.425806,0.015505160,-0.119329602,0.251702309,0.000359192,0.000545569,0.000829514,1.154117584,0.197730616,9.734590530
1784246959.427803,0.015502359,-0.119330093,0.251706839,0.000266950,0.000465252,0.000953072,1.158393502,0.215765819,9.710947990
1784246959.429802,0.015498176,-0.119331479,0.251705021,-0.000254115,0.000214309,0.000932980,1.117235065,0.190205544,9.725091934
1784246959.431839,0.015502701,-0.119329847,0.251700848,-0.000324838,0.000032044,0.000287023,1.146091104,0.199851707,9.702765465
1784246959.433870,0.015503909,-0.119331270,0.251698881,-0.000014641,-0.000104302,-0.000237151,1.161251545,0.194039032,9.736815453
1784246959.435824,0.015505995,-0.119332142,0.251695007,0.000066222,-0.000238283,-0.000583326,1.154877067,0.186094373,9.731377602
1784246959.437848,0.015507730,-0.119333908,0.251695246,0.000178827,-0.000355351,-0.000691119,1.162984610,0.189476028,9.745306015
1784246959.439842,0.015506068,-0.119334549,0.251694798,0.000133890,-0.000422814,-0.000517023,1.176982045,0.196068078,9.738187790
1784246959.441816,0.015509125,-0.119327486,0.251693904,-0.000000129,0.000177546,-0.000458945,1.159820676,0.186498180,9.728694916
1784246959.443862,0.015508279,-0.119318247,0.251689821,-0.000071861,0.001282143,-0.000665603,1.174146414,0.220403135,9.723546982
1784246959.445828,0.015510414,-0.119318731,0.251687557,-0.000274815,0.001512925,-0.000891795,1.155770302,0.184834376,9.717922211
1784246959.447828,0.015508744,-0.119321883,0.251680344,-0.000503666,0.000837176,-0.001259974,1.173229933,0.182268634,9.732267380
1784246959.449819,0.015509799,-0.119325459,0.251679480,-0.000473827,0.000144348,-0.001456786,1.161386132,0.203611568,9.713562965
1784246959.451828,0.015505841,-0.119326934,0.251683265,-0.000687818,-0.000254592,-0.000823719,1.155263186,0.215078667,9.687179565
1784246959.453831,0.015496469,-0.119327620,0.251688838,-0.001493678,-0.000343426,0.000161057,1.128831506,0.184642360,9.730446815
1784246959.455828,0.015491581,-0.119327299,0.251685172,-0.002114902,-0.000332676,0.000373372,1.144400597,0.174455613,9.748779297
1784246959.457830,0.015487959,-0.119329557,0.251674324,-0.002312933,-0.000446499,-0.000627548,1.153004885,0.179833189,9.733130455
1784246959.459829,0.015483140,-0.119334877,0.251670778,-0.002370308,-0.000854340,-0.001358380,1.169284940,0.188731730,9.712579727
1784246959.461830,0.015479405,-0.119337156,0.251677960,-0.002378508,-0.001123338,-0.000663051,1.169903040,0.167062297,9.734409332
1784246959.463829,0.015477034,-0.119331017,0.251681775,-0.002160082,-0.000532633,0.000317576,1.170983195,0.179435089,9.693690300
1784246959.465829,0.015467023,-0.119332552,0.251679808,-0.002504666,0.000014547,0.000472197,1.191923618,0.168670967,9.720541954
1784246959.467834,0.015460166,-0.119331636,0.251682550,-0.003066851,0.000056755,0.000546253,1.178860188,0.165597066,9.735304832
1784246959.469831,0.015458060,-0.119324908,0.251684248,-0.002802590,0.000565220,0.000766400,1.147215366,0.182681561,9.721036911
1784246959.471839,0.015455460,-0.119323984,0.251677930,-0.002482587,0.000884134,0.000294878,1.148907423,0.173337221,9.708872795
1784246959.473839,0.015443608,-0.119325541,0.251675189,-0.002942201,0.000549282,-0.000269504,1.142496467,0.164293155,9.732123375
1784246959.475865,0.015441101,-0.119330890,0.251673490,-0.003174160,-0.000147624,-0.000376130,1.150486708,0.157025471,9.731635094
1784246959.477873,0.015443022,-0.119334847,0.251665413,-0.002457879,-0.000823973,-0.000922686,1.171993017,0.153664634,9.724462509
1784246959.479845,0.015437255,-0.119335368,0.251661271,-0.002148391,-0.000917529,-0.001463374,1.173886895,0.162527755,9.734831810
1784246959.481843,0.015429539,-0.119335264,0.251662701,-0.002536247,-0.000695510,-0.001134545,1.166334629,0.167680249,9.716923714
1784246959.483848,0.015427046,-0.119336993,0.251662463,-0.002567030,-0.000609922,-0.000660347,1.162563443,0.154541388,9.744185448
1784246959.485843,0.015426647,-0.119335391,0.251657844,-0.002153642,-0.000477397,-0.000783162,1.153656363,0.158831134,9.724028587
1784246959.487844,0.015425475,-0.119336538,0.251655579,-0.001779439,-0.000344757,-0.001016730,1.178955078,0.172831208,9.725935936
1784246959.489851,0.015419788,-0.119338326,0.251648486,-0.001834299,-0.000459814,-0.001314943,1.152160645,0.184721395,9.740332603
1784246959.491857,0.015415805,-0.119338758,0.251654595,-0.002074180,-0.000509131,-0.000936605,1.153027177,0.180818155,9.720582962
1784246959.493859,0.015411552,-0.119343534,0.251661867,-0.002036229,-0.000733209,0.000295047,1.160994053,0.171742737,9.722325325
1784246959.495855,0.015404730,-0.119346425,0.251662433,-0.002298780,-0.001053208,0.000847973,1.153223395,0.160177574,9.724485397
1784246959.497854,0.015399316,-0.119342797,0.251662374,-0.002627465,-0.000723878,0.000766291,1.164418578,0.157425568,9.713271141
1784246959.499865,0.015394102,-0.119340964,0.251658291,-0.002663702,-0.000160067,0.000365929,1.156964183,0.172267884,9.718737602
1784246959.501858,0.015388080,-0.119341388,0.251658529,-0.002802562,-0.000108328,0.000108194,1.186253309,0.182594359,9.726005554
1784246959.503860,0.015386555,-0.119344674,0.251656830,-0.002636538,-0.000416277,0.000045299,1.156105518,0.137831494,9.711342812
1784246959.505862,0.015381445,-0.119343810,0.251655996,-0.002351686,-0.000551833,-0.000090024,1.170517683,0.143340647,9.729774475
1784246959.507864,0.015376916,-0.119343311,0.251652807,-0.002358224,-0.000395845,-0.000259733,1.164399862,0.120902866,9.745764732
1784246959.509866,0.015374255,-0.119341560,0.251651973,-0.002234828,-0.000139487,-0.000400418,1.180331945,0.137899041,9.721229553
1784246959.511865,0.015363021,-0.119342238,0.251647621,-0.002524905,0.000015587,-0.000539788,1.191676140,0.148480937,9.724896431
1784246959.513869,0.015357773,-0.119345255,0.251647770,-0.002902662,-0.000194188,-0.000553122,1.180172801,0.161668986,9.718243599
1784246959.515873,0.015353444,-0.119346336,0.251648843,-0.002798775,-0.000335087,-0.000237235,1.158455849,0.149589255,9.754909515
1784246959.517879,0.015354978,-0.119344585,0.251646638,-0.002285160,-0.000117139,-0.000221253,1.185175538,0.169023946,9.746092796
1784246959.519880,0.015362988,-0.119351268,0.251639068,-0.001100846,-0.000430875,-0.000896925,1.153304100,0.129710481,9.724288940
1784246959.521883,0.015358064,-0.119361460,0.251636088,-0.000644798,-0.001483006,-0.001394380,1.156392813,0.124799900,9.716190338
1784246959.523879,0.015355214,-0.119365238,0.251634151,-0.000998571,-0.002046962,-0.001287385,1.164765477,0.149321556,9.718150139
1784246959.525876,0.015352140,-0.119360283,0.251633227,-0.001191635,-0.001469314,-0.001077468,1.153715611,0.125762120,9.711710930
1784246959.527877,0.015351751,-0.119361915,0.251628906,-0.001185652,-0.000904984,-0.001104031,1.178843617,0.125446513,9.710837364
1784246959.529879,0.015348036,-0.119366825,0.251629591,-0.001170103,-0.001106633,-0.001018467,1.179365158,0.168063208,9.702593803
1784246959.531940,0.015346454,-0.119371571,0.251633227,-0.001161052,-0.001346825,-0.000415104,1.157456875,0.175445542,9.712034225
1784246959.533908,0.015343531,-0.119374454,0.251638561,-0.001063240,-0.001380673,0.000332252,1.185128450,0.163384870,9.720052719
1784246959.535946,0.015341420,-0.119380079,0.251641423,-0.001101544,-0.001511924,0.000839821,1.186764121,0.149541840,9.710550308
1784246959.537908,0.015337484,-0.119376130,0.251638085,-0.001267819,-0.001152525,0.000634237,1.180670738,0.129731432,9.735076904
1784246959.539905,0.015332070,-0.119378030,0.251635343,-0.001603083,-0.000706192,0.000124123,1.157422066,0.174765468,9.744757652
1784246959.541941,0.015332498,-0.119381353,0.251634240,-0.001600361,-0.000924456,-0.000123762,1.178921938,0.171353757,9.744756699
1784246959.543908,0.015334373,-0.119382925,0.251626700,-0.001145288,-0.001068021,-0.000682626,1.190597892,0.132070482,9.703269005
1784246959.545893,0.015329157,-0.119381778,0.251620263,-0.001025220,-0.000736244,-0.001430642,1.213482976,0.133406982,9.726165771
1784246959.547897,0.015325380,-0.119378090,0.251615614,-0.001296005,-0.000132140,-0.001739440,1.154739976,0.138506174,9.744971275
1784246959.549903,0.015319343,-0.119377077,0.251613855,-0.001657782,0.000217617,-0.001622176,1.160610437,0.140347302,9.727503777
1784246959.551903,0.015314005,-0.119377248,0.251610965,-0.001960720,0.000202074,-0.001411957,1.168461323,0.158218876,9.720453262
1784246959.553905,0.015316995,-0.119378984,0.251609743,-0.001568573,0.000004372,-0.001294983,1.173102736,0.132733136,9.704602242
1784246959.555906,0.015317705,-0.119378895,0.251608998,-0.000812077,-0.000055286,-0.001118291,1.153055072,0.145880967,9.719014168
1784246959.557903,0.015307869,-0.119376749,0.251605451,-0.001144006,0.000163096,-0.001043673,1.153067470,0.147599697,9.729335785
1784246959.559904,0.015300959,-0.119377665,0.251595289,-0.002073040,0.000189032,-0.001550754,1.165719628,0.153405279,9.709210396
1784246959.561914,0.015303268,-0.119383924,0.251592517,-0.001978182,-0.000340149,-0.001958088,1.153602004,0.115544856,9.699542046
1784246959.563908,0.015305229,-0.119382776,0.251593322,-0.001221917,-0.000575163,-0.001584980,1.158964753,0.115304157,9.723754883
1784246959.565908,0.015301120,-0.119378582,0.251591474,-0.000935180,-0.000078103,-0.001219612,1.153239965,0.123934679,9.717528343
1784246959.567910,0.015298976,-0.119373888,0.251588911,-0.001030632,0.000522488,-0.001151170,1.152218699,0.114862941,9.734952927
1784246959.569913,0.015294911,-0.119373135,0.251586318,-0.001210896,0.000745437,-0.001138786,1.173736572,0.148777679,9.715465546
1784246959.571913,0.015299000,-0.119379386,0.251584232,-0.000896622,0.000309184,-0.001150443,1.159840941,0.150690526,9.723533630
1784246959.573912,0.015304687,-0.119382225,0.251582801,-0.000001277,-0.000249796,-0.001159221,1.176462412,0.154277340,9.756300926
1784246959.575933,0.015304922,-0.119385332,0.251586527,0.000379911,-0.000548745,-0.000732199,1.195556402,0.135428786,9.726161003
1784246959.577947,0.015306387,-0.119385287,0.251589149,0.000405899,-0.000567703,-0.000113529,1.166701555,0.124982081,9.735033035
1784246959.579952,0.015306145,-0.119381860,0.251595050,0.000447045,-0.000168658,0.000483915,1.161871791,0.132365316,9.713555336
1784246959.581928,0.015309751,-0.119380124,0.251592457,0.000677584,0.000194201,0.000540779,1.166785836,0.130510241,9.713548660
1784246959.583929,0.015313267,-0.119381033,0.251589209,0.001024571,0.000154608,-0.000069069,1.162989140,0.114737682,9.733170509
1784246959.585921,0.015313112,-0.119377501,0.251587957,0.001133427,0.000216647,-0.000404749,1.180022478,0.113165796,9.734520912
1784246959.587934,0.015316507,-0.119378775,0.251590014,0.001247821,0.000241251,-0.000288311,1.178621769,0.145480126,9.729347229
1784246959.589927,0.015320974,-0.119379908,0.251596481,0.001508200,0.000020177,0.000300913,1.166660905,0.157793909,9.720448494
1784246959.591938,0.015327295,-0.119381770,0.251597911,0.001823594,-0.000231892,0.000675694,1.185608983,0.168087274,9.751018524
1784246959.593928,0.015333036,-0.119382784,0.251598358,0.002090512,-0.000413377,0.000533598,1.184846520,0.142111316,9.750851631
1784246959.595935,0.015331171,-0.119385041,0.251599163,0.001905878,-0.000487502,0.000429803,1.170179605,0.153134778,9.739251137
1784246959.597932,0.015330805,-0.119388044,0.251596719,0.001336258,-0.000679918,0.000208313,1.155147672,0.134529203,9.736428261
1784246959.599933,0.015337618,-0.119384028,0.251597643,0.001395777,-0.000428893,-0.000004262,1.173006892,0.125086010,9.709035873
1784246959.601939,0.015340186,-0.119377889,0.251600534,0.001734642,0.000396768,0.000169862,1.171523571,0.114294961,9.717035294
1784246959.603938,0.015339752,-0.119385757,0.251602620,0.001502319,0.000192571,0.000435874,1.150434375,0.115778700,9.735406876
1784246959.605935,0.015334014,-0.119395159,0.251601428,0.000868940,-0.001119800,0.000405819,1.168687344,0.140650421,9.733341217
1784246959.607938,0.015333463,-0.119397722,0.251602679,0.000393479,-0.001715382,0.000331755,1.172830582,0.149532497,9.736989021
1784246959.609943,0.015337583,-0.119400404,0.251607537,0.000576629,-0.001599093,0.000624691,1.172639966,0.172244340,9.756862640
1784246959.611943,0.015341915,-0.119397007,0.251608521,0.000967972,-0.001084847,0.000786740,1.169039488,0.170177698,9.738911629
1784246959.613947,0.015341247,-0.119394764,0.251609027,0.000895592,-0.000380834,0.000653332,1.154671669,0.131888509,9.730582237
1784246959.615952,0.015340686,-0.119390249,0.251610249,0.000661983,0.000133761,0.000591972,1.170385361,0.132973939,9.738673210
1784246959.617947,0.015343980,-0.119385675,0.251611531,0.000764702,0.000667577,0.000566642,1.167682886,0.131712258,9.731938362
1784246959.619956,0.015354863,-0.119387791,0.251611561,0.001522647,0.000654105,0.000384568,1.155162334,0.133833587,9.708178520
1784246959.621955,0.015362150,-0.119389869,0.251612842,0.002430432,0.000082702,0.000213261,1.163175344,0.129580826,9.724747658
1784246959.623955,0.015367808,-0.119395338,0.251611322,0.002727753,-0.000563292,0.000032452,1.134472847,0.169679984,9.745151520
1784246959.625954,0.015375533,-0.119393066,0.251610398,0.002748119,-0.000815010,-0.000224720,1.149807215,0.175778210,9.742068291
1784246959.628031,0.015379867,-0.119388655,0.251618505,0.002750720,-0.000318265,0.000241567,1.185782313,0.181208551,9.732721329
1784246959.629958,0.015382377,-0.119387403,0.251625836,0.002589877,0.000167815,0.001159344,1.152953267,0.175372660,9.730411530
1784246959.631969,0.015393204,-0.119386695,0.251625896,0.002724475,0.000270758,0.001249278,1.144788384,0.167889431,9.726319313
1784246959.633964,0.015401161,-0.119388878,0.251630098,0.003164110,0.000109629,0.001061296,1.164554358,0.169034392,9.718725204
1784246959.636014,0.015408628,-0.119386874,0.251632482,0.003303542,0.000029089,0.001104788,1.156992316,0.174110591,9.711576462
1784246959.637982,0.015410796,-0.119382054,0.251634121,0.002994664,0.000443597,0.001012094,1.157686353,0.158309162,9.727167130
1784246959.639976,0.015414584,-0.119378068,0.251637876,0.002626704,0.000926432,0.001053658,1.158054948,0.189586937,9.738576889
1784246959.641975,0.015425507,-0.119382359,0.251633972,0.002713243,0.000538928,0.000665190,1.171553969,0.192146733,9.732330322
1784246959.643969,0.015428705,-0.119385906,0.251630872,0.002681320,-0.000261550,-0.000072137,1.175117016,0.153084233,9.737462044
1784246959.645973,0.015425161,-0.119380981,0.251638293,0.001977587,-0.000050590,0.000242505,1.145828485,0.141950861,9.717638016
1784246959.647975,0.015436054,-0.119379751,0.251642942,0.002046082,0.000436043,0.000925793,1.139219284,0.151911303,9.715003014
1784246959.649971,0.015451713,-0.119380340,0.251643568,0.003322367,0.000367109,0.000809388,1.153965235,0.185181335,9.735406876
1784246959.651981,0.015459427,-0.119383462,0.251645446,0.003958916,-0.000075044,0.000577525,1.171029687,0.186287671,9.738119125
1784246959.653978,0.015466046,-0.119389541,0.251647025,0.003821577,-0.000769535,0.000550000,1.166189075,0.194395140,9.740857124
1784246959.655981,0.015475631,-0.119391665,0.251653194,0.003722782,-0.001097257,0.000819771,1.149547458,0.191052794,9.736784935
1784246959.657988,0.015481342,-0.119385727,0.251652330,0.003569578,-0.000524162,0.000858225,1.175596833,0.155756712,9.738825798
1784246959.659987,0.015486817,-0.119382627,0.251659691,0.003407220,0.000235311,0.000978322,1.166481495,0.178161412,9.691884041
1784246959.661990,0.015492547,-0.119381629,0.251668453,0.003321005,0.000550258,0.001714399,1.136945009,0.186044902,9.707599640
1784246959.663986,0.015495037,-0.119376421,0.251665324,0.002971944,0.000912981,0.001564943,1.158268094,0.168269828,9.711540222
1784246959.665984,0.015497756,-0.119373605,0.251665711,0.002484513,0.001237053,0.000914474,1.171789169,0.171811417,9.693195343
1784246959.667986,0.015504450,-0.119370528,0.251660883,0.002399402,0.001327117,0.000295816,1.166920662,0.216885984,9.727104187
1784246959.669989,0.015511032,-0.119371705,0.251656651,0.002569943,0.001086337,-0.000499193,1.142308950,0.184597075,9.712526321
1784246959.671989,0.015518753,-0.119372375,0.251657605,0.002653557,0.000584950,-0.000683089,1.162652731,0.160514355,9.723151207
1784246959.673996,0.015517707,-0.119371496,0.251658857,0.002244924,0.000366095,-0.000383742,1.150172591,0.203787073,9.709070206
1784246959.675991,0.015527908,-0.119371518,0.251660854,0.002128292,0.000240376,-0.000111041,1.145960689,0.190310955,9.721532822
1784246959.677991,0.015540536,-0.119371563,0.251662195,0.002965048,0.000085520,-0.000019579,1.125478029,0.166792780,9.726295471
1784246959.679994,0.015544697,-0.119368888,0.251664907,0.003324256,0.000244954,0.000120376,1.151478052,0.165048629,9.735722542
1784246959.682003,0.015550958,-0.119366080,0.251668274,0.003134449,0.000454747,0.000420706,1.168232679,0.176578313,9.722363472
1784246959.684001,0.015551134,-0.119365491,0.251670539,0.002723427,0.000466527,0.000638274,1.138202548,0.181274593,9.746126175
1784246959.685999,0.015552470,-0.119360007,0.251670718,0.001974164,0.000642948,0.000634524,1.142827392,0.192841828,9.749342918
1784246959.688006,0.015558346,-0.119360738,0.251670152,0.001789510,0.000679019,0.000397178,1.155026793,0.198217928,9.727421761
1784246959.690000,0.015565012,-0.119362056,0.251671761,0.002157423,0.000357672,0.000259238,1.190247297,0.215325847,9.715459824
1784246959.692005,0.015571753,-0.119359024,0.251673877,0.002284426,0.000501862,0.000359204,1.155556321,0.204118356,9.715803146
1784246959.694002,0.015570108,-0.119355492,0.251675934,0.001819780,0.000936342,0.000523237,1.140734911,0.239353359,9.702116013
1784246959.696006,0.015572983,-0.119354539,0.251680374,0.001187449,0.000876825,0.000838742,1.146043897,0.197452903,9.725165367
1784246959.698007,0.015573474,-0.119352356,0.251671374,0.000781696,0.000729531,0.000309916,1.170431852,0.174173042,9.741628647
1784246959.700015,0.015578375,-0.119350061,0.251665860,0.000815418,0.000821096,-0.000795770,1.165920019,0.172413245,9.745199203
1784246959.702011,0.015583064,-0.119351678,0.251667976,0.001161141,0.000645921,-0.000880015,1.170350313,0.167450428,9.742033958
1784246959.704012,0.015579977,-0.119349949,0.251668483,0.000923336,0.000484711,-0.000473005,1.166607618,0.190504000,9.720210075
1784246959.706011,0.015582317,-0.119348370,0.251666456,0.000499934,0.000587509,-0.000428398,1.163890362,0.186694443,9.693731308
1784246959.708024,0.015585661,-0.119342580,0.251660794,0.000575210,0.000931125,-0.000863143,1.177758098,0.185372293,9.728705406
1784246959.710019,0.015590368,-0.119336851,0.251657128,0.000886430,0.001449555,-0.001322364,1.176900148,0.188532218,9.726932526
1784246959.712025,0.015597930,-0.119336590,0.251656830,0.001326550,0.001570833,-0.001315006,1.153510213,0.221916094,9.736987114
1784246959.714021,0.015598186,-0.119338132,0.251660377,0.001405618,0.001172599,-0.000789238,1.137547851,0.200224459,9.728762627
1784246959.716022,0.015604473,-0.119335100,0.251661420,0.001353897,0.000829008,-0.000298383,1.122060895,0.182790473,9.751051903
1784246959.718023,0.015606816,-0.119334944,0.251659065,0.001408784,0.000688249,-0.000355234,1.150118589,0.199714109,9.714873314
1784246959.720027,0.015606287,-0.119328208,0.251658827,0.001127565,0.000967487,-0.000449188,1.160242796,0.185472503,9.746174812
1784246959.722034,0.015607165,-0.119324513,0.251652867,0.000672450,0.001390926,-0.000733427,1.165789485,0.198032260,9.734155655
1784246959.724034,0.015610595,-0.119321778,0.251652807,0.000609213,0.001426627,-0.000959636,1.157587171,0.186199799,9.711654663
1784246959.726031,0.015610931,-0.119317137,0.251658887,0.000652367,0.001518689,-0.000311587,1.166193008,0.194426939,9.736374855
1784246959.728037,0.015605403,-0.119313955,0.251666337,0.000140426,0.001624071,0.000737519,1.157645106,0.192331344,9.731422424
1784246959.730035,0.015603092,-0.119317271,0.251666635,-0.000363814,0.001182604,0.001119597,1.154397011,0.183015287,9.724184990
1784246959.732037,0.015602080,-0.119316213,0.251664788,-0.000569016,0.000665246,0.000747239,1.152703643,0.192753509,9.743970871
1784246959.734034,0.015609533,-0.119315162,0.251666784,-0.000046340,0.000586874,0.000514815,1.146660209,0.212144017,9.737365723
1784246959.736039,0.015612294,-0.119311899,0.251664400,0.000444199,0.000636924,0.000292112,1.124058247,0.199361116,9.748469353
1784246959.738047,0.015605043,-0.119310431,0.251665980,-0.000192832,0.000701555,0.000218711,1.120452881,0.198066413,9.748009682
1784246959.740047,0.015599077,-0.119315252,0.251663178,-0.001041681,0.000284697,0.000180095,1.144741654,0.200653553,9.718460083
1784246959.742052,0.015594177,-0.119317584,0.251663059,-0.001664087,-0.000414253,0.000041444,1.151847839,0.195525900,9.733677864
1784246959.744043,0.015590306,-0.119310714,0.251659513,-0.001982196,-0.000132482,-0.000127147,1.164767146,0.187330857,9.728705406
1784246959.746048,0.015591800,-0.119305871,0.251654416,-0.001808412,0.000700819,-0.000642960,1.142206073,0.178922638,9.754632950
1784246959.748050,0.015584853,-0.119306467,0.251653314,-0.001868541,0.000804690,-0.000823255,1.129857063,0.194962576,9.726479530
1784246959.750054,0.015584989,-0.119306944,0.251655817,-0.001808983,0.000516161,-0.000451012,1.154197574,0.166040435,9.717350960
1784246959.752053,0.015588274,-0.119303152,0.251658797,-0.001094604,0.000531509,0.000021055,1.148348570,0.164774477,9.716889381
1784246959.754053,0.015583601,-0.119303159,0.251654506,-0.000952658,0.000567315,-0.000050704,1.150506973,0.159211189,9.739272118
1784246959.756058,0.015579508,-0.119303033,0.251648337,-0.001411485,0.000314906,-0.000665031,1.115669608,0.171875432,9.722283363
1784246959.758055,0.015570774,-0.119304672,0.251648664,-0.001982761,0.000023487,-0.000770554,1.120105386,0.166550532,9.707010269
1784246959.760058,0.015562280,-0.119306378,0.251651376,-0.002581439,-0.000208714,-0.000216013,1.142098546,0.167536393,9.717798233
1784246959.762066,0.015560688,-0.119307972,0.251648754,-0.002565562,-0.000435192,-0.000064362,1.137471199,0.193540022,9.723787308
1784246959.764060,0.015565935,-0.119308934,0.251648843,-0.001648751,-0.000554170,-0.000241021,1.166790605,0.204511613,9.703264236
1784246959.766075,0.015573753,-0.119307078,0.251645446,-0.000561269,-0.000320719,-0.000475575,1.157509089,0.179505795,9.708024979
1784246959.768067,0.015571807,-0.119306669,0.251645267,-0.000256302,-0.000055623,-0.000610587,1.145351768,0.176083714,9.707094193
1784246959.770102,0.015568366,-0.119311102,0.251648068,-0.000528326,-0.000310143,-0.000224822,1.138230801,0.181093737,9.708464622
1784246959.772079,0.015567581,-0.119314849,0.251650542,-0.000694861,-0.000874988,0.000234658,1.133173466,0.209276170,9.723884583
1784246959.774076,0.015563961,-0.119312219,0.251646638,-0.000882344,-0.000815013,0.000120611,1.159042597,0.195151314,9.710369110
1784246959.776074,0.015566799,-0.119311303,0.251642346,-0.000868632,-0.000355971,-0.000447317,1.148930788,0.175548419,9.712923050
1784246959.778104,0.015565266,-0.119311623,0.251638740,-0.000716153,-0.000221091,-0.000861932,1.144317508,0.164883465,9.708815575
1784246959.780081,0.015563572,-0.119311653,0.251634300,-0.000804768,-0.000192787,-0.001146630,1.174319744,0.159154534,9.704323769
1784246959.782079,0.015563764,-0.119311765,0.251630485,-0.000832927,-0.000154450,-0.001371925,1.160734177,0.149833962,9.716356277
1784246959.784078,0.015558106,-0.119313776,0.251634121,-0.001055067,-0.000253884,-0.000959422,1.163185954,0.168470129,9.737549782
1784246959.786077,0.015555953,-0.119311787,0.251639366,-0.001288975,-0.000167424,-0.000026334,1.166616321,0.155414209,9.740159035
1784246959.788081,0.015558244,-0.119305663,0.251642436,-0.000928771,0.000448479,0.000549024,1.141444325,0.151736319,9.735628128
1784246959.790082,0.015556597,-0.119311385,0.251643568,-0.000599203,0.000358229,0.000676441,1.139875412,0.134594306,9.754795074
1784246959.792086,0.015556256,-0.119313464,0.251642585,-0.000492667,-0.000406496,0.000512432,1.148757339,0.164047316,9.755439758
1784246959.794083,0.015557350,-0.119316772,0.251641393,-0.000250154,-0.000802269,0.000213595,1.129014134,0.161866874,9.719542503
1784246959.796086,0.015553535,-0.119311012,0.251640469,-0.000392762,-0.000511389,0.000034719,1.133733392,0.183095321,9.750167847
1784246959.798085,0.015549416,-0.119304866,0.251645416,-0.000798068,0.000348968,0.000358839,1.166574717,0.151033163,9.726233482
1784246959.800111,0.015545886,-0.119305044,0.251647174,-0.001042839,0.000668091,0.000773841,1.158416271,0.144410878,9.727079391
1784246959.802107,0.015543051,-0.119305588,0.251642823,-0.001224310,0.000472497,0.000441963,1.161521912,0.141257167,9.723923683
1784246959.804097,0.015539277,-0.119305380,0.251639992,-0.001409815,0.000350463,-0.000106659,1.172472119,0.155924156,9.720890045
1784246959.806095,0.015534364,-0.119304515,0.251640469,-0.001653475,0.000332628,-0.000163116,1.137953877,0.159454882,9.727604866
1784246959.808098,0.015527545,-0.119306453,0.251640469,-0.002013852,0.000176284,0.000011288,1.151560783,0.172187418,9.739803314
1784246959.810096,0.015520053,-0.119304866,0.251637489,-0.002456266,0.000101656,-0.000078349,1.170220613,0.157105997,9.747795105
1784246959.812104,0.015516361,-0.119304143,0.251631498,-0.002595165,0.000191963,-0.000575795,1.176195502,0.166661024,9.716479301
1784246959.814104,0.015510263,-0.119304948,0.251627833,-0.002607578,0.000095133,-0.000993099,1.188774347,0.168241024,9.723674774
1784246959.816106,0.015505888,-0.119308308,0.251627117,-0.002728154,-0.000174520,-0.000919300,1.177138209,0.136306062,9.762015343
1784246959.818109,0.015506579,-0.119311064,0.251624852,-0.002347380,-0.000502228,-0.000829421,1.184972644,0.150806978,9.724904060
1784246959.820113,0.015505190,-0.119312599,0.251628757,-0.001744239,-0.000656136,-0.000492178,1.163443089,0.151956603,9.728029251
1784246959.822110,0.015504354,-0.119315334,0.251633316,-0.001306182,-0.000789119,0.000222729,1.165651083,0.150027916,9.743263245
1784246959.824112,0.015498728,-0.119319677,0.251634270,-0.001296164,-0.001079658,0.000579495,1.123756647,0.137101501,9.746276855
1784246959.826109,0.015495189,-0.119322568,0.251626730,-0.001541626,-0.001427711,0.000043954,1.136421561,0.145439059,9.748135567
1784246959.828110,0.015492178,-0.119321205,0.251619995,-0.001606571,-0.001301188,-0.000885438,1.167423725,0.146993175,9.725758553
1784246959.830112,0.015488722,-0.119324639,0.251625240,-0.001618444,-0.001088717,-0.000695276,1.135212302,0.153831199,9.704252243
1784246959.832115,0.015485363,-0.119325049,0.251625925,-0.001594295,-0.001135378,-0.000052365,1.138668180,0.142192289,9.696558952
1784246959.834114,0.015486811,-0.119329847,0.251619428,-0.001340844,-0.001274817,-0.000414607,1.144314647,0.165671274,9.724063873
1784246959.836118,0.015489209,-0.119331107,0.251620203,-0.000813198,-0.001433871,-0.000714376,1.179871917,0.176215798,9.752410889
1784246959.838124,0.015480829,-0.119324572,0.251622677,-0.001018699,-0.000773620,-0.000243398,1.163266063,0.137996688,9.738250732
1784246959.840126,0.015479493,-0.119323500,0.251615345,-0.001435801,-0.000052552,-0.000422886,1.168535233,0.128507793,9.739987373
1784246959.842123,0.015482939,-0.119326152,0.251614928,-0.000860244,-0.000200832,-0.000862876,1.168143630,0.132611945,9.730599403
1784246959.844126,0.015481175,-0.119331323,0.251614958,-0.000410498,-0.000726262,-0.000680232,1.161786318,0.164014146,9.736622810
1784246959.846125,0.015469731,-0.119337454,0.251610816,-0.001260097,-0.001311664,-0.000658487,1.139554262,0.143308461,9.727054596
1784246959.848132,0.015460227,-0.119339310,0.251608640,-0.002418845,-0.001515760,-0.000732525,1.160642147,0.106248811,9.734009743
1784246959.850127,0.015454955,-0.119336680,0.251605064,-0.002804326,-0.001057304,-0.000800400,1.174587727,0.109190412,9.736283302
1784246959.852138,0.015454226,-0.119339257,0.251598418,-0.002324858,-0.000729087,-0.001245811,1.168816805,0.147751421,9.679586411
1784246959.854131,0.015456441,-0.119341187,0.251594692,-0.001472490,-0.000800953,-0.001643428,1.137377620,0.148322016,9.719014168
1784246959.856134,0.015451229,-0.119344443,0.251595259,-0.001252352,-0.001014298,-0.001393068,1.160172105,0.142055869,9.740067482
1784246959.858134,0.015446184,-0.119342349,0.251592010,-0.001577419,-0.000895048,-0.001119665,1.155010223,0.159280911,9.721343040
1784246959.860142,0.015447048,-0.119339667,0.251595408,-0.001429645,-0.000327230,-0.000772788,1.158006549,0.147968516,9.731585503
1784246959.862143,0.015449709,-0.119340144,0.251597583,-0.000782300,-0.000101273,-0.000213400,1.163972974,0.155429989,9.679633141
1784246959.864141,0.015452469,-0.119345933,0.251600087,-0.000190226,-0.000513497,0.000118879,1.171245933,0.128619567,9.719368935
1784246959.866140,0.015448876,-0.119352728,0.251601696,-0.000070739,-0.001224417,0.000358157,1.176859617,0.148190916,9.729362488
1784246959.868148,0.015444385,-0.119354278,0.251595855,-0.000540013,-0.001463230,0.000027690,1.178866386,0.128461406,9.727893829
1784246959.870146,0.015449396,-0.119351774,0.251593798,-0.000422330,-0.001010304,-0.000515711,1.168049097,0.125380993,9.739520073
1784246959.872153,0.015460134,-0.119350396,0.251598775,0.000821384,-0.000480500,-0.000312909,1.198064685,0.120973676,9.738174438
1784246959.874151,0.015464572,-0.119352125,0.251596659,0.001688138,-0.000382108,-0.000166834,1.160822511,0.120640799,9.726031303
1784246959.876152,0.015466729,-0.119355962,0.251591682,0.001702007,-0.000696101,-0.000659260,1.160309792,0.152463883,9.725338936
1784246959.878151,0.015466795,-0.119354144,0.251586139,0.001389694,-0.000686158,-0.001215740,1.148167014,0.148752794,9.701991081
1784246959.880155,0.015465189,-0.119356431,0.251587331,0.000873381,-0.000534575,-0.001169489,1.154910207,0.151601985,9.730260849
1784246959.882159,0.015464949,-0.119356856,0.251585186,0.000494544,-0.000623548,-0.000902237,1.155555844,0.128935233,9.703215599
1784246959.884157,0.015468606,-0.119358674,0.251587272,0.000580498,-0.000656379,-0.000688742,1.164923668,0.125948682,9.728310585
1784246959.886157,0.015467918,-0.119365729,0.251588076,0.000692976,-0.001042036,-0.000336579,1.168956876,0.125452176,9.727864265
1784246959.888160,0.015464946,-0.119371913,0.251586884,0.000301930,-0.001622873,-0.000244921,1.177861214,0.119923495,9.733217239
1784246959.890160,0.015464623,-0.119372986,0.251593053,0.000038361,-0.001670467,0.000185014,1.174142241,0.144784778,9.709163666
1784246959.892170,0.015463128,-0.119370498,0.251600832,0.000068349,-0.001117101,0.001079504,1.199384689,0.153882727,9.707452774
1784246959.894166,0.015471010,-0.119366281,0.251603991,0.000619046,-0.000358038,0.001463176,1.168001056,0.159349099,9.751394272
1784246959.896168,0.015473787,-0.119371943,0.251601100,0.001160400,-0.000378016,0.000999584,1.139798045,0.164279968,9.738843918
1784246959.898169,0.015474262,-0.119378872,0.251595795,0.000987144,-0.001157316,0.000151248,1.170476079,0.177359626,9.734475136
1784246959.900171,0.015476980,-0.119380884,0.251594514,0.000881672,-0.001455927,-0.000356912,1.189151764,0.161592156,9.712872505
1784246959.902196,0.015476033,-0.119380698,0.251599193,0.000735938,-0.001208946,-0.000038654,1.170229435,0.154339135,9.695771217
1784246959.904205,0.015468800,-0.119379312,0.251605034,0.000016264,-0.000791849,0.000753146,1.167443633,0.149175763,9.733842850
1784246959.906226,0.015472176,-0.119379275,0.251605779,-0.000182236,-0.000525628,0.001023392,1.181431651,0.155694693,9.737036705
1784246959.908209,0.015482076,-0.119381428,0.251596272,0.000703774,-0.000587595,0.000047107,1.189807773,0.142655000,9.728443146
1784246959.910213,0.015494987,-0.119377926,0.251593351,0.001949742,-0.000349233,-0.000986506,1.162957549,0.149646237,9.738774300
1784246959.912196,0.015506955,-0.119376644,0.251595438,0.003075663,0.000105396,-0.000979393,1.164658427,0.141181931,9.728857994
1784246959.914185,0.015507214,-0.119374439,0.251597106,0.003080342,0.000352840,-0.000560782,1.173096299,0.171082303,9.730402946
1784246959.916188,0.015500254,-0.119375356,0.251596481,0.001762054,0.000367471,-0.000276904,1.173634052,0.139862970,9.709130287
1784246959.918187,0.015500140,-0.119375400,0.251592219,0.000728579,0.000219360,-0.000468241,1.192312479,0.127361223,9.732382774
1784246959.920196,0.015509901,-0.119373232,0.251590818,0.001135402,0.000298167,-0.000803316,1.161623240,0.148945630,9.713662148
1784246959.922235,0.015515393,-0.119370222,0.251590312,0.001903497,0.000547264,-0.000847027,1.190528035,0.164650202,9.721410751
1784246959.924217,0.015514088,-0.119364783,0.251589686,0.001723786,0.000951804,-0.000734387,1.157512069,0.143964872,9.728420258
1784246959.926201,0.015513462,-0.119363651,0.251592666,0.001175179,0.001141245,-0.000364751,1.154917836,0.151662409,9.721742630
1784246959.928204,0.015511481,-0.119364679,0.251597047,0.000770021,0.000845227,0.000245082,1.160938025,0.166437149,9.712429047
1784246959.930202,0.015509840,-0.119364634,0.251600951,0.000383518,0.000558125,0.000761003,1.179730058,0.163342565,9.735739708
1784246959.932209,0.015503627,-0.119362779,0.251602799,-0.000274288,0.000641794,0.001011517,1.170454860,0.174354270,9.716073990
1784246959.934217,0.015501977,-0.119358033,0.251598448,-0.000821149,0.001012893,0.000636028,1.177528858,0.164921865,9.706605911
1784246959.936214,0.015511275,-0.119361386,0.251602173,-0.000139256,0.000857605,0.000361833,1.196945548,0.174961865,9.708930016
1784246959.938221,0.015514682,-0.119366214,0.251608223,0.000782970,0.000105824,0.000827120,1.194424152,0.154155463,9.741073608
1784246959.940226,0.015514179,-0.119364262,0.251609534,0.000825753,-0.000110518,0.001076664,1.194929481,0.158648416,9.738413811
1784246959.942237,0.015519556,-0.119363151,0.251607716,0.000863681,0.000239104,0.000719736,1.172162890,0.167567357,9.722309113
1784246959.944254,0.015523289,-0.119361319,0.251600742,0.001109501,0.000477100,-0.000135738,1.163610578,0.165033326,9.716009140
1784246959.946229,0.015532506,-0.119364172,0.251593798,0.001556197,0.000235935,-0.001139914,1.172285318,0.176234409,9.700396538
1784246959.948227,0.015538786,-0.119368732,0.251587331,0.002057681,-0.000373741,-0.001855532,1.153030753,0.180036709,9.704438210
1784246959.950224,0.015542489,-0.119366884,0.251591563,0.002153805,-0.000459866,-0.001581006,1.161840796,0.166873604,9.712431908
1784246959.952226,0.015547787,-0.119366191,0.251595080,0.002189531,-0.000202458,-0.000693319,1.194215059,0.174694285,9.751518250
1784246959.954222,0.015555202,-0.119368538,0.251594961,0.002430171,-0.000303248,-0.000372845,1.156007171,0.206155285,9.743612289
1784246959.956270,0.015558644,-0.119364791,0.251592129,0.002300642,-0.000226956,-0.000536174,1.140407205,0.177697137,9.741172791
1784246959.958234,0.015558998,-0.119357407,0.251586884,0.001689693,0.000483935,-0.000941156,1.173269510,0.185823694,9.736325264
1784246959.960226,0.015562510,-0.119350195,0.251588732,0.001464585,0.001339655,-0.000945121,1.158176661,0.198654279,9.723391533
1784246959.962234,0.015566902,-0.119348027,0.251588732,0.001440313,0.001581446,-0.000606929,1.161920190,0.175200462,9.738489151
1784246959.964230,0.015568463,-0.119349152,0.251583815,0.001236641,0.001186275,-0.000797281,1.183355212,0.167629912,9.756393433
1784246959.966232,0.015569855,-0.119349636,0.251583487,0.001050593,0.000754921,-0.000954862,1.160691977,0.182633072,9.703564644
1784246959.968230,0.015565239,-0.119346395,0.251587838,0.000573260,0.000746261,-0.000400582,1.176662087,0.168821946,9.726804733
1784246959.970236,0.015559521,-0.119342983,0.251596868,-0.000170943,0.001010009,0.000690049,1.178524256,0.174600199,9.729983330
1784246959.972236,0.015558893,-0.119344078,0.251595944,-0.000533721,0.000986546,0.001104558,1.186318874,0.187569618,9.719312668
1784246959.974235,0.015565904,-0.119343489,0.251594931,-0.000020867,0.000767842,0.000630407,1.166449428,0.178313687,9.733580589
1784246959.976248,0.015574496,-0.119342417,0.251600415,0.000985040,0.000635486,0.000647184,1.174359918,0.200709358,9.720282555
1784246959.978271,0.015574698,-0.119338259,0.251609355,0.001339159,0.000790712,0.001382279,1.148602486,0.187042177,9.735412598
1784246959.980292,0.015574068,-0.119336650,0.251613885,0.001055531,0.000981628,0.001917361,1.171349049,0.174317345,9.719661713
1784246959.982287,0.015575232,-0.119335942,0.251614809,0.000811326,0.000872446,0.001764165,1.181068182,0.199231565,9.727003098
1784246959.984248,0.015573443,-0.119336024,0.251613289,0.000506461,0.000670718,0.001254541,1.175726295,0.203687966,9.740028381
1784246959.986248,0.015581331,-0.119333543,0.251615316,0.000593387,0.000682201,0.000920763,1.171500683,0.187266871,9.725573540
1784246959.988269,0.015591334,-0.119331419,0.251616329,0.001471862,0.000843327,0.000751962,1.160545230,0.210148513,9.740953445
1784246959.990254,0.015593645,-0.119333595,0.251611829,0.001873891,0.000605834,0.000211446,1.159704089,0.177472174,9.738052368
1784246959.992251,0.015592294,-0.119333237,0.251610935,0.001261088,0.000280706,-0.000202653,1.154227376,0.169922650,9.738447189
1784246959.994259,0.015589904,-0.119329527,0.251616925,0.000582340,0.000455803,0.000237731,1.147593737,0.178069025,9.738942146
1784246959.996252,0.015589544,-0.119323500,0.251621783,0.000198952,0.000903824,0.000939596,1.178136110,0.178729787,9.717006683
1784246959.998257,0.015592122,-0.119325422,0.251617283,0.000170260,0.000836056,0.000708974,1.158622384,0.197813034,9.714868546
1784246960.000257,0.015597139,-0.119326137,0.251617104,0.000598397,0.000424298,0.000142524,1.124740243,0.179817393,9.723238945
1784246960.002262,0.015595580,-0.119322285,0.251621664,0.000639876,0.000339259,0.000380504,1.124680877,0.212886423,9.735555649
1784246960.004261,0.015599498,-0.119322613,0.251628339,0.000651275,0.000310633,0.001023373,1.128249645,0.209838226,9.716710091
1784246960.006263,0.015610937,-0.119318806,0.251629412,0.001256740,0.000267224,0.001185638,1.173220515,0.180978790,9.724638939
1784246960.008262,0.015616099,-0.119318239,0.251630306,0.001735514,0.000291629,0.000907079,1.117609024,0.182314515,9.699934959
1784246960.010270,0.015614526,-0.119312398,0.251636356,0.001562745,0.000654582,0.001102386,1.154047847,0.191506848,9.727825165
1784246960.012305,0.015611559,-0.119307451,0.251641899,0.000751644,0.001175932,0.001642147,1.186741829,0.184930161,9.711674690
1784246960.014276,0.015607971,-0.119307101,0.251644224,-0.000005478,0.001180979,0.001798332,1.178353429,0.195844531,9.704114914
1784246960.016298,0.015609876,-0.119305544,0.251639634,-0.000303939,0.001024361,0.001189548,1.184159279,0.194340050,9.716216087
1784246960.018278,0.015610321,-0.119304679,0.251641899,-0.000249698,0.000943558,0.000710568,1.165144920,0.218275130,9.723972321
1784246960.020284,0.015605881,-0.119304113,0.251646757,-0.000393558,0.000792581,0.001028749,1.134773135,0.193933457,9.736341476
1784246960.022283,0.015598237,-0.119302318,0.251646757,-0.001294109,0.000655510,0.001204970,1.128066182,0.196637496,9.746215820
1784246960.024278,0.015595823,-0.119305000,0.251654536,-0.001790210,0.000336834,0.001512898,1.126003385,0.209034666,9.707736969
1784246960.026278,0.015604197,-0.119308308,0.251655698,-0.001052738,-0.000284816,0.001682640,1.145840645,0.179636210,9.710703850
1784246960.028277,0.015608570,-0.119305134,0.251647919,-0.000183327,-0.000356528,0.000707787,1.170401573,0.170691103,9.727258682
1784246960.030303,0.015610095,-0.119305395,0.251641154,0.000147406,-0.000078422,-0.000506474,1.165975451,0.176092327,9.731772423
1784246960.032292,0.015608648,-0.119311742,0.251645505,0.000072670,-0.000453708,-0.000528286,1.167773128,0.177714899,9.752408028
1784246960.034296,0.015605915,-0.119311355,0.251647383,-0.000199617,-0.000674516,0.000069534,1.151028275,0.164641410,9.730788231
1784246960.036344,0.015608175,-0.119305342,0.251647592,-0.000226725,-0.000115370,0.000202441,1.133846521,0.192499310,9.750677109
1784246960.038317,0.015609073,-0.119301826,0.251648575,-0.000008886,0.000505945,0.000210574,1.117789865,0.199143112,9.727390289
1784246960.040308,0.015606086,-0.119303837,0.251650125,-0.000126950,0.000474799,0.000339726,1.123069525,0.189736888,9.717473984
1784246960.042311,0.015599404,-0.119303681,0.251643658,-0.000921927,0.000012320,0.000015044,1.120328307,0.187356696,9.742114067
1784246960.044306,0.015590219,-0.119301453,0.251647949,-0.001896250,-0.000033781,0.000014182,1.157383323,0.244776577,9.728618622
1784246960.046307,0.015586168,-0.119303860,0.251652479,-0.002535496,-0.000072663,0.000753761,1.157212019,0.194081232,9.738156319
1784246960.048321,0.015590098,-0.119300820,0.251650572,-0.002167687,-0.000052766,0.000770627,1.137589097,0.167419016,9.742449760
1784246960.050313,0.015595709,-0.119297773,0.251648068,-0.000971779,0.000369357,0.000190949,1.143313527,0.158785313,9.749124527
1784246960.052310,0.015599228,-0.119295850,0.251637846,-0.000191768,0.000483293,-0.000792170,1.141601920,0.165543601,9.746926308
1784246960.054308,0.015594106,-0.119299099,0.251636952,-0.000333789,0.000140754,-0.001313291,1.138682008,0.181917116,9.717885971
1784246960.056311,0.015584727,-0.119303152,0.251638740,-0.001347567,-0.000482704,-0.000757757,1.141935349,0.191681147,9.725125313
1784246960.058324,0.015580358,-0.119310133,0.251637906,-0.002034585,-0.001189430,-0.000354383,1.175424933,0.177804768,9.725963593
1784246960.060319,0.015576533,-0.119311742,0.251633197,-0.002079142,-0.001454101,-0.000563861,1.158681154,0.167171031,9.739331245
1784246960.062336,0.015572282,-0.119313195,0.251625746,-0.002142971,-0.001301821,-0.001165886,1.161493778,0.177814484,9.749713898
1784246960.064337,0.015562913,-0.119312726,0.251627058,-0.002514424,-0.001046156,-0.001152869,1.161963344,0.177974075,9.726401329
1784246960.066341,0.015559824,-0.119307801,0.251626760,-0.002800181,-0.000484748,-0.000653922,1.161867499,0.170326933,9.730834961
1784246960.068325,0.015553994,-0.119306602,0.251627713,-0.002772605,-0.000023980,-0.000343936,1.139194012,0.188490883,9.737655640
1784246960.070324,0.015550687,-0.119306147,0.251625478,-0.002646033,0.000095433,-0.000263565,1.135439277,0.173859075,9.722762108
1784246960.072325,0.015553786,-0.119304240,0.251620144,-0.002066463,0.000000166,-0.000692656,1.142368317,0.154771522,9.748202324
1784246960.074329,0.015554632,-0.119307764,0.251616508,-0.001375682,-0.000341344,-0.001132695,1.130968213,0.139290676,9.740469933
1784246960.076321,0.015551068,-0.119303338,0.251616716,-0.001161360,-0.000463565,-0.001037822,1.134915352,0.168813258,9.740215302
1784246960.078384,0.015537572,-0.119300932,0.251614571,-0.001959667,-0.000147657,-0.000751346,1.151305199,0.185873657,9.705819130
1784246960.080329,0.015533004,-0.119300634,0.251609504,-0.002703308,0.000068331,-0.000885972,1.145221353,0.165732905,9.713753700
1784246960.082330,0.015538563,-0.119299635,0.251606911,-0.001998890,0.000051354,-0.001163555,1.156165242,0.180755645,9.723724365
1784246960.084362,0.015539012,-0.119300827,0.251606762,-0.001107733,-0.000056856,-0.001076876,1.151121736,0.173889622,9.753264427
1784246960.086337,0.015544702,-0.119303867,0.251609147,-0.000461893,-0.000371743,-0.000672067,1.159442425,0.155144081,9.728045464
1784246960.088330,0.015542264,-0.119302623,0.251606494,-0.000206256,-0.000435938,-0.000521004,1.155899644,0.160422519,9.748250961
1784246960.090336,0.015538144,-0.119303092,0.251599878,-0.000667435,-0.000274412,-0.000952378,1.165610790,0.180409536,9.692346573
1784246960.092334,0.015531424,-0.119305462,0.251596153,-0.001422104,-0.000422103,-0.001286826,1.165293813,0.156022489,9.719986916
1784246960.094337,0.015524261,-0.119309947,0.251592040,-0.002156068,-0.000798914,-0.001333690,1.174704790,0.190562680,9.697352409
1784246960.096343,0.015519426,-0.119317137,0.251597404,-0.002496041,-0.001331158,-0.000773246,1.164239287,0.181036517,9.732698441
1784246960.098339,0.015513135,-0.119319148,0.251599610,-0.002634281,-0.001542625,0.000051378,1.160124183,0.174403816,9.727722168
1784246960.100363,0.015514122,-0.119322419,0.251597106,-0.002279232,-0.001481947,0.000058319,1.137120366,0.165239006,9.734813690
1784246960.102357,0.015514815,-0.119321570,0.251597226,-0.001584252,-0.001261240,-0.000133518,1.126845837,0.168974012,9.732137680
1784246960.104348,0.015513649,-0.119324245,0.251592547,-0.001239986,-0.001061936,-0.000399674,1.152944088,0.174489468,9.728611946
1784246960.106344,0.015510897,-0.119325161,0.251588911,-0.001315854,-0.001073888,-0.000811583,1.147922277,0.165768355,9.703893661
1784246960.108349,0.015507298,-0.119325854,0.251591206,-0.001479211,-0.000940424,-0.000623635,1.175908566,0.143322527,9.722605705
1784246960.110346,0.015502707,-0.119322509,0.251590997,-0.001613155,-0.000502489,-0.000250169,1.153458714,0.143492326,9.739173889
1784246960.112346,0.015500251,-0.119323105,0.251589179,-0.001638110,-0.000218469,-0.000267011,1.158510566,0.115672015,9.735861778
1784246960.114357,0.015495202,-0.119327307,0.251583189,-0.001733348,-0.000530385,-0.000661381,1.130636334,0.111139067,9.730425835
1784246960.116349,0.015494367,-0.119325101,0.251584321,-0.001603316,-0.000670873,-0.000767358,1.127010465,0.145651996,9.735126495
1784246960.118353,0.015492501,-0.119326517,0.251583368,-0.001254073,-0.000579852,-0.000536198,1.112061739,0.170561641,9.724512100
1784246960.120363,0.015486695,-0.119330436,0.251588047,-0.001401016,-0.000780975,-0.000081099,1.160711169,0.184405848,9.706266403
1784246960.122363,0.015482609,-0.119332001,0.251598686,-0.001654652,-0.000930890,0.001062515,1.125483394,0.168050796,9.738408089
1784246960.124356,0.015483079,-0.119328745,0.251600921,-0.001435893,-0.000557147,0.001682336,1.150426626,0.151281476,9.720391273
1784246960.126363,0.015484664,-0.119327106,0.251596600,-0.000928511,-0.000102109,0.001070384,1.178398490,0.163474292,9.719599724
1784246960.128447,0.015483029,-0.119332321,0.251597792,-0.000709631,-0.000344635,0.000566990,1.180360198,0.141768530,9.744120598
1784246960.130459,0.015480595,-0.119338892,0.251601011,-0.000756008,-0.001044391,0.000738586,1.186666965,0.141885176,9.716330528
1784246960.132467,0.015476139,-0.119342469,0.251604557,-0.000933302,-0.001409722,0.001044686,1.186421156,0.121707849,9.718892097
1784246960.134424,0.015472779,-0.119341210,0.251602888,-0.001164500,-0.001150793,0.000945508,1.155215144,0.139520362,9.727494240
1784246960.136416,0.015471308,-0.119337052,0.251597315,-0.001145696,-0.000510220,0.000226208,1.176791072,0.144003436,9.751303673
1784246960.138390,0.015469230,-0.119341277,0.251591206,-0.001081115,-0.000420219,-0.000606693,1.175417185,0.139747739,9.722134590
1784246960.140390,0.015475972,-0.119343542,0.251587749,-0.000550433,-0.000756406,-0.001124663,1.164067268,0.166304693,9.725431442
1784246960.142428,0.015478905,-0.119344696,0.251589358,0.000198722,-0.000810220,-0.001012960,1.166305065,0.165421337,9.719599724
1784246960.144418,0.015476060,-0.119344510,0.251587749,0.000112974,-0.000681839,-0.000733085,1.152847290,0.166429326,9.728112221
1784246960.146392,0.015485732,-0.119343996,0.251582474,0.000450097,-0.000535415,-0.001051771,1.149710417,0.131748274,9.759269714
1784246960.148403,0.015489878,-0.119347215,0.251576006,0.001127968,-0.000665073,-0.001663649,1.142959952,0.126815096,9.709017754
1784246960.150395,0.015492815,-0.119350553,0.251575053,0.001239350,-0.000937500,-0.001768010,1.175764680,0.132460177,9.738226891
1784246960.152392,0.015492138,-0.119358316,0.251572847,0.001171998,-0.001424227,-0.001538998,1.157069802,0.146858320,9.763408661
1784246960.154397,0.015488915,-0.119370714,0.251575321,0.000735945,-0.002388374,-0.001087347,1.170703769,0.158587217,9.727630615
1784246960.156392,0.015489142,-0.119377054,0.251576543,0.000274016,-0.003000743,-0.000505326,1.147622228,0.143945098,9.749034882
1784246960.158391,0.015496231,-0.119376853,0.251581460,0.000651784,-0.002591030,-0.000003220,1.148250818,0.158734769,9.747336388
1784246960.160389,0.015500215,-0.119378351,0.251580924,0.001256312,-0.001971128,0.000202407,1.147880673,0.162197366,9.702076912
1784246960.162396,0.015496863,-0.119378045,0.251579434,0.000919533,-0.001563050,0.000007743,1.158203125,0.163704395,9.723614693
1784246960.164400,0.015500169,-0.119373620,0.251576155,0.000606598,-0.000867951,-0.000312477,1.178885460,0.167014092,9.725002289
1784246960.166398,0.015504108,-0.119375885,0.251572520,0.000829920,-0.000473222,-0.000744229,1.159749389,0.144291878,9.741426468
1784246960.168400,0.015507740,-0.119380698,0.251565754,0.000986350,-0.000814133,-0.001296941,1.138524055,0.131733373,9.718460083
1784246960.170400,0.015509017,-0.119383350,0.251558721,0.000937529,-0.001113396,-0.001916750,1.148907661,0.136560500,9.714018822
1784246960.172411,0.015504236,-0.119380966,0.251562893,0.000507376,-0.000864043,-0.001572017,1.155965924,0.127814174,9.734143257
1784246960.174401,0.015500886,-0.119376630,0.251565784,-0.000037448,-0.000198235,-0.000614533,1.159408689,0.152040139,9.723542213
1784246960.176408,0.015503453,-0.119378403,0.251570880,-0.000057452,0.000030637,0.000100208,1.159858108,0.153660908,9.746866226
1784246960.178409,0.015509104,-0.119383521,0.251565158,0.000464900,-0.000452409,-0.000031743,1.161507487,0.139522538,9.715841293
1784246960.180412,0.015511005,-0.119385026,0.251555234,0.000721304,-0.000796766,-0.001138925,1.180162549,0.123592906,9.717103004
1784246960.182413,0.015507810,-0.119387314,0.251550764,0.000421941,-0.000827280,-0.001800625,1.183756590,0.123988517,9.718006134
1784246960.184411,0.015511445,-0.119391240,0.251552790,0.000417341,-0.001000675,-0.001488890,1.148072481,0.105552025,9.728613853
1784246960.186412,0.015507053,-0.119393237,0.251553297,0.000394109,-0.001218876,-0.000919354,1.179316401,0.130088508,9.750321388
1784246960.188411,0.015507776,-0.119395405,0.251559585,0.000215098,-0.001251973,-0.000197128,1.186356068,0.153922275,9.725373268
1784246960.190419,0.015509376,-0.119393945,0.251559019,0.000359649,-0.000954399,0.000222924,1.171129704,0.157186717,9.734793663
1784246960.192419,0.015512849,-0.119394250,0.251555711,0.000558516,-0.000590539,-0.000138021,1.175008774,0.144528463,9.743683815
1784246960.194419,0.015516479,-0.119398370,0.251555622,0.000843886,-0.000705080,-0.000384806,1.172474027,0.156750098,9.730758667
1784246960.196415,0.015520034,-0.119403377,0.251563460,0.001100875,-0.001099686,0.000191934,1.136479139,0.147920519,9.714078903
1784246960.198422,0.015520439,-0.119401559,0.251570493,0.001128644,-0.000974551,0.001119580,1.154739857,0.136882856,9.721199036
1784246960.200420,0.015526688,-0.119399793,0.251564890,0.001282169,-0.000465091,0.000859208,1.151788950,0.153418183,9.732509613
1784246960.202427,0.015531908,-0.119399965,0.251565963,0.001628135,-0.000273815,0.000235656,1.164202690,0.139510319,9.712706566
1784246960.204425,0.015529471,-0.119402759,0.251567304,0.001351251,-0.000438076,0.000320427,1.167452931,0.149248913,9.723531723
1784246960.206427,0.015534231,-0.119404152,0.251562506,0.001077792,-0.000590528,-0.000015254,1.199520469,0.167111725,9.737128258
1784246960.208435,0.015537621,-0.119403303,0.251564831,0.001279010,-0.000454027,-0.000239727,1.227291226,0.161913529,9.725016594
1784246960.210433,0.015539392,-0.119403109,0.251560509,0.001263727,-0.000263179,-0.000348846,1.190660357,0.139857158,9.742323875
1784246960.212433,0.015537911,-0.119408175,0.251559347,0.000924134,-0.000443374,-0.000629208,1.169038773,0.132581398,9.733289719
1784246960.214438,0.015543219,-0.119407058,0.251561373,0.000965838,-0.000508201,-0.000435480,1.159322858,0.145689204,9.734710693
1784246960.216435,0.015550800,-0.119401999,0.251561314,0.001599660,0.000068040,-0.000289918,1.174302816,0.159020990,9.723153114
1784246960.218439,0.015559304,-0.119399458,0.251568079,0.002314978,0.000591314,0.000105930,1.173058510,0.166326433,9.706163406
1784246960.220445,0.015561836,-0.119400933,0.251579344,0.002576142,0.000520356,0.001203701,1.172062874,0.159888417,9.731226921
1784246960.222447,0.015566347,-0.119402885,0.251589239,0.002474181,0.000254275,0.002254482,1.149324656,0.171463326,9.719622612
1784246960.224448,0.015566175,-0.119407862,0.251591653,0.002145453,-0.000185266,0.002440534,1.167620778,0.161922172,9.705232620
1784246960.226460,0.015568204,-0.119412482,0.251586169,0.001597943,-0.000783934,0.001563128,1.178183317,0.184372038,9.742596626
1784246960.228447,0.015567992,-0.119412810,0.251582682,0.001149119,-0.000911097,0.000528450,1.199769497,0.188531175,9.748922348
1784246960.230447,0.015566844,-0.119412124,0.251593620,0.000805478,-0.000632433,0.000895951,1.180996060,0.193798795,9.735039711
1784246960.232448,0.015571091,-0.119415335,0.251598865,0.000715296,-0.000542692,0.001740954,1.165788531,0.197619274,9.729221344
1784246960.234459,0.015574882,-0.119416878,0.251599908,0.000902648,-0.000637722,0.001652017,1.173235774,0.181909695,9.719712257
1784246960.236579,0.015574750,-0.119421691,0.251601398,0.000857929,-0.000793553,0.001351783,1.168065548,0.162291244,9.715547562
1784246960.238591,0.015578017,-0.119425870,0.251602083,0.000787288,-0.001086546,0.001113954,1.173236370,0.144729525,9.718576431
1784246960.240487,0.015583034,-0.119426325,0.251601875,0.001136107,-0.001105316,0.000779952,1.174350500,0.162639633,9.718244553
1784246960.242481,0.015593283,-0.119428277,0.251598001,0.001772702,-0.000940909,0.000177199,1.185608029,0.166864231,9.733973503
1784246960.244498,0.015595482,-0.119426861,0.251599103,0.002056766,-0.000693872,-0.000153166,1.188617349,0.156870276,9.747811317
1784246960.246474,0.015598569,-0.119425558,0.251605392,0.001885572,-0.000208383,0.000347392,1.177212238,0.178127989,9.740314484
1784246960.248479,0.015601299,-0.119422145,0.251611114,0.001833998,0.000286614,0.001019828,1.154843688,0.146213725,9.732019424
1784246960.250494,0.015608753,-0.119419664,0.251608849,0.002050623,0.000612238,0.000896138,1.163545370,0.160464689,9.728531837
1784246960.252475,0.015612866,-0.119417407,0.251605570,0.002208154,0.000691225,0.000191387,1.178105235,0.178891569,9.757357597
1784246960.254497,0.015610658,-0.119418167,0.251609623,0.001722741,0.000536149,0.000181297,1.179383636,0.172666475,9.748352051
1784246960.256477,0.015610050,-0.119419910,0.251613855,0.001095071,0.000278818,0.000714260,1.182510853,0.171708047,9.751487732
1784246960.258517,0.015615860,-0.119414553,0.251614332,0.001149263,0.000501704,0.000798736,1.172286749,0.179487422,9.747043610
1784246960.260493,0.015623458,-0.119408377,0.251613438,0.001737385,0.001146682,0.000448645,1.192718029,0.198141649,9.733284950
1784246960.262491,0.015630491,-0.119409077,0.251618087,0.002126048,0.001345212,0.000480861,1.153363705,0.171417952,9.718729019
1784246960.264484,0.015630808,-0.119408548,0.251623541,0.001970016,0.001113603,0.000988936,1.152385592,0.164306581,9.712406158
1784246960.266481,0.015633322,-0.119410008,0.251625359,0.001619173,0.000714443,0.001194935,1.160480857,0.203966081,9.728360176
1784246960.268487,0.015637640,-0.119410709,0.251624286,0.001580694,0.000334199,0.000875503,1.177297473,0.184879199,9.735875130
1784246960.270486,0.015638601,-0.119410016,0.251622289,0.001482903,0.000239490,0.000390980,1.179219604,0.194371477,9.720695496
1784246960.272485,0.015634537,-0.119414456,0.251625568,0.000721398,-0.000040376,0.000414826,1.169872165,0.200760484,9.721175194
1784246960.274489,0.015635680,-0.119418219,0.251621693,0.000163640,-0.000549434,0.000304130,1.171649456,0.199384093,9.722512245
1784246960.276496,0.015639609,-0.119419575,0.251619816,0.000266684,-0.000725233,-0.000189807,1.168567538,0.203942075,9.717158318
1784246960.278503,0.015639294,-0.119418420,0.251621693,0.000290262,-0.000513195,-0.000150682,1.162511706,0.148054093,9.711415291
1784246960.280496,0.015638284,-0.119410075,0.251621127,0.000133207,0.000272459,-0.000010629,1.166427493,0.175708562,9.721907616
1784246960.282505,0.015641080,-0.119402759,0.251620054,0.000114391,0.001277078,-0.000122663,1.165378332,0.161553830,9.698055267
1784246960.284501,0.015642276,-0.119402975,0.251622647,0.000274762,0.001429864,-0.000008659,1.167996049,0.194874138,9.733240128
1784246960.286508,0.015647169,-0.119407929,0.251624048,0.000490513,0.000693142,0.000232291,1.138421297,0.198808685,9.737272263
1784246960.288503,0.015642645,-0.119412087,0.251626968,0.000264922,-0.000109855,0.000477935,1.172885418,0.191201806,9.736807823
1784246960.290509,0.015640786,-0.119404688,0.251622319,-0.000251125,0.000139250,0.000281885,1.146912813,0.196405604,9.744887352
1784246960.292517,0.015644481,-0.119397923,0.251627982,-0.000167973,0.000998966,0.000269935,1.144917369,0.179850832,9.745225906
1784246960.294518,0.015648518,-0.119397290,0.251627147,0.000321111,0.001169331,0.000475992,1.172444940,0.192894459,9.751613617
1784246960.296507,0.015655803,-0.119402379,0.251625896,0.000815414,0.000574974,0.000134920,1.186294794,0.184948638,9.709880829
1784246960.298510,0.015650740,-0.119400695,0.251629353,0.000596882,0.000218013,0.000246993,1.155109406,0.166953474,9.713322639
1784246960.300513,0.015644882,-0.119394623,0.251626581,-0.000295727,0.000685958,0.000313476,1.152122617,0.181989118,9.746592522
1784246960.302512,0.015639959,-0.119389623,0.251619101,-0.001141560,0.001177382,-0.000359637,1.187852740,0.204434991,9.739150047
1784246960.304511,0.015639465,-0.119386293,0.251618326,-0.001380241,0.001350763,-0.000760162,1.171401739,0.179597467,9.733144760
1784246960.306516,0.015646961,-0.119384617,0.251613706,-0.000669616,0.001358983,-0.000960934,1.163192511,0.169737712,9.748316765
1784246960.308509,0.015646361,-0.119381838,0.251613677,-0.000152454,0.001328647,-0.001053242,1.159174442,0.169948459,9.725898743
1784246960.310515,0.015646150,-0.119381301,0.251619101,-0.000122119,0.001197861,-0.000399571,1.171038747,0.185547560,9.716146469
1784246960.312521,0.015651038,-0.119390920,0.251621574,0.000126086,0.000307297,0.000216964,1.165752649,0.193282738,9.709017754
1784246960.314522,0.015648892,-0.119389072,0.251616538,0.000092379,-0.000262954,-0.000019769,1.167685509,0.208127975,9.760225296
1784246960.316518,0.015654992,-0.119384788,0.251613766,0.000096519,0.000223489,-0.000548192,1.156701565,0.187520191,9.716593742
1784246960.318521,0.015664335,-0.119383529,0.251606911,0.000858999,0.000534999,-0.001148797,1.141389489,0.183220163,9.718793869
1784246960.320524,0.015662614,-0.119377278,0.251605451,0.001072010,0.000890844,-0.001459794,1.129360676,0.154976383,9.742811203
1784246960.322532,0.015662652,-0.119366609,0.251610011,0.000669364,0.001582867,-0.000836392,1.187885046,0.169126168,9.726818085
1784246960.324530,0.015667813,-0.119357921,0.251616031,0.000901205,0.002258561,0.000070835,1.166000366,0.177506164,9.721919060
1784246960.326534,0.015667038,-0.119354084,0.251624376,0.000958243,0.002498354,0.001000933,1.154326916,0.177598402,9.729978561
1784246960.328524,0.015668843,-0.119353563,0.251628637,0.000758938,0.002118217,0.001584767,1.142467380,0.161227390,9.722241402
1784246960.330533,0.015672920,-0.119351551,0.251625419,0.000957886,0.001716678,0.001179553,1.151026964,0.164225265,9.726303101
1784246960.332533,0.015674161,-0.119348995,0.251621515,0.000960460,0.001519012,0.000343107,1.159044266,0.197190776,9.738626480
1784246960.334536,0.015667666,-0.119351238,0.251623154,0.000289282,0.001091739,0.000146309,1.145319343,0.213822752,9.755756378
1784246960.336534,0.015665283,-0.119348273,0.251627892,-0.000527391,0.000708139,0.000633833,1.133239269,0.213847995,9.710911751
1784246960.338541,0.015665390,-0.119343288,0.251624495,-0.000718364,0.000912750,0.000595188,1.160621881,0.178432927,9.727299690
1784246960.340548,0.015663829,-0.119340435,0.251621425,-0.000673983,0.001189254,0.000008431,1.153545499,0.187036157,9.727348328
1784246960.342546,0.015662804,-0.119334370,0.251620770,-0.000877203,0.001391897,-0.000202761,1.133236885,0.177455634,9.725026131
1784246960.344540,0.015663831,-0.119331658,0.251622856,-0.000809076,0.001535197,-0.000031360,1.146868229,0.192405730,9.740376472
1784246960.346542,0.015664069,-0.119331986,0.251626849,-0.000620229,0.001204227,0.000398180,1.133338094,0.185954168,9.726873398
1784246960.348550,0.015661668,-0.119331926,0.251619399,-0.000790672,0.000772213,0.000095781,1.146909475,0.195163444,9.730532646
1784246960.350553,0.015663248,-0.119331770,0.251616687,-0.000713622,0.000566310,-0.000610987,1.156206250,0.185536981,9.744377136
1784246960.352550,0.015670242,-0.119333297,0.251614749,-0.000171887,0.000247092,-0.000801099,1.163781524,0.180565715,9.736731529
1784246960.354556,0.015669091,-0.119335234,0.251612276,0.000040322,-0.000127703,-0.000904572,1.144101620,0.184558168,9.714769363
1784246960.356559,0.015668582,-0.119331397,0.251610070,-0.000289805,-0.000071746,-0.000942784,1.134675264,0.183840185,9.706686020
1784246960.358565,0.015667707,-0.119328268,0.251605779,-0.000526291,0.000311736,-0.001095069,1.158323407,0.174379140,9.734445572
1784246960.360595,0.015667468,-0.119324259,0.251609504,-0.000463085,0.000712229,-0.000825869,1.160545826,0.172158286,9.727707863
1784246960.362582,0.015665518,-0.119320951,0.251611173,-0.000490161,0.001020227,-0.000214594,1.145625234,0.163347453,9.733465195
1784246960.364570,0.015663119,-0.119318053,0.251606077,-0.000726422,0.001160480,-0.000347758,1.143896937,0.168758690,9.731704712
1784246960.366573,0.015659614,-0.119316638,0.251607716,-0.001026304,0.001155925,-0.000427512,1.163295627,0.176225409,9.717873573
1784246960.368569,0.015652409,-0.119319268,0.251604170,-0.001556555,0.000777101,-0.000343785,1.132841229,0.181121394,9.714287758
1784246960.370573,0.015648270,-0.119318701,0.251597792,-0.001978667,0.000414842,-0.000824882,1.120371819,0.189726830,9.723747253
1784246960.372575,0.015649306,-0.119309224,0.251594275,-0.001880694,0.000848871,-0.001224980,1.118699312,0.160826936,9.695316315
1784246960.374575,0.015650412,-0.119304925,0.251595825,-0.001391744,0.001427553,-0.001026922,1.142961740,0.128044501,9.725166321
1784246960.376583,0.015652878,-0.119308762,0.251599014,-0.000629692,0.001014232,-0.000471453,1.150932193,0.155777588,9.717282295
1784246960.378613,0.015650356,-0.119314030,0.251603037,-0.000298993,0.000066363,0.000127809,1.156346083,0.159587651,9.738831520
1784246960.380580,0.015649775,-0.119312227,0.251600593,-0.000414165,-0.000186226,0.000223256,1.165890455,0.167317525,9.705714226
1784246960.382580,0.015648687,-0.119312502,0.251594990,-0.000565116,-0.000023542,-0.000355253,1.135504842,0.142461106,9.727493286
1784246960.384619,0.015644377,-0.119311631,0.251598805,-0.000875626,0.000040369,-0.000326018,1.147440195,0.164293483,9.723160744
1784246960.386588,0.015641117,-0.119306199,0.251603454,-0.001153861,0.000443156,0.000401202,1.135036469,0.177470788,9.719647408
1784246960.388579,0.015639395,-0.119302541,0.251599520,-0.001244824,0.000918691,0.000390612,1.177972674,0.165688023,9.724096298
1784246960.390583,0.015632905,-0.119303390,0.251599044,-0.001495585,0.000855113,0.000055387,1.154019713,0.152884230,9.740579605
1784246960.392591,0.015622404,-0.119307853,0.251605779,-0.002192437,0.000251496,0.000601537,1.155259609,0.143923670,9.738281250
1784246960.394589,0.015619090,-0.119310513,0.251612157,-0.002431108,-0.000301784,0.001432440,1.157268405,0.162610099,9.753198624
1784246960.396588,0.015625330,-0.119309857,0.251615554,-0.001497566,-0.000372586,0.001680318,1.157317758,0.164621353,9.722275734
1784246960.398591,0.015628874,-0.119312443,0.251616299,-0.000400624,-0.000426002,0.001428304,1.138531446,0.170193836,9.728569984
1784246960.400594,0.015623819,-0.119311415,0.251613051,-0.000413826,-0.000417944,0.000882649,1.144689918,0.161033273,9.745554924
1784246960.402594,0.015616138,-0.119312577,0.251606941,-0.001255003,-0.000472890,0.000122448,1.160938382,0.168873727,9.747861862
1784246960.404596,0.015613207,-0.119313933,0.251603693,-0.001724869,-0.000676340,-0.000450085,1.164824963,0.155059189,9.730292320
1784246960.406600,0.015615317,-0.119313493,0.251600534,-0.001323635,-0.000599244,-0.000756421,1.149264574,0.166125923,9.714207649
1784246960.408594,0.015613857,-0.119317636,0.251591533,-0.000978292,-0.000739208,-0.001377733,1.138509750,0.167185292,9.710618019
1784246960.410599,0.015609508,-0.119325377,0.251588315,-0.001202559,-0.001358348,-0.001779834,1.151200175,0.140566602,9.713599205
1784246960.412599,0.015606985,-0.119327821,0.251592547,-0.001367132,-0.001724910,-0.001169701,1.156966329,0.135503858,9.722089767
1784246960.414601,0.015598805,-0.119328260,0.251597255,-0.001681782,-0.001489300,-0.000163128,1.163026452,0.155053571,9.734324455
1784246960.416599,0.015592916,-0.119330674,0.251602948,-0.002075189,-0.001424660,0.000695655,1.159173965,0.169135183,9.714237213
1784246960.418616,0.015590644,-0.119335786,0.251600564,-0.002020525,-0.001702025,0.000796502,1.153556347,0.187932074,9.727354050
1784246960.420612,0.015589308,-0.119338669,0.251592904,-0.001796482,-0.001792318,-0.000067811,1.150521040,0.160942659,9.747801781
1784246960.422615,0.015587183,-0.119332641,0.251590014,-0.001625970,-0.001191983,-0.000729835,1.148775578,0.163786963,9.728987694
1784246960.424640,0.015582748,-0.119331524,0.251594961,-0.001609195,-0.000470811,-0.000344214,1.152269959,0.156100184,9.732528687
1784246960.426615,0.015581802,-0.119334206,0.251596242,-0.001458840,-0.000488571,0.000204677,1.144814849,0.170529515,9.733060837
1784246960.428645,0.015585972,-0.119336456,0.251594126,-0.000826239,-0.000737818,0.000062498,1.156293750,0.154717281,9.730730057
1784246960.430624,0.015586250,-0.119332984,0.251597911,-0.000288401,-0.000453240,0.000124108,1.150236011,0.135593280,9.721635818
1784246960.432619,0.015582978,-0.119330056,0.251602590,-0.000255691,0.000096831,0.000675781,1.146309495,0.145442933,9.729764938
1784246960.434620,0.015585572,-0.119335569,0.251604229,-0.000093464,-0.000114918,0.000912009,1.138597846,0.138395563,9.726572990
1784246960.436621,0.015586721,-0.119340464,0.251607060,0.000252492,-0.000972714,0.000936127,1.126052618,0.140322924,9.730159760
1784246960.438625,0.015587254,-0.119336635,0.251606673,0.000348929,-0.000965184,0.000830611,1.150409102,0.153574944,9.775998116
1784246960.440628,0.015585974,-0.119339459,0.251596332,0.000117232,-0.000645143,-0.000111471,1.136145234,0.159773201,9.749124527
1784246960.442630,0.015581989,-0.119343728,0.251588315,-0.000437112,-0.001052932,-0.001271298,1.155483484,0.163522646,9.754098892
1784246960.444626,0.015575884,-0.119345888,0.251586825,-0.001094991,-0.001297140,-0.001484516,1.164032698,0.162790969,9.715545654
1784246960.446628,0.015577901,-0.119348049,0.251580685,-0.001102217,-0.001282583,-0.001565814,1.159663916,0.135107264,9.709983826
1784246960.448637,0.015578454,-0.119352482,0.251570582,-0.000728049,-0.001434190,-0.002257152,1.165932655,0.135328472,9.730614662
1784246960.450640,0.015576079,-0.119355239,0.251569271,-0.000745610,-0.001543718,-0.002400205,1.137792826,0.145215511,9.714062691
1784246960.452636,0.015582792,-0.119354919,0.251570970,-0.000196800,-0.001364114,-0.001761955,1.134328842,0.157600909,9.742832184
1784246960.454641,0.015591895,-0.119358547,0.251567811,0.000962269,-0.001294131,-0.001512751,1.154048204,0.155540198,9.745079041
1784246960.456637,0.015590786,-0.119362719,0.251567721,0.001225502,-0.001488539,-0.001387655,1.138524413,0.133763328,9.748063087
1784246960.458662,0.015587617,-0.119368032,0.251574814,0.000672932,-0.001735003,-0.000504011,1.126755834,0.160967916,9.724016190
1784246960.460644,0.015585718,-0.119370066,0.251576245,0.000217647,-0.001752652,0.000248844,1.170883894,0.173382655,9.725931168
1784246960.462651,0.015590048,-0.119372152,0.251577735,0.000269414,-0.001514998,0.000366052,1.164154768,0.173885047,9.730411530
1784246960.464641,0.015594258,-0.119375944,0.251572937,0.000668476,-0.001468882,-0.000018044,1.156840086,0.161561295,9.712392807
1784246960.466642,0.015588340,-0.119379230,0.251576424,0.000324332,-0.001573764,-0.000083012,1.145049810,0.152220950,9.723978043
1784246960.468640,0.015584907,-0.119378529,0.251575261,-0.000411939,-0.001340828,0.000177492,1.172235489,0.137440100,9.737360001
1784246960.470645,0.015590893,-0.119376138,0.251567423,-0.000200680,-0.000777904,-0.000495841,1.164807558,0.152085632,9.707407951
1784246960.472647,0.015591056,-0.119372718,0.251564115,0.000209300,-0.000135484,-0.001165175,1.135087132,0.145548522,9.735134125
1784246960.474653,0.015589936,-0.119374931,0.251561284,0.000069792,0.000028815,-0.001258025,1.173815012,0.155881464,9.724477768
1784246960.476677,0.015591224,-0.119383164,0.251555800,-0.000004299,-0.000678869,-0.001474647,1.144116879,0.149115801,9.721267700
1784246960.478655,0.015595118,-0.119388245,0.251549095,0.000247669,-0.001393819,-0.001939958,1.148688078,0.157016680,9.736117363
1784246960.480650,0.015594346,-0.119388588,0.251545817,0.000309932,-0.001392363,-0.002113750,1.144931912,0.141968727,9.716738701
1784246960.482656,0.015592406,-0.119385108,0.251549929,0.000069807,-0.000871007,-0.001461682,1.148249745,0.157105103,9.724460602
1784246960.484654,0.015593697,-0.119382143,0.251552045,0.000077381,-0.000261285,-0.000642102,1.147265315,0.149539411,9.719032288
1784246960.486657,0.015595286,-0.119377084,0.251548767,0.000248040,0.000292315,-0.000567677,1.153497815,0.183417484,9.732255936
1784246960.488659,0.015594580,-0.119379751,0.251542598,0.000170506,0.000305121,-0.001057510,1.169843078,0.162131533,9.734826088
1784246960.490668,0.015595332,-0.119380683,0.251542211,0.000073682,-0.000028317,-0.001217752,1.176924825,0.154379666,9.741059303
1784246960.492662,0.015597876,-0.119386859,0.251546055,0.000324867,-0.000476667,-0.000685254,1.158461928,0.147203580,9.712303162
1784246960.494663,0.015603023,-0.119387634,0.251546919,0.000815267,-0.000788934,-0.000242612,1.151448727,0.160359547,9.702068329
1784246960.496661,0.015607547,-0.119386114,0.251549870,0.001267961,-0.000567023,0.000010297,1.154486418,0.153831646,9.732515335
1784246960.498672,0.015607813,-0.119386554,0.251551270,0.001272337,-0.000384298,0.000266345,1.174783826,0.161702991,9.723171234
1784246960.500666,0.015611826,-0.119391471,0.251550168,0.001217651,-0.000644882,0.000179812,1.183104873,0.180954039,9.710300446
1784246960.502670,0.015615500,-0.119398288,0.251552820,0.001300100,-0.001214460,0.000187058,1.171696544,0.167029738,9.735754967
1784246960.504667,0.015616941,-0.119398370,0.251549035,0.001165191,-0.001302307,0.000031384,1.174152255,0.184074402,9.728693962
1784246960.506672,0.015629413,-0.119401686,0.251548201,0.001631034,-0.001100515,-0.000386527,1.180987358,0.153708652,9.702053070
1784246960.508674,0.015634179,-0.119402498,0.251552284,0.002258059,-0.000995712,-0.000185298,1.155012131,0.160916954,9.743322372
1784246960.510674,0.015634853,-0.119400494,0.251550555,0.002030707,-0.000642109,-0.000020196,1.182753682,0.154676601,9.751827240
1784246960.512676,0.015638245,-0.119397163,0.251547247,0.001687801,-0.000163623,-0.000386370,1.180814862,0.141403839,9.731564522
1784246960.514685,0.015640464,-0.119399935,0.251545638,0.001542965,-0.000140168,-0.000654769,1.175078869,0.148325190,9.713669777
1784246960.516678,0.015640968,-0.119402729,0.251544684,0.001288681,-0.000464568,-0.000671915,1.179416776,0.138984159,9.759345055
1784246960.518682,0.015644733,-0.119403481,0.251545936,0.001231118,-0.000559381,-0.000502897,1.172268867,0.176104039,9.718776703
1784246960.520683,0.015645465,-0.119405702,0.251543403,0.001189640,-0.000609793,-0.000487975,1.175306678,0.168359444,9.731284142
1784246960.522684,0.015648341,-0.119407833,0.251539886,0.000996668,-0.000714877,-0.000784625,1.164466619,0.161857471,9.720023155
1784246960.524683,0.015651429,-0.119406968,0.251542479,0.001056521,-0.000579593,-0.000674300,1.197489738,0.183410153,9.717055321
1784246960.526687,0.015648296,-0.119411327,0.251547843,0.000753688,-0.000607283,0.000054682,1.175262332,0.163959309,9.720046997
1784246960.528696,0.015648758,-0.119414650,0.251547426,0.000331521,-0.000912162,0.000403313,1.169801116,0.157747298,9.721347809
1784246960.530689,0.015649267,-0.119419798,0.251546353,0.000295126,-0.001242305,0.000187768,1.167653322,0.165826634,9.723191261
1784246960.532690,0.015652711,-0.119421147,0.251544595,0.000415262,-0.001321734,-0.000076434,1.164410114,0.158575505,9.740625381
1784246960.534694,0.015655676,-0.119413704,0.251548797,0.000710229,-0.000519865,0.000061150,1.185067058,0.159251466,9.734373093
1784246960.536704,0.015660217,-0.119411662,0.251556367,0.001125429,0.000328352,0.000776929,1.164305091,0.186825052,9.737668991
1784246960.538710,0.015663000,-0.119414486,0.251556754,0.001384745,0.000246316,0.001041673,1.166584730,0.188702613,9.721542358
1784246960.540700,0.015665010,-0.119422399,0.251558572,0.001349578,-0.000546784,0.000869059,1.202128887,0.196712002,9.728352547
1784246960.542703,0.015665265,-0.119430415,0.251561284,0.001013601,-0.001356410,0.000940095,1.198763847,0.178366750,9.730922699
1784246960.544705,0.015664000,-0.119428448,0.251562297,0.000541113,-0.001277566,0.000959105,1.179277778,0.163319692,9.739774704
1784246960.546714,0.015672462,-0.119425572,0.251560062,0.000819429,-0.000594324,0.000562237,1.170195103,0.154472277,9.740156174
1784246960.548713,0.015683366,-0.119425245,0.251557946,0.001817239,-0.000211275,-0.000033134,1.151881218,0.163063452,9.762162209
1784246960.550716,0.015685648,-0.119426571,0.251562536,0.002232450,-0.000219954,0.000036498,1.167751670,0.174706385,9.734456062
1784246960.552712,0.015686812,-0.119426094,0.251571983,0.001882572,-0.000170557,0.000952984,1.165585518,0.180615842,9.726420403
1784246960.554717,0.015684346,-0.119422555,0.251574159,0.001287995,0.000193851,0.001495562,1.194131494,0.166739091,9.736222267
1784246960.556712,0.015678408,-0.119419456,0.251571834,0.000316982,0.000721645,0.001151307,1.200656652,0.185196713,9.712139130
1784246960.558718,0.015673395,-0.119414754,0.251570761,-0.000588005,0.001181482,0.000702057,1.196381927,0.165550902,9.710213661
1784246960.560720,0.015677936,-0.119411886,0.251576960,-0.000418166,0.001378546,0.000862730,1.186176896,0.175103053,9.708472252
1784246960.562724,0.015682627,-0.119411141,0.251587123,0.000371481,0.001384724,0.001666041,1.172914863,0.193460688,9.734132767
1784246960.564718,0.015680637,-0.119405970,0.251587778,0.000460930,0.001540448,0.001926382,1.152711272,0.192813918,9.735453606
1784246960.566720,0.015679587,-0.119403861,0.251580715,-0.000069045,0.001559066,0.001013404,1.175623298,0.195176676,9.739974022
1784246960.568719,0.015683899,-0.119404808,0.251579642,-0.000043395,0.001155205,0.000184171,1.190138936,0.170800239,9.739383698
1784246960.570729,0.015688734,-0.119399332,0.251574934,0.000538652,0.001142355,-0.000327195,1.193352222,0.175789312,9.725071907
1784246960.572731,0.015688481,-0.119393706,0.251573235,0.000552887,0.001695388,-0.000697238,1.168960452,0.161854059,9.712406158
1784246960.574730,0.015681032,-0.119386442,0.251576990,-0.000196316,0.002228356,-0.000299375,1.174157619,0.183712289,9.716586113
1784246960.576730,0.015678041,-0.119384609,0.251580805,-0.000891202,0.002291805,0.000385557,1.176239371,0.171464577,9.733994484
1784246960.578734,0.015682058,-0.119384989,0.251588851,-0.000589784,0.001824124,0.001081513,1.148234248,0.156171009,9.729835510
1784246960.580732,0.015686881,-0.119383737,0.251594871,0.000279698,0.001403976,0.001661306,1.151167154,0.174652368,9.708884239
1784246960.582738,0.015692882,-0.119382702,0.251594484,0.000932965,0.001137229,0.001506273,1.154481769,0.152983412,9.725785255
1784246960.584738,0.015692603,-0.119386442,0.251589090,0.000972797,0.000592052,0.000668612,1.172601342,0.166265413,9.715576172
1784246960.586737,0.015689852,-0.119390488,0.251585513,0.000384931,-0.000031557,-0.000088271,1.167137384,0.160437793,9.725845337
1784246960.588736,0.015684867,-0.119383141,0.251584470,-0.000325186,0.000271164,-0.000310950,1.173630953,0.174997285,9.682906151
1784246960.590740,0.015678065,-0.119381532,0.251580179,-0.001074173,0.000800289,-0.000489870,1.159113765,0.202197850,9.727449417
1784246960.592739,0.015675077,-0.119380921,0.251583725,-0.001517717,0.000660792,-0.000316093,1.166793585,0.206967294,9.736006737
1784246960.594743,0.015669115,-0.119376563,0.251586020,-0.001731257,0.000753323,0.000245001,1.187787175,0.198243022,9.727900505
1784246960.596742,0.015669618,-0.119379878,0.251592547,-0.001725707,0.000709893,0.000833908,1.182368994,0.195614725,9.729225159
1784246960.598746,0.015669409,-0.119379416,0.251589060,-0.001380038,0.000407239,0.000828710,1.186758995,0.185876951,9.704506874
1784246960.600776,0.015665364,-0.119372994,0.251582503,-0.001373204,0.000752688,-0.000038800,1.195558071,0.171411321,9.706665039
1784246960.602755,0.015665006,-0.119374067,0.251580536,-0.001440608,0.001022459,-0.000562475,1.193030834,0.186527058,9.727830887
1784246960.604751,0.015666764,-0.119371690,0.251585335,-0.001006035,0.000957354,-0.000222583,1.182093978,0.171964988,9.716071129
1784246960.606755,0.015672093,-0.119368836,0.251584649,-0.000253297,0.001120991,0.000062997,1.165716052,0.155403450,9.743296623
1784246960.608753,0.015667565,-0.119368061,0.251581460,-0.000193269,0.001122458,-0.000217792,1.141196609,0.167512909,9.722727776
1784246960.610755,0.015662018,-0.119366489,0.251577944,-0.000874206,0.000970013,-0.000532661,1.164887667,0.159202129,9.714627266
1784246960.612757,0.015658792,-0.119360372,0.251574695,-0.001276118,0.001200038,-0.000778042,1.153352022,0.170515671,9.719620705
1784246960.614763,0.015652288,-0.119356491,0.251574755,-0.001603919,0.001528429,-0.000703234,1.166123271,0.186176375,9.699559212
1784246960.616759,0.015653441,-0.119346887,0.251573533,-0.001731816,0.002017678,-0.000520805,1.179640174,0.156149760,9.739279747
1784246960.618766,0.015652338,-0.119342297,0.251575649,-0.001444954,0.002423438,-0.000296770,1.172293901,0.178734571,9.726864815
1784246960.620806,0.015657207,-0.119344905,0.251576543,-0.000774905,0.001903541,-0.000047114,1.158618569,0.161004514,9.724495888
1784246960.622800,0.015661623,-0.119343989,0.251578867,0.000035571,0.001233450,0.000115594,1.145467997,0.151163474,9.745941162
1784246960.624790,0.015656186,-0.119343646,0.251583099,-0.000041534,0.000948602,0.000541079,1.158234835,0.165575728,9.712419510
1784246960.626793,0.015656272,-0.119341247,0.251578689,-0.000493476,0.000837904,0.000435758,1.136547446,0.155348256,9.740578651
1784246960.628853,0.015656732,-0.119337089,0.251574546,-0.000493078,0.001009459,-0.000252799,1.158887148,0.146203339,9.726194382
1784246960.630791,0.015655363,-0.119332477,0.251576602,-0.000437447,0.001329174,-0.000319990,1.136262059,0.204365596,9.715785980
1784246960.632804,0.015659979,-0.119327888,0.251572371,-0.000271687,0.001434851,-0.000387499,1.142163634,0.210098445,9.718070984
1784246960.634796,0.015662532,-0.119325288,0.251566261,0.000047770,0.001369241,-0.001014815,1.143174529,0.220304176,9.730242729
1784246960.636789,0.015664373,-0.119322948,0.251560867,-0.000082372,0.001199585,-0.001509168,1.144527674,0.183157668,9.721934319
1784246960.638790,0.015663026,-0.119322248,0.251560181,-0.000396451,0.000949930,-0.001473210,1.151344657,0.189022109,9.704046249
1784246960.640791,0.015662126,-0.119316563,0.251560718,-0.000441473,0.001123737,-0.001065653,1.148536682,0.181253657,9.730444908
1784246960.642794,0.015662286,-0.119314171,0.251553059,-0.000527381,0.001253804,-0.001238164,1.161499977,0.176242024,9.718768120
1784246960.644787,0.015664434,-0.119310878,0.251541615,-0.000481440,0.001172487,-0.002195029,1.164686561,0.141404524,9.697475433
1784246960.646791,0.015663229,-0.119309060,0.251535922,-0.000410753,0.001238066,-0.002764978,1.169398308,0.161762446,9.724512100
1784246960.648792,0.015659966,-0.119305246,0.251538008,-0.000614085,0.001336718,-0.002223555,1.123564124,0.156960621,9.726230621
1784246960.650796,0.015657123,-0.119306751,0.251540631,-0.000820762,0.001135687,-0.001253089,1.129430175,0.160793528,9.743745804
1784246960.652794,0.015652793,-0.119300820,0.251539588,-0.001079323,0.000991621,-0.000744843,1.120537281,0.167627931,9.743779182
1784246960.654796,0.015649423,-0.119292259,0.251543045,-0.001296563,0.001570619,-0.000316672,1.119730711,0.176055282,9.757283211
1784246960.656798,0.015650963,-0.119286887,0.251545221,-0.001130802,0.001897818,0.000175753,1.136799335,0.175979897,9.737124443
1784246960.658815,0.015650127,-0.119289540,0.251551002,-0.000819709,0.001377275,0.000674968,1.156237721,0.186191589,9.715240479
1784246960.660816,0.015646305,-0.119290270,0.251555145,-0.000830842,0.000783643,0.001199535,1.168053150,0.199782640,9.735960960
1784246960.662811,0.015643783,-0.119292267,0.251552105,-0.001217466,0.000340703,0.001021410,1.173782945,0.192406997,9.754750252
1784246960.664852,0.015647478,-0.119291551,0.251547486,-0.001062676,0.000107300,0.000242973,1.150681376,0.173555508,9.738018990
1784246960.666822,0.015652196,-0.119288132,0.251540959,-0.000384622,0.000311039,-0.000628009,1.150665402,0.173024893,9.749671936
1784246960.668812,0.015651144,-0.119284287,0.251540393,-0.000178335,0.000676671,-0.000954877,1.152584791,0.181684852,9.725519180
1784246960.670811,0.015645728,-0.119287871,0.251541883,-0.000558512,0.000513006,-0.000582475,1.141983390,0.158523083,9.725359917
1784246960.672811,0.015644314,-0.119286925,0.251539260,-0.000892716,0.000089184,-0.000439334,1.147209883,0.180613458,9.696814537
1784246960.674814,0.015650894,-0.119286932,0.251541734,-0.000319794,0.000023842,-0.000368507,1.153226137,0.159793213,9.715517044
1784246960.676812,0.015655620,-0.119289480,0.251537174,0.000493998,-0.000188919,-0.000497719,1.160535812,0.171268731,9.726804733
1784246960.678873,0.015649294,-0.119291149,0.251526475,0.000110861,-0.000472625,-0.001370345,1.147841096,0.159859017,9.715959549
1784246960.680820,0.015641291,-0.119296320,0.251529276,-0.000948653,-0.000818532,-0.001412349,1.141004682,0.149788409,9.695264816
1784246960.682829,0.015645292,-0.119294144,0.251529753,-0.000942550,-0.000885013,-0.000772762,1.154032469,0.150959224,9.696182251
1784246960.684829,0.015652036,-0.119291261,0.251522273,-0.000026336,-0.000398319,-0.001114731,1.102431297,0.152427256,9.708695412
1784246960.686833,0.015652746,-0.119290464,0.251520753,0.000404591,-0.000202546,-0.001473423,1.114667654,0.163766414,9.730299950
1784246960.688829,0.015649082,-0.119292334,0.251527905,0.000134102,-0.000366141,-0.000672304,1.140580773,0.152014866,9.697969437
1784246960.690839,0.015640324,-0.119287439,0.251531154,-0.000655840,-0.000049380,0.000309929,1.163756609,0.177531734,9.722365379
1784246960.692831,0.015634747,-0.119281858,0.251540661,-0.001388995,0.000685949,0.001208554,1.145497561,0.188582122,9.713452339
1784246960.694832,0.015634708,-0.119286031,0.251542032,-0.001350702,0.000604701,0.001662096,1.136457324,0.147342190,9.732457161
1784246960.696832,0.015632976,-0.119290762,0.251531124,-0.001183168,-0.000221325,0.000580404,1.132955670,0.154971734,9.736987114
1784246960.698842,0.015632870,-0.119292289,0.251522273,-0.001148113,-0.000655940,-0.000892773,1.147941470,0.167134523,9.700763702
1784246960.700849,0.015636541,-0.119295113,0.251521915,-0.000670055,-0.000783535,-0.001296277,1.147888064,0.163471341,9.711948395
1784246960.702847,0.015626561,-0.119295299,0.251520425,-0.000937296,-0.000819394,-0.001013228,1.164970994,0.166344076,9.718259811
1784246960.704840,0.015618754,-0.119294927,0.251524299,-0.001871804,-0.000623874,-0.000427882,1.161139607,0.145434469,9.704223633
1784246960.706846,0.015617400,-0.119296595,0.251530945,-0.001867088,-0.000527708,0.000468714,1.151364207,0.153614715,9.705611229
1784246960.708852,0.015617999,-0.119300522,0.251533687,-0.001305964,-0.000750766,0.000976714,1.145019412,0.149549052,9.721719742
1784246960.710846,0.015615846,-0.119304329,0.251532644,-0.001042366,-0.001070590,0.000840229,1.134163141,0.144133464,9.746781349
1784246960.712853,0.015617768,-0.119298063,0.251532525,-0.000716633,-0.000691720,0.000527800,1.140223145,0.161249757,9.723134995
1784246960.714846,0.015620299,-0.119296379,0.251533121,-0.000149992,-0.000041727,0.000375014,1.145344615,0.177243173,9.733105659
1784246960.716852,0.015621785,-0.119297490,0.251535326,0.000094388,-0.000053483,0.000441257,1.136132956,0.194430918,9.726930618
1784246960.718848,0.015623577,-0.119300880,0.251537144,0.000232337,-0.000404153,0.000577804,1.119167924,0.163813829,9.715509415
1784246960.720867,0.015624602,-0.119301610,0.251538903,0.000388131,-0.000569990,0.000641761,1.146020889,0.159275055,9.738371849
1784246960.722862,0.015623402,-0.119301677,0.251538694,0.000250139,-0.000561431,0.000580363,1.159817576,0.183232456,9.683841705
1784246960.724868,0.015622694,-0.119304307,0.251543462,0.000057332,-0.000681523,0.000751406,1.137996316,0.198595390,9.704991341
1784246960.726856,0.015625311,-0.119309075,0.251549870,0.000093311,-0.001079553,0.001307803,1.154770017,0.176738068,9.724144936
1784246960.728863,0.015626285,-0.119313411,0.251547307,0.000173611,-0.001492991,0.001207080,1.155007601,0.160071909,9.736144066
1784246960.730865,0.015623688,-0.119318224,0.251543283,-0.000036652,-0.001715076,0.000447749,1.148936629,0.140436366,9.736011505
1784246960.732875,0.015617713,-0.119327009,0.251538783,-0.000664590,-0.002321279,-0.000180853,1.175961375,0.108985946,9.699520111
1784246960.734865,0.015617466,-0.119327024,0.251533449,-0.000973631,-0.002439843,-0.000745059,1.153377533,0.136772931,9.739130974
1784246960.736866,0.015615623,-0.119321242,0.251535058,-0.000917180,-0.001487622,-0.000770754,1.145678401,0.205004051,9.735076904
1784246960.738869,0.015613840,-0.119323701,0.251544297,-0.000861925,-0.000944172,0.000202562,1.176586032,0.162953928,9.733043671
1784246960.740879,0.015615242,-0.119334944,0.251542062,-0.000597448,-0.001610873,0.000617219,1.144434929,0.175132513,9.716503143
1784246960.742868,0.015618448,-0.119346432,0.251536280,-0.000301820,-0.002829326,-0.000113580,1.144328833,0.166999280,9.726314545
1784246960.744869,0.015617342,-0.119351894,0.251537502,-0.000227413,-0.003321003,-0.000391251,1.113662124,0.156035379,9.748181343
1784246960.746868,0.015620466,-0.119351275,0.251540244,-0.000021537,-0.002910285,-0.000029401,1.147445321,0.164334834,9.717331886
1784246960.748876,0.015621129,-0.119355448,0.251542509,0.000255841,-0.002522790,0.000289053,1.163105011,0.124163948,9.730541229
1784246960.750878,0.015617893,-0.119357616,0.251539469,0.000006359,-0.002269531,0.000177180,1.162670135,0.125897929,9.739518166
1784246960.752881,0.015612113,-0.119362354,0.251533866,-0.000572544,-0.002131762,-0.000392609,1.160451770,0.126937091,9.723382950
1784246960.754878,0.015612950,-0.119370118,0.251529962,-0.000726955,-0.002411711,-0.000899647,1.154189467,0.130817100,9.756129265
1784246960.756881,0.015613882,-0.119372748,0.251534462,-0.000351651,-0.002516789,-0.000635880,1.144328952,0.167405888,9.732145309
1784246960.758884,0.015618125,-0.119377166,0.251533628,0.000176965,-0.002363206,-0.000261523,1.148134232,0.184461907,9.721049309
1784246960.760884,0.015621529,-0.119381949,0.251537591,0.000669687,-0.002342147,-0.000043298,1.163102031,0.160918385,9.728533745
1784246960.762890,0.015622062,-0.119383410,0.251537859,0.000741050,-0.002144376,0.000224547,1.164410233,0.156955361,9.716405869
1784246960.764888,0.015620942,-0.119384170,0.251541764,0.000488526,-0.001727253,0.000456810,1.160497904,0.168132991,9.726785660
1784246960.766887,0.015619469,-0.119384013,0.251544207,0.000161489,-0.001242844,0.000789257,1.131769657,0.165978521,9.703430176
1784246960.768893,0.015623001,-0.119389348,0.251538187,0.000156462,-0.001212141,0.000325995,1.158977628,0.151779190,9.697984695
1784246960.770892,0.015623212,-0.119390182,0.251533449,0.000279207,-0.001314032,-0.000517428,1.166384578,0.136158228,9.739138603
1784246960.772894,0.015616219,-0.119390182,0.251533538,-0.000243346,-0.001024665,-0.000643401,1.201431274,0.138925016,9.727982521
1784246960.774898,0.015615166,-0.119392090,0.251530200,-0.000697378,-0.000885734,-0.000627377,1.157626033,0.151755095,9.703812599
1784246960.776899,0.015617548,-0.119392246,0.251530826,-0.000432211,-0.000862725,-0.000651296,1.157738566,0.162369415,9.723158836
1784246960.778899,0.015614068,-0.119397804,0.251536041,-0.000333403,-0.001082588,-0.000074479,1.177951932,0.163902551,9.723187447
1784246960.780901,0.015615918,-0.119399689,0.251530975,-0.000351493,-0.001293457,-0.000033788,1.162966847,0.150936067,9.746403694
1784246960.782899,0.015619751,-0.119403221,0.251520753,0.000019008,-0.001318465,-0.001103979,1.185462236,0.154365838,9.727618217
1784246960.784904,0.015623364,-0.119408704,0.251520634,0.000448313,-0.001574383,-0.001559741,1.186840057,0.155409873,9.704311371
1784246960.786904,0.015620048,-0.119414553,0.251523137,0.000433458,-0.001762819,-0.000989699,1.173231244,0.144284755,9.718126297
1784246960.788910,0.015616346,-0.119422160,0.251514614,-0.000138362,-0.002052939,-0.001081624,1.176178694,0.128937498,9.728790283
1784246960.790906,0.015620490,-0.119429924,0.251509994,-0.000177120,-0.002553139,-0.001673101,1.163473487,0.117445134,9.729600906
1784246960.792909,0.015625931,-0.119431399,0.251513600,0.000629234,-0.002498975,-0.001378256,1.162818074,0.138818875,9.749464035
1784246960.794908,0.015629347,-0.119440354,0.251514822,0.001214921,-0.002533931,-0.000766742,1.156590343,0.142568886,9.737376213
1784246960.796913,0.015633048,-0.119445376,0.251517802,0.001458302,-0.002791299,-0.000340895,1.157854080,0.172195941,9.727257729
1784246960.798908,0.015634917,-0.119442843,0.251526147,0.001588771,-0.002189307,0.000461053,1.171326280,0.172515973,9.720994949
1784246960.800913,0.015638435,-0.119437046,0.251521260,0.001548238,-0.001026123,0.000525583,1.161836267,0.166432008,9.711532593
1784246960.802916,0.015643904,-0.119436286,0.251517802,0.001591227,-0.000336549,-0.000240503,1.168437362,0.154787809,9.698909760
1784246960.804915,0.015646316,-0.119441308,0.251521021,0.001613400,-0.000557502,-0.000243027,1.164271235,0.182911038,9.721055984
1784246960.806912,0.015648382,-0.119439803,0.251518220,0.001377049,-0.000644187,-0.000172646,1.186595678,0.174048737,9.729986191
1784246960.808918,0.015659869,-0.119436838,0.251515925,0.001772263,-0.000170711,-0.000568778,1.160233617,0.148619458,9.762077332
1784246960.810921,0.015668653,-0.119434990,0.251518130,0.002656528,0.000202120,-0.000585476,1.166309714,0.167079657,9.738439560
1784246960.812926,0.015670441,-0.119438425,0.251518369,0.002662059,-0.000006918,-0.000348607,1.184243202,0.165111884,9.730823517
1784246960.814928,0.015675867,-0.119446419,0.251523018,0.002459524,-0.000824161,0.000018486,1.204238057,0.148710683,9.732978821
1784246960.816926,0.015680278,-0.119447500,0.251525789,0.002550758,-0.001044992,0.000432790,1.182472944,0.201298669,9.685772896
1784246960.818928,0.015682470,-0.119441196,0.251520783,0.002321725,-0.000244847,0.000107678,1.202544212,0.194822192,9.741343498
1784246960.820933,0.015684742,-0.119438417,0.251519233,0.001939551,0.000432028,-0.000399759,1.152564526,0.179499090,9.717884064
1784246960.822935,0.015688548,-0.119438656,0.251519918,0.001746142,0.000507902,-0.000392523,1.136865854,0.180151448,9.717424393
1784246960.824933,0.015695538,-0.119443342,0.251518607,0.001925259,0.000055858,-0.000407622,1.146197319,0.173231825,9.728596687
1784246960.826936,0.015699390,-0.119446956,0.251518756,0.002106170,-0.000633758,-0.000456651,1.183728099,0.159325942,9.726303101
1784246960.828943,0.015703289,-0.119448245,0.251521140,0.002059051,-0.000901876,-0.000220571,1.185380101,0.147233441,9.722639084
1784246960.830937,0.015706757,-0.119450748,0.251518130,0.001991037,-0.000915514,-0.000264252,1.160395384,0.160028338,9.732561111
1784246960.832942,0.015710101,-0.119456008,0.251521140,0.001865923,-0.001212953,-0.000243640,1.183150768,0.146563396,9.694836617
1784246960.834938,0.015712569,-0.119460762,0.251523882,0.001754184,-0.001575841,0.000167669,1.155027390,0.161847845,9.738395691
1784246960.836947,0.015716610,-0.119463451,0.251524270,0.001692467,-0.001731311,0.000287422,1.166044593,0.181096211,9.721044540
1784246960.838947,0.015713934,-0.119468749,0.251529634,0.001321168,-0.001878377,0.000590576,1.187500358,0.173284382,9.709806442
1784246960.840949,0.015716614,-0.119465515,0.251531363,0.001019568,-0.001499752,0.000904337,1.176538348,0.159738705,9.744232178
1784246960.842947,0.015726516,-0.119465925,0.251530945,0.001546180,-0.000869003,0.000648673,1.196121216,0.143229157,9.699310303
1784246960.844950,0.015731337,-0.119469590,0.251532048,0.002069507,-0.000878662,0.000405877,1.166351080,0.168620676,9.710654259
1784246960.846945,0.015731433,-0.119469523,0.251535207,0.001816798,-0.000916853,0.000552754,1.170316815,0.199912891,9.713548660
1784246960.848954,0.015732929,-0.119467139,0.251539975,0.001437662,-0.000530250,0.000932529,1.161298394,0.160061359,9.726285934
1784246960.850950,0.015736589,-0.119466357,0.251544476,0.001469659,-0.000162273,0.001264317,1.193024278,0.185259476,9.717062950
1784246960.852952,0.015742341,-0.119465567,0.251544505,0.001638039,0.000070334,0.001163069,1.166738987,0.166514650,9.754129410
1784246960.854950,0.015743921,-0.119467065,0.251557082,0.001685479,0.000093173,0.001647981,1.182389855,0.161430374,9.747834206
1784246960.856954,0.015740279,-0.119463243,0.251560926,0.001196711,0.000275454,0.002326259,1.176715374,0.173295170,9.727729797
1784246960.858972,0.015743338,-0.119458340,0.251559764,0.000829311,0.000828103,0.001884004,1.165599346,0.181130588,9.717009544
1784246960.860976,0.015749823,-0.119450592,0.251559258,0.001234046,0.001459766,0.001185082,1.189862967,0.183517426,9.715703011
1784246960.862966,0.015759168,-0.119444162,0.251558721,0.001838189,0.002096583,0.000677400,1.190836787,0.191403896,9.739068031
1784246960.864963,0.015754933,-0.119442485,0.251562029,0.001585979,0.002151878,0.000647167,1.208301067,0.188066185,9.735926628
1784246960.866965,0.015747309,-0.119449407,0.251564950,0.000307218,0.001337681,0.000997730,1.195511460,0.170232415,9.746558189
1784246960.868965,0.015746322,-0.119447865,0.251561403,-0.000460654,0.000727771,0.000765880,1.148460627,0.174168944,9.718742371
1784246960.870962,0.015745779,-0.119449042,0.251560569,-0.000473955,0.000549551,0.000274396,1.154941559,0.153876781,9.725342751
1784246960.872967,0.015743554,-0.119451895,0.251563072,-0.000488153,0.000093236,0.000329721,1.170004129,0.174344137,9.718316078
1784246960.874971,0.015745718,-0.119453058,0.251559913,-0.000335347,-0.000239837,0.000189763,1.188246965,0.199136391,9.727459908
1784246960.876976,0.015750265,-0.119450107,0.251555860,-0.000054923,0.000004557,-0.000378561,1.155800462,0.188313171,9.732738495
1784246960.878974,0.015753841,-0.119448587,0.251563311,0.000330608,0.000374315,-0.000087202,1.160585761,0.176119983,9.737596512
1784246960.880986,0.015756112,-0.119448639,0.251570314,0.000751589,0.000385642,0.000863959,1.183821917,0.167767242,9.736220360
1784246960.882980,0.015752727,-0.119443476,0.251566768,0.000466616,0.000710466,0.000871725,1.193744421,0.173311636,9.757785797
1784246960.884977,0.015754955,-0.119440019,0.251559049,0.000137188,0.001170488,-0.000114417,1.179049373,0.183302447,9.765457153
1784246960.886979,0.015758265,-0.119438797,0.251554191,0.000255001,0.001124544,-0.000960727,1.151234388,0.181263670,9.724170685
1784246960.888984,0.015757892,-0.119435392,0.251550198,0.000195540,0.001090980,-0.001306710,1.197119713,0.154956490,9.749599457
1784246960.890983,0.015759183,-0.119429193,0.251550436,0.000173572,0.001442179,-0.001213644,1.187247872,0.153866261,9.731650352
1784246960.892987,0.015756879,-0.119423002,0.251554281,0.000105147,0.001983256,-0.000602786,1.187199473,0.150241256,9.737456322
1784246960.894983,0.015753468,-0.119416095,0.251560122,-0.000216303,0.002431805,0.000257281,1.192578912,0.188127518,9.755637169
1784246960.896987,0.015760968,-0.119414337,0.251557887,0.000017206,0.002432418,0.000413409,1.161367416,0.164658636,9.709726334
1784246960.898996,0.015765360,-0.119417079,0.251553863,0.000633824,0.001766507,-0.000197929,1.176984668,0.158093736,9.722702026
1784246960.900992,0.015767254,-0.119416468,0.251555204,0.000863860,0.001138107,-0.000373651,1.161853433,0.205778852,9.722991943
1784246960.902993,0.015770994,-0.119412526,0.251559824,0.000962954,0.001163389,0.000096629,1.166042566,0.218670294,9.729804993
1784246960.904994,0.015770994,-0.119412526,0.251559824,0.001091588,0.001431859,0.000657328,1.166042566,0.218670294,9.729804993
1784246960.907031,0.015777983,-0.119399041,0.251563698,0.001152887,0.001934879,0.000886934,1.154638529,0.201537490,9.702336311
1784246960.908999,0.015777983,-0.119399041,0.251563698,0.001165133,0.002608768,0.000875343,1.154638529,0.201537490,9.702336311
1784246960.911022,0.015785646,-0.119386688,0.251564234,0.001422616,0.002665360,0.000810719,1.175723791,0.166888967,9.748311043
1784246960.913005,0.015794557,-0.119380623,0.251563907,0.001662350,0.002455696,0.000491549,1.144074440,0.181911737,9.708924294
1784246960.914999,0.015794868,-0.119374841,0.251570344,0.001440092,0.002466907,0.000638407,1.168023348,0.195900425,9.714865685
1784246960.917007,0.015790386,-0.119373322,0.251569062,0.000750888,0.002228107,0.000851489,1.167914748,0.189368248,9.751586914
1784246960.919007,0.015782243,-0.119368955,0.251571596,-0.000293481,0.002025210,0.000807125,1.154741526,0.174892157,9.731756210
1784246960.921015,0.015782289,-0.119363420,0.251573741,-0.000763162,0.002089036,0.000975017,1.163729072,0.176098824,9.734909058
1784246960.923010,0.015784128,-0.119362630,0.251566827,-0.000509695,0.001881549,0.000374784,1.150059223,0.195193157,9.720671654
1784246960.925012,0.015780427,-0.119363643,0.251570195,-0.000637377,0.001301010,0.000060994,1.144004941,0.178527996,9.743871689
1784246960.927007,0.015778843,-0.119365804,0.251577824,-0.000843250,0.000693120,0.000842093,1.164559960,0.171105683,9.742499352
1784246960.929012,0.015775962,-0.119362742,0.251576722,-0.000862379,0.000574846,0.001088199,1.139667392,0.187869042,9.698199272
1784246960.931009,0.015777618,-0.119360842,0.251569301,-0.000871305,0.000728929,0.000239878,1.156162620,0.180329978,9.720582962
1784246960.933020,0.015774202,-0.119366057,0.251560837,-0.000973270,0.000269221,-0.000868852,1.147428393,0.162174523,9.706110954
1784246960.935013,0.015771504,-0.119366385,0.251553804,-0.001284662,-0.000243439,-0.001623762,1.155968428,0.164613143,9.725860596
1784246960.937018,0.015773863,-0.119365811,0.251555741,-0.001038524,-0.000212009,-0.001520833,1.142437100,0.159368783,9.731642723
1784246960.939016,0.015772965,-0.119362719,0.251553833,-0.000658006,0.000094713,-0.001119017,1.154003143,0.149510413,9.710967064
1784246960.941044,0.015768100,-0.119358599,0.251547188,-0.000901699,0.000524974,-0.001349477,1.154999018,0.158381820,9.721784592
1784246960.943027,0.015768083,-0.119352274,0.251542687,-0.001040295,0.001055092,-0.001696613,1.136692286,0.165406883,9.711950302
1784246960.945029,0.015764445,-0.119350649,0.251536638,-0.001107723,0.001206706,-0.001914648,1.171208858,0.163080141,9.724970818
1784246960.947027,0.015761655,-0.119352087,0.251536578,-0.001307914,0.000794815,-0.001751701,1.152017713,0.135871992,9.742261887
1784246960.949023,0.015761530,-0.119353123,0.251541138,-0.001112673,0.000414876,-0.000946931,1.161986709,0.179778621,9.724618912
1784246960.951023,0.015765755,-0.119349882,0.251543880,-0.000461211,0.000437815,-0.000231823,1.135889530,0.173055992,9.708859444
1784246960.953034,0.015771685,-0.119345866,0.251545459,0.000397350,0.000793920,0.000038902,1.142051697,0.164330691,9.727639198
1784246960.955033,0.015775679,-0.119345076,0.251549870,0.000965726,0.000819191,0.000361089,1.128820777,0.186176658,9.766771317
1784246960.957040,0.015766481,-0.119347617,0.251553893,0.000379851,0.000396632,0.000880583,1.170419693,0.172050878,9.725026131
1784246960.959037,0.015759757,-0.119343489,0.251555800,-0.000748516,0.000402906,0.001169405,1.163675666,0.172842249,9.751924515
1784246960.961039,0.015763944,-0.119338043,0.251552552,-0.000749473,0.000960251,0.000788483,1.144626260,0.154857218,9.732065201
1784246960.963047,0.015762212,-0.119334646,0.251548648,-0.000460444,0.001311807,0.000077899,1.129083395,0.166467324,9.702534676
1784246960.965044,0.015764579,-0.119330250,0.251548976,-0.000342453,0.001423366,-0.000187981,1.166686893,0.160834253,9.733917236
1784246960.967045,0.015765710,-0.119329952,0.251552075,-0.000006618,0.001301184,0.000068887,1.170969605,0.142953694,9.720357895
1784246960.969043,0.015765931,-0.119324461,0.251550019,0.000095112,0.001340596,0.000112086,1.154683232,0.133194238,9.735970497
1784246960.971046,0.015770946,-0.119315922,0.251546055,0.000447323,0.001891495,-0.000376594,1.143580556,0.143971398,9.752617836
1784246960.973097,0.015779674,-0.119315960,0.251548499,0.001314138,0.001924816,-0.000499000,1.128534675,0.158387512,9.705620766
1784246960.975061,0.015777651,-0.119308434,0.251547992,0.001400927,0.001809089,-0.000282937,1.141072750,0.155999452,9.703824043
1784246960.977077,0.015774310,-0.119301572,0.251544476,0.000601955,0.002185941,-0.000431218,1.141873002,0.150358066,9.739653587
1784246960.979085,0.015773859,-0.119303256,0.251542866,0.000141031,0.001937745,-0.000632218,1.155204177,0.139027879,9.733766556
1784246960.981061,0.015769575,-0.119309209,0.251547337,-0.000097321,0.000852606,-0.000241974,1.163923025,0.155035704,9.735221863
1784246960.983054,0.015761895,-0.119301669,0.251550764,-0.000717074,0.000694440,0.000442269,1.155581117,0.168345690,9.705709457
1784246960.985051,0.015759116,-0.119297162,0.251551449,-0.001268432,0.001319812,0.000691975,1.124454737,0.156084985,9.721740723
1784246960.987057,0.015763782,-0.119304664,0.251546919,-0.000902272,0.000745030,0.000237549,1.140218258,0.162021682,9.740625381
1784246960.989055,0.015761791,-0.119305342,0.251547009,-0.000512547,-0.000016672,-0.000149366,1.115502000,0.160825461,9.764354706
1784246960.991054,0.015759347,-0.119302340,0.251546174,-0.000692809,0.000043533,-0.000121660,1.098970056,0.165645003,9.746437073
1784246960.993058,0.015762219,-0.119305946,0.251545727,-0.000500671,-0.000113644,-0.000174289,1.106977105,0.194880962,9.716144562
