time_sec,roll_rad,pitch_rad,yaw_rad,gyro_x,gyro_y,gyro_z,acc_x,acc_y,acc_z
1784247011.515323,0.005811119,-0.123360865,1.868176222,-0.000272632,-0.000299424,-0.000915824,1.172939420,0.119691394,9.711690903
1784247011.517303,0.005811119,-0.123360865,1.868176222,-0.000075930,-0.000630966,-0.000794224,1.173506856,0.089517437,9.669355392
1784247011.519276,0.005811119,-0.123360865,1.868176222,0.000123576,-0.000710551,-0.000794908,1.195158482,0.101488672,9.711147308
1784247011.521280,0.005812627,-0.123360686,1.868176222,-0.000036093,-0.000654254,-0.001282652,1.200095654,0.101031519,9.703528404
1784247011.523250,0.005812627,-0.123360686,1.868176222,-0.000226810,-0.000687758,-0.001096949,1.193444014,0.072661527,9.735618591
1784247011.525258,0.005813056,-0.123360090,1.868176222,-0.000599564,-0.000566536,-0.000816811,1.197025895,0.070121728,9.708257675
1784247011.527249,0.005813056,-0.123360090,1.868176222,-0.001450385,-0.000578869,-0.000794733,1.188254833,0.052080408,9.740861893
1784247011.529298,0.005813056,-0.123360090,1.868176222,-0.001541741,-0.000197901,-0.000721481,1.197920680,0.071304664,9.729338646
1784247011.531273,0.005813454,-0.123359405,1.868176222,-0.000935263,0.000450356,-0.000664984,1.197351813,0.059825588,9.706398964
1784247011.533279,0.005813454,-0.123359405,1.868176222,-0.000332017,0.000865096,-0.000335061,1.179396272,0.062428541,9.750782967
1784247011.535243,0.005813316,-0.123358518,1.868176222,-0.000097928,0.000557803,-0.000152592,1.197775483,0.096806042,9.734882355
1784247011.537293,0.005813316,-0.123358518,1.868176222,-0.000372003,-0.000598659,0.000209105,1.201693535,0.086889625,9.736166954
1784247011.539279,0.005813316,-0.123358518,1.868176222,-0.000202801,-0.000691465,0.000856449,1.213988423,0.101529807,9.734479904
1784247011.541282,0.005814825,-0.123358890,1.868176341,0.000217425,-0.000235096,0.000482988,1.196105957,0.069145091,9.721252441
1784247011.543269,0.005814825,-0.123358890,1.868176341,0.000101321,-0.000544505,-0.000046047,1.187112331,0.068700828,9.736932755
1784247011.545260,0.005814631,-0.123358183,1.868176222,-0.000290657,-0.000591691,0.000399445,1.187743425,0.083102964,9.726714134
1784247011.547266,0.005814631,-0.123358183,1.868176222,-0.000679377,-0.000173866,0.000545818,1.191391706,0.088788263,9.739754677
1784247011.549268,0.005814631,-0.123358183,1.868176222,-0.000711477,-0.000192415,0.000037287,1.176669240,0.093699254,9.705698967
1784247011.551260,0.005815861,-0.123357356,1.868176222,-0.000397183,-0.000661982,0.000061964,1.209364653,0.087538727,9.694035530
1784247011.553264,0.005815861,-0.123357356,1.868176222,-0.000419538,-0.000769240,0.000387730,1.212444186,0.083365075,9.708357811
1784247011.555262,0.005816613,-0.123357572,1.868176341,-0.000555227,-0.000337794,-0.000076324,1.184907675,0.070251524,9.711833954
1784247011.557264,0.005816613,-0.123357572,1.868176341,0.000033312,-0.000152469,-0.001136081,1.194997549,0.088059381,9.709716797
1784247011.559261,0.005816613,-0.123357572,1.868176341,0.001218940,-0.000224389,-0.001781691,1.194653630,0.060219012,9.718952179
1784247011.561257,0.005816584,-0.123357773,1.868176341,0.001339777,-0.000255421,-0.001494896,1.198205471,0.056630667,9.713104248
1784247011.563238,0.005816584,-0.123357773,1.868176341,0.000610876,-0.000505312,-0.000945549,1.178762794,0.081543744,9.710107803
1784247011.565295,0.005818219,-0.123356797,1.868176341,0.000747669,-0.000890000,-0.000960615,1.206658363,0.088272005,9.721835136
1784247011.567263,0.005818219,-0.123356797,1.868176341,0.001118902,-0.001172173,-0.001133636,1.199162841,0.062766612,9.730628967
1784247011.569243,0.005818219,-0.123356797,1.868176341,0.000597359,-0.000975203,-0.000933763,1.207092524,0.086531654,9.713753700
1784247011.571244,0.005820153,-0.123356789,1.868176222,-0.000072111,-0.000759250,-0.000354971,1.212861419,0.043091137,9.700478554
1784247011.573250,0.005820153,-0.123356789,1.868176222,-0.000202756,-0.000949868,0.000408286,1.197399616,0.064660951,9.719431877
1784247011.575243,0.005820212,-0.123355955,1.868176222,-0.000297907,-0.001106177,0.000873955,1.180225134,0.054986127,9.724732399
1784247011.577256,0.005820212,-0.123355955,1.868176222,-0.000616064,-0.000908942,0.000817388,1.181815267,0.074726857,9.718136787
1784247011.579250,0.005820212,-0.123355955,1.868176222,-0.000681312,-0.000442294,0.000651881,1.200804710,0.086157821,9.714640617
1784247011.581257,0.005821683,-0.123355478,1.868176341,0.000044752,-0.000365442,0.000982369,1.221376061,0.118482612,9.731455803
1784247011.583248,0.005821683,-0.123355478,1.868176341,0.000497573,-0.000580837,0.001582530,1.178115606,0.103387691,9.726835251
1784247011.585318,0.005824038,-0.123354279,1.868176103,-0.000291843,-0.000704029,0.001422440,1.181498647,0.086312830,9.727623940
1784247011.587264,0.005824038,-0.123354279,1.868176103,-0.001082832,-0.000823790,0.000709596,1.185744405,0.066112973,9.725258827
1784247011.589252,0.005824038,-0.123354279,1.868176103,-0.000756091,-0.000958319,0.000444194,1.185074210,0.047348876,9.718861580
1784247011.591254,0.005822939,-0.123353489,1.868176103,0.000204153,-0.001031542,0.000811742,1.222095370,0.066911682,9.736506462
1784247011.593260,0.005822939,-0.123353489,1.868176103,0.000740643,-0.001171462,0.000807979,1.202698708,0.094214015,9.712453842
1784247011.595261,0.005825286,-0.123352565,1.868175983,0.000407933,-0.001424041,0.000225591,1.202444315,0.073563285,9.718597412
1784247011.597253,0.005825286,-0.123352565,1.868175983,-0.000428812,-0.001245855,0.000488369,1.191088796,0.061675664,9.709543228
1784247011.599260,0.005825286,-0.123352565,1.868175983,-0.000638811,-0.000800688,0.001386213,1.179376483,0.058219202,9.712648392
1784247011.601286,0.005825126,-0.123351075,1.868175864,-0.000108047,-0.000894642,0.001533589,1.207790017,0.109562315,9.750216484
1784247011.603275,0.005825126,-0.123351075,1.868175864,0.000422771,-0.001140871,0.001026427,1.230532169,0.097209141,9.745226860
1784247011.605265,0.005826884,-0.123352140,1.868175864,0.000596110,-0.000993738,0.000622341,1.219081759,0.076060593,9.715490341
1784247011.607285,0.005826884,-0.123352140,1.868175864,0.000125202,-0.000811548,0.000887044,1.205944061,0.103507824,9.722826958
1784247011.609266,0.005826884,-0.123352140,1.868175864,-0.000165432,-0.000789045,0.001350124,1.208493948,0.091813624,9.724548340
1784247011.611266,0.005828523,-0.123352922,1.868175626,-0.000032452,-0.000825829,0.000947600,1.218890905,0.060775854,9.723013878
1784247011.613273,0.005828523,-0.123352922,1.868175626,-0.000110954,-0.000451874,0.000186972,1.202816129,0.104866512,9.726420403
1784247011.615271,0.005831518,-0.123352647,1.868175626,0.000032030,-0.000003278,-0.000095060,1.197902203,0.105911538,9.714316368
1784247011.617271,0.005831518,-0.123352647,1.868175626,0.000046056,0.000360159,-0.000246302,1.192485452,0.065299340,9.701498032
1784247011.619277,0.005831518,-0.123352647,1.868175626,-0.000338850,0.000863390,-0.000391882,1.193165898,0.082522802,9.672468185
1784247011.621276,0.005832420,-0.123352543,1.868175864,-0.000409945,0.000525652,-0.000483476,1.196938157,0.100128159,9.710243225
1784247011.623282,0.005832420,-0.123352543,1.868175864,-0.000452126,-0.000494676,-0.000518396,1.207506299,0.085842639,9.746926308
1784247011.625275,0.005833605,-0.123352572,1.868175864,-0.000766450,-0.000660382,-0.000306394,1.208153605,0.100375161,9.718326569
1784247011.627277,0.005833605,-0.123352572,1.868175864,-0.001243713,-0.000293547,0.000030887,1.197628856,0.083491206,9.717310905
1784247011.629282,0.005833605,-0.123352572,1.868175864,-0.001415581,-0.000530968,0.000075490,1.229756951,0.066267781,9.687192917
1784247011.631286,0.005834234,-0.123353541,1.868175983,-0.001237030,-0.001136416,-0.000345239,1.216977239,0.051350329,9.728779793
1784247011.633290,0.005834234,-0.123353541,1.868175983,-0.001469174,-0.001522674,-0.000146555,1.211118579,0.085571259,9.715543747
1784247011.635287,0.005835736,-0.123353831,1.868175983,-0.001796954,-0.001354471,0.000343421,1.208339334,0.080055341,9.740163803
1784247011.637287,0.005835736,-0.123353831,1.868175983,-0.002245993,-0.000775041,-0.000055601,1.224015117,0.077194974,9.736125946
1784247011.639289,0.005835736,-0.123353831,1.868175983,-0.002517964,-0.000316201,-0.000562614,1.203623176,0.058852352,9.705950737
1784247011.641288,0.005835799,-0.123354234,1.868175983,-0.002139223,-0.000079927,-0.000642768,1.226437092,0.054765601,9.735537529
1784247011.643296,0.005835799,-0.123354234,1.868175983,-0.001868665,-0.000358944,-0.000505111,1.222943902,0.098835178,9.719226837
1784247011.645296,0.005837941,-0.123354912,1.868175864,-0.001928469,-0.000831637,-0.000045703,1.218697786,0.118221775,9.709932327
1784247011.647293,0.005837941,-0.123354912,1.868175864,-0.001605402,-0.000694516,0.000382495,1.215603709,0.085904516,9.723620415
1784247011.649293,0.005837941,-0.123354912,1.868175864,-0.000790883,-0.000616766,0.000352245,1.189798474,0.068212003,9.737829208
1784247011.651296,0.005838086,-0.123354010,1.868175864,-0.000164645,-0.000988920,-0.000249786,1.220685959,0.060349420,9.716736794
1784247011.653298,0.005838086,-0.123354010,1.868175864,0.000044757,-0.000733731,-0.000956596,1.210332155,0.095780931,9.730404854
1784247011.655298,0.005839475,-0.123353809,1.868175864,-0.000485878,-0.000128141,-0.001199470,1.187755108,0.082385108,9.701602936
1784247011.657309,0.005839475,-0.123353809,1.868175864,-0.001020430,-0.000061480,-0.001685604,1.207608461,0.055950683,9.728800774
1784247011.659306,0.005839475,-0.123353809,1.868175864,-0.000994520,-0.000001169,-0.001750193,1.222330928,0.085792825,9.727213860
1784247011.661301,0.005840384,-0.123354316,1.868175983,-0.000814103,0.000038037,-0.001309617,1.201630235,0.080310099,9.716398239
1784247011.663311,0.005840384,-0.123354316,1.868175983,-0.000451192,-0.000294996,-0.001134722,1.220690489,0.096760839,9.699934006
1784247011.665304,0.005842854,-0.123356029,1.868175983,-0.000206216,-0.000593277,-0.000700774,1.237114072,0.082575470,9.711963654
1784247011.667312,0.005842854,-0.123356029,1.868175983,-0.000511734,-0.000514710,-0.000817011,1.221230149,0.106387660,9.731379509
1784247011.669388,0.005842854,-0.123356029,1.868175983,-0.000799965,0.000067757,-0.001314059,1.201228499,0.085144848,9.730325699
1784247011.671316,0.005845600,-0.123357154,1.868175983,-0.000967782,0.001154494,-0.001166945,1.187405467,0.055713747,9.735504150
1784247011.673313,0.005845600,-0.123357154,1.868175983,-0.001346741,0.001624732,-0.001025868,1.189221501,0.056669343,9.723855972
1784247011.675320,0.005845529,-0.123356156,1.868175864,-0.001544780,0.000797281,-0.001055853,1.201853633,0.061505888,9.714035988
1784247011.677391,0.005845529,-0.123356156,1.868175864,-0.001637909,-0.000076490,-0.001006918,1.230651855,0.069884121,9.744156837
1784247011.679330,0.005845529,-0.123356156,1.868175864,-0.002024901,-0.000028491,-0.000498616,1.227214575,0.080049165,9.707006454
1784247011.681324,0.005846293,-0.123357646,1.868175983,-0.002323168,0.000221094,0.000125572,1.215838909,0.068002567,9.720368385
1784247011.683325,0.005846293,-0.123357646,1.868175983,-0.002271187,0.000097565,0.000001355,1.218245864,0.082232267,9.731221199
1784247011.685332,0.005847433,-0.123357967,1.868175983,-0.002054603,-0.000279682,-0.000523695,1.197116375,0.079751126,9.740150452
1784247011.687329,0.005847433,-0.123357967,1.868175983,-0.001749159,-0.000198324,-0.000542934,1.206381798,0.103416219,9.734932899
1784247011.689324,0.005847433,-0.123357967,1.868175983,-0.001450300,0.000290442,-0.000283658,1.204359889,0.084624857,9.734809875
1784247011.691329,0.005849381,-0.123358518,1.868175864,-0.001180793,0.000377174,-0.000294766,1.203362823,0.076150522,9.731167793
1784247011.693330,0.005849381,-0.123358518,1.868175864,-0.000808172,0.000006919,-0.000377200,1.179445863,0.065656483,9.737802505
1784247011.695337,0.005849109,-0.123357043,1.868175626,-0.000354020,-0.000154902,-0.000743242,1.204018235,0.057207014,9.747634888
1784247011.697335,0.005849109,-0.123357043,1.868175626,-0.000239261,-0.000198237,-0.001045931,1.234184980,0.065339439,9.746818542
1784247011.699337,0.005849109,-0.123357043,1.868175626,-0.000267368,-0.000359357,-0.000491109,1.215071678,0.078768305,9.719986916
1784247011.701331,0.005849470,-0.123358704,1.868175864,0.000003591,-0.000229323,0.000149589,1.193223238,0.091484830,9.735290527
1784247011.703341,0.005849470,-0.123358704,1.868175864,0.000206552,0.000247091,0.000004704,1.207997680,0.088607341,9.735286713
1784247011.705339,0.005851210,-0.123359203,1.868175626,0.000211203,0.000669355,-0.000371429,1.201971889,0.072571374,9.732936859
1784247011.707365,0.005851210,-0.123359203,1.868175626,0.000500007,0.000579017,-0.000827720,1.211546659,0.084996723,9.732578278
1784247011.709347,0.005851210,-0.123359203,1.868175626,0.000965220,0.000672342,-0.001140779,1.188700676,0.088425666,9.732576370
1784247011.711391,0.005852857,-0.123357981,1.868175626,0.001469110,0.000971876,-0.001258977,1.180369139,0.066255093,9.714942932
1784247011.713360,0.005852857,-0.123357981,1.868175626,0.002029492,0.000771249,-0.000895814,1.192010403,0.064691797,9.724806786
1784247011.715355,0.005852861,-0.123357229,1.868175626,0.001893848,0.000574638,-0.000253311,1.194353819,0.037182216,9.745704651
1784247011.717349,0.005852861,-0.123357229,1.868175626,0.000690873,0.000282428,0.000031644,1.223226786,0.084551916,9.711066246
1784247011.719446,0.005852861,-0.123357229,1.868175626,-0.000547673,-0.000033094,0.000003409,1.209805369,0.051906180,9.726535797
1784247011.721482,0.005852429,-0.123357572,1.868175626,-0.001407303,0.000225668,-0.000519820,1.201408148,0.062347136,9.722558975
1784247011.723432,0.005852429,-0.123357572,1.868175626,-0.001923456,0.000592094,-0.000755406,1.213078737,0.098605923,9.706214905
1784247011.725376,0.005854969,-0.123357803,1.868175626,-0.001380395,0.000754034,-0.000095770,1.210868597,0.101328790,9.705332756
1784247011.727367,0.005854969,-0.123357803,1.868175626,-0.000788854,0.000652353,0.000636581,1.189335465,0.102452978,9.712044716
1784247011.729398,0.005854969,-0.123357803,1.868175626,-0.001135309,0.000499212,0.000753223,1.219551444,0.114216767,9.704526901
1784247011.731378,0.005858925,-0.123358846,1.868175626,-0.001313317,0.000409608,0.000062209,1.215857029,0.069765791,9.724412918
1784247011.733366,0.005858925,-0.123358846,1.868175626,-0.000722138,0.000068121,-0.000694307,1.204507113,0.058329303,9.714915276
1784247011.735384,0.005858869,-0.123358779,1.868175626,-0.000024139,-0.000368393,-0.000451762,1.202090979,0.045646619,9.738592148
1784247011.737376,0.005858869,-0.123358779,1.868175626,-0.000074648,-0.000291574,0.000899608,1.172183275,0.058606520,9.734163284
1784247011.739401,0.005858869,-0.123358779,1.868175626,-0.000342944,0.000108426,0.001957824,1.194525838,0.049887285,9.722920418
1784247011.741379,0.005858117,-0.123358108,1.868175626,-0.000429198,0.000207959,0.001536407,1.205192566,0.042864557,9.746199608
1784247011.743375,0.005858117,-0.123358108,1.868175626,-0.001124700,0.000235062,0.000939323,1.215885878,0.072021492,9.722187042
1784247011.745370,0.005859286,-0.123357981,1.868175626,-0.001938347,0.000346563,0.000757102,1.187038422,0.099221982,9.729506493
1784247011.747376,0.005859286,-0.123357981,1.868175626,-0.002208705,0.000083991,0.000352175,1.205366015,0.092765689,9.722310066
1784247011.749391,0.005859286,-0.123357981,1.868175626,-0.002060657,0.000085320,0.000329589,1.194410563,0.078057356,9.731171608
1784247011.751386,0.005860333,-0.123356879,1.868175626,-0.001785050,0.000744917,0.001219662,1.194621563,0.096337914,9.743393898
1784247011.753377,0.005860333,-0.123356879,1.868175626,-0.001475993,0.001206259,0.001868136,1.195528507,0.095592655,9.720525742
1784247011.755379,0.005862997,-0.123356365,1.868175626,-0.001036015,0.001219583,0.001761427,1.197993875,0.078773744,9.750009537
1784247011.757374,0.005862997,-0.123356365,1.868175626,-0.000846662,0.000746385,0.001410015,1.195026994,0.053538371,9.712633133
1784247011.759386,0.005862997,-0.123356365,1.868175626,-0.000712598,0.000024278,0.001061647,1.199542880,0.055736579,9.710410118
1784247011.761415,0.005862099,-0.123355307,1.868175507,-0.000303490,-0.000162146,0.000647786,1.211859822,0.074195392,9.738784790
1784247011.763388,0.005862099,-0.123355307,1.868175507,-0.000274466,0.000043057,0.000979578,1.203802705,0.074048050,9.710980415
1784247011.765382,0.005863701,-0.123355165,1.868175626,-0.000598175,0.000227835,0.001943006,1.192201257,0.079166450,9.705174446
1784247011.767390,0.005863701,-0.123355165,1.868175626,-0.000450036,0.000614277,0.001997001,1.167273998,0.096873030,9.717366219
1784247011.769382,0.005863701,-0.123355165,1.868175626,-0.000073483,0.000606352,0.001800477,1.197011828,0.071227141,9.741889954
1784247011.771390,0.005863735,-0.123354107,1.868175507,-0.000166886,0.000081349,0.001852404,1.191825032,0.086634912,9.726741791
1784247011.773395,0.005863735,-0.123354107,1.868175507,-0.000501784,0.000027856,0.001548656,1.174886346,0.058657873,9.722062111
1784247011.775390,0.005864055,-0.123352230,1.868175507,-0.000328372,0.000163383,0.001491481,1.172548294,0.088235550,9.725387573
1784247011.777390,0.005864055,-0.123352230,1.868175507,-0.000135316,-0.000172911,0.001826600,1.211593866,0.086585447,9.698066711
1784247011.779398,0.005864055,-0.123352230,1.868175507,-0.000339329,-0.000609627,0.001653923,1.201790333,0.093733020,9.718725204
1784247011.781406,0.005866257,-0.123352051,1.868175507,-0.000665991,-0.000726309,0.001276244,1.205212474,0.080613494,9.730301857
1784247011.783397,0.005866257,-0.123352051,1.868175507,-0.000703269,-0.000633815,0.001056572,1.204613686,0.104055703,9.711173058
1784247011.785400,0.005868301,-0.123351879,1.868175507,-0.000115772,-0.000573171,0.000915534,1.171583176,0.082039185,9.716380119
1784247011.787404,0.005868301,-0.123351879,1.868175507,0.000313622,-0.000402903,0.000795442,1.184877872,0.103959270,9.697255135
1784247011.789397,0.005868301,-0.123351879,1.868175507,0.000124005,-0.000071249,0.000022346,1.177628398,0.099037834,9.709321976
1784247011.791408,0.005870116,-0.123350874,1.868175387,0.000111344,0.000026228,-0.000740020,1.187184215,0.074130416,9.729347229
1784247011.793401,0.005870116,-0.123350874,1.868175387,0.000585427,-0.000147827,-0.000339247,1.193794012,0.063769691,9.725251198
1784247011.795406,0.005870779,-0.123350143,1.868175387,0.000695738,-0.000254644,0.000042709,1.190396428,0.043546759,9.739912987
1784247011.797408,0.005870779,-0.123350143,1.868175387,0.000780692,0.000029246,0.000034153,1.213980198,0.063469641,9.731096268
1784247011.799409,0.005870779,-0.123350143,1.868175387,0.001187211,0.000445233,0.000535084,1.190242171,0.066951402,9.725268364
1784247011.801405,0.005870518,-0.123350039,1.868175387,0.001484419,0.000768476,0.000539085,1.172895670,0.080134690,9.729818344
1784247011.803411,0.005870518,-0.123350039,1.868175387,0.001469110,0.001154654,-0.000143498,1.160853267,0.085319266,9.715494156
1784247011.805413,0.005873327,-0.123348162,1.868175268,0.001052388,0.000912844,0.000258279,1.183610320,0.075920545,9.736079216
1784247011.807445,0.005873327,-0.123348162,1.868175268,0.000984574,0.001016046,0.001545750,1.178828120,0.088139169,9.727635384
1784247011.809422,0.005873327,-0.123348162,1.868175268,0.001199095,0.001938551,0.001802830,1.180584550,0.120540440,9.704530716
1784247011.811420,0.005876918,-0.123346858,1.868175268,0.001223967,0.002039572,0.001409062,1.176444650,0.113710627,9.727348328
1784247011.813465,0.005876918,-0.123346858,1.868175268,0.001124340,0.001285696,0.001243772,1.186991692,0.096016295,9.739349365
1784247011.815437,0.005877961,-0.123344809,1.868175268,0.001178557,0.000718246,0.000942941,1.173696518,0.073282972,9.746811867
1784247011.817427,0.005877961,-0.123344809,1.868175268,0.001134829,0.000831614,0.000094778,1.168352962,0.074889794,9.719470024
1784247011.819429,0.005877961,-0.123344809,1.868175268,0.000599332,0.001118730,-0.000703278,1.181514025,0.088460423,9.740640640
1784247011.821450,0.005879336,-0.123343252,1.868175387,0.000599867,0.000710489,-0.001088903,1.180987716,0.082178809,9.742841721
1784247011.823449,0.005879336,-0.123343252,1.868175387,0.000866964,-0.000038770,-0.001534387,1.216001391,0.081848018,9.726285934
1784247011.825442,0.005880733,-0.123344705,1.868175268,0.000380700,0.000016054,-0.001748342,1.228686929,0.091564439,9.723220825
1784247011.827436,0.005880733,-0.123344705,1.868175268,0.000178204,0.000632544,-0.002261789,1.194816709,0.073257588,9.712310791
1784247011.829437,0.005880733,-0.123344705,1.868175268,0.000643027,0.000736495,-0.003196385,1.193064451,0.077264532,9.719058990
1784247011.831440,0.005882245,-0.123344339,1.868175268,0.000718697,0.000054885,-0.003195898,1.201083422,0.072652824,9.723073006
1784247011.833444,0.005882245,-0.123344339,1.868175268,0.000734715,-0.000588774,-0.002618766,1.189682722,0.057165608,9.716238022
1784247011.835447,0.005882801,-0.123343460,1.868175268,0.000898081,-0.000446229,-0.002375203,1.197198749,0.084859930,9.714629173
1784247011.837444,0.005882801,-0.123343460,1.868175268,0.000569547,0.000111313,-0.002015434,1.221467853,0.088911436,9.731266975
1784247011.839451,0.005882801,-0.123343460,1.868175268,0.000217294,0.000244832,-0.001123232,1.192566872,0.075262226,9.749532700
1784247011.841447,0.005883151,-0.123342156,1.868175149,0.000374231,0.000139317,-0.000419589,1.181315899,0.070685059,9.720352173
1784247011.843451,0.005883151,-0.123342156,1.868175149,0.000633217,-0.000061561,-0.000485112,1.173343062,0.079712786,9.725333214
1784247011.845448,0.005885449,-0.123340912,1.868175030,0.000654147,-0.000673959,-0.000553759,1.206403971,0.105211243,9.734495163
1784247011.847453,0.005885449,-0.123340912,1.868175030,0.000255346,-0.000936069,-0.000531194,1.188293934,0.090385415,9.709724426
1784247011.849455,0.005885449,-0.123340912,1.868175030,-0.000281918,-0.000548046,-0.000566077,1.190963984,0.089769423,9.728552818
1784247011.851457,0.005887324,-0.123339713,1.868174911,-0.000186835,-0.000467395,-0.000790411,1.196518421,0.066826403,9.731549263
1784247011.853491,0.005887324,-0.123339713,1.868174911,0.000367069,-0.000877861,-0.001605546,1.176597714,0.053113081,9.742650032
1784247011.855478,0.005888351,-0.123337403,1.868175030,0.000967635,-0.001323663,-0.002091557,1.180649519,0.091162853,9.740209579
1784247011.857475,0.005888351,-0.123337403,1.868175030,0.001170215,-0.001523106,-0.001921783,1.200249791,0.076410167,9.700230598
1784247011.859478,0.005888351,-0.123337403,1.868175030,0.000615515,-0.001443619,-0.001996539,1.187075734,0.062737800,9.693406105
1784247011.861472,0.005888883,-0.123336650,1.868175030,-0.000421029,-0.001360562,-0.002106017,1.209118843,0.068981543,9.720815659
1784247011.863474,0.005888883,-0.123336650,1.868175030,-0.001229839,-0.001175585,-0.001842178,1.239011168,0.091060564,9.712467194
1784247011.865477,0.005891104,-0.123339236,1.868175030,-0.001164403,-0.000635680,-0.001357848,1.202439308,0.074738652,9.742365837
1784247011.867476,0.005891104,-0.123339236,1.868175030,-0.000807697,0.000003635,-0.000569914,1.189974904,0.080952063,9.710113525
1784247011.869472,0.005891104,-0.123339236,1.868175030,-0.000532101,0.000288212,0.000165570,1.208375692,0.081558213,9.717757225
1784247011.871477,0.005891704,-0.123338968,1.868175030,-0.000115939,0.000314205,0.000538227,1.204847336,0.085734420,9.703883171
1784247011.873475,0.005891704,-0.123338968,1.868175030,0.000386646,0.000349875,0.000665700,1.204204559,0.070429996,9.714992523
1784247011.875473,0.005891898,-0.123339713,1.868175030,0.000718004,0.000379777,0.000180872,1.195839405,0.085178867,9.735252380
1784247011.877471,0.005891898,-0.123339713,1.868175030,0.000417579,0.000443843,-0.000245153,1.196404338,0.094599381,9.732624054
1784247011.879474,0.005891898,-0.123339713,1.868175030,-0.000096248,0.000181622,0.000435152,1.173393965,0.083356895,9.716838837
1784247011.881484,0.005893607,-0.123337425,1.868175030,-0.000111731,-0.000247814,0.001020248,1.186055541,0.089642249,9.692233086
1784247011.883490,0.005893607,-0.123337425,1.868175030,-0.000046076,-0.000287179,0.000744109,1.202299356,0.098661214,9.717861176
1784247011.885481,0.005895813,-0.123336919,1.868175030,-0.000211712,0.000062880,0.000797442,1.184256077,0.091250412,9.721382141
1784247011.887489,0.005895813,-0.123336919,1.868175030,-0.000409007,0.000080193,0.001574972,1.207948089,0.084162697,9.730327606
1784247011.889483,0.005895813,-0.123336919,1.868175030,-0.000252705,-0.000664182,0.001776617,1.188861728,0.101854958,9.734008789
1784247011.891488,0.005898182,-0.123336293,1.868174911,0.000370679,-0.001133528,0.000877725,1.203819633,0.077018440,9.734311104
1784247011.893495,0.005898182,-0.123336293,1.868174911,0.000938634,-0.000990469,0.000189670,1.184013247,0.070691898,9.714526176
1784247011.895495,0.005898227,-0.123335660,1.868174911,0.001117328,-0.000796268,0.000103749,1.173271298,0.072663054,9.708700180
1784247011.897489,0.005898227,-0.123335660,1.868174911,0.001137555,-0.000762378,0.000166745,1.202219009,0.053951561,9.704573631
1784247011.899492,0.005898227,-0.123335660,1.868174911,0.000935337,-0.000700348,0.000374966,1.212889194,0.047767520,9.735926628
1784247011.901497,0.005897999,-0.123335265,1.868174911,0.000316682,-0.000740849,0.000651790,1.207985044,0.050512169,9.736836433
1784247011.903497,0.005897999,-0.123335265,1.868174911,-0.000188021,-0.000804219,0.000600453,1.197142720,0.080364406,9.716841698
1784247011.905493,0.005899304,-0.123334840,1.868174911,-0.000697555,-0.000561752,0.000708852,1.210170746,0.081131764,9.711479187
1784247011.907528,0.005899304,-0.123334840,1.868174911,-0.001145396,-0.000710380,0.001128870,1.213300228,0.079785787,9.706093788
1784247011.909518,0.005899304,-0.123334840,1.868174911,-0.000661406,-0.001255939,0.000874093,1.203518391,0.089535311,9.738875389
1784247011.911528,0.005900555,-0.123335585,1.868174911,0.000238778,-0.001278417,0.000222103,1.200554967,0.102325141,9.709813118
1784247011.913513,0.005900555,-0.123335585,1.868174911,0.000301008,-0.000895508,0.000253868,1.238151789,0.095424488,9.730426788
1784247011.915529,0.005902776,-0.123337366,1.868174911,-0.000070436,-0.000649507,0.000510835,1.231322289,0.122187823,9.696519852
1784247011.917512,0.005902776,-0.123337366,1.868174911,0.000000619,-0.000758759,0.000173467,1.217172742,0.102236420,9.692343712
1784247011.919514,0.005902776,-0.123337366,1.868174911,0.000247138,-0.001165983,0.000178906,1.209921718,0.060929004,9.717626572
1784247011.921521,0.005902794,-0.123338550,1.868174791,0.000172593,-0.001445002,0.000688014,1.195991158,0.061348516,9.746757507
1784247011.923530,0.005902794,-0.123338550,1.868174791,0.000288196,-0.001106689,0.000502575,1.188498616,0.072241820,9.740543365
1784247011.925526,0.005903309,-0.123337969,1.868174791,0.000953615,-0.000667178,0.000152863,1.186132550,0.059956599,9.708182335
1784247011.927520,0.005903309,-0.123337969,1.868174791,0.001921351,-0.000750403,0.000257656,1.213556647,0.063672520,9.703300476
1784247011.929513,0.005903309,-0.123337969,1.868174791,0.002157249,-0.000715978,0.000333782,1.202588916,0.086052142,9.726299286
1784247011.931526,0.005904496,-0.123337045,1.868174791,0.001233148,-0.000101447,0.000120004,1.223750710,0.091624506,9.723665237
1784247011.933526,0.005904496,-0.123337045,1.868174791,0.000391326,-0.000279597,-0.000418574,1.239872456,0.089142755,9.728595734
1784247011.935519,0.005906244,-0.123338595,1.868174791,0.000168101,-0.001098327,-0.000687778,1.206666470,0.052772399,9.736401558
1784247011.937534,0.005906244,-0.123338595,1.868174791,-0.000022881,-0.000799479,-0.000066616,1.209538937,0.029539920,9.721908569
1784247011.939541,0.005906244,-0.123338595,1.868174791,-0.000572117,0.000032300,0.000767751,1.232001305,0.067462102,9.704238892
1784247011.941534,0.005906824,-0.123339079,1.868174672,-0.000705416,0.000239161,0.001409883,1.227517724,0.066331513,9.682258606
1784247011.943531,0.005906824,-0.123339079,1.868174672,-0.000300525,0.000006129,0.001930485,1.218924642,0.063879788,9.727517128
1784247011.945530,0.005907041,-0.123339698,1.868174791,-0.000203893,-0.000282618,0.001514480,1.207223296,0.097289063,9.712924957
1784247011.947531,0.005907041,-0.123339698,1.868174791,-0.000010082,-0.000799842,0.001137704,1.209225774,0.116737887,9.746676445
1784247011.949529,0.005907041,-0.123339698,1.868174791,0.000544091,-0.001310845,0.001476896,1.225037575,0.125082895,9.741814613
1784247011.951536,0.005909638,-0.123340651,1.868174672,0.000392891,-0.001312931,0.001039206,1.216356397,0.110587485,9.716607094
1784247011.953534,0.005909638,-0.123340651,1.868174672,-0.000253612,-0.000873256,0.000162354,1.204574823,0.064537168,9.723921776
1784247011.955537,0.005909343,-0.123340659,1.868174672,-0.000417321,-0.000556492,-0.000439852,1.228000402,0.072673157,9.734756470
1784247011.957536,0.005909343,-0.123340659,1.868174672,0.000076362,-0.000529336,-0.001041180,1.212491393,0.051417373,9.727431297
1784247011.959543,0.005909343,-0.123340659,1.868174672,0.000703013,-0.000820633,-0.001119513,1.225875139,0.044960722,9.729196548
1784247011.961539,0.005909299,-0.123341374,1.868174672,0.000726352,-0.000886279,-0.000833466,1.212657452,0.063671298,9.705094337
1784247011.963555,0.005909299,-0.123341374,1.868174672,0.000515971,-0.000299574,-0.000964893,1.224408507,0.071079932,9.713221550
1784247011.965546,0.005910133,-0.123341829,1.868174672,0.000194969,-0.000233219,-0.000593568,1.206411362,0.068491764,9.731570244
1784247011.967552,0.005910133,-0.123341829,1.868174672,-0.000178369,-0.001143974,0.000754482,1.208920479,0.090012833,9.724986076
1784247011.969545,0.005910133,-0.123341829,1.868174672,-0.000122442,-0.001699670,0.001196089,1.189189434,0.092384793,9.742018700
1784247011.971557,0.005912260,-0.123341240,1.868174672,-0.000142551,-0.001322007,0.000240379,1.194095850,0.088845961,9.726757050
1784247011.973553,0.005912260,-0.123341240,1.868174672,-0.000804808,-0.000716580,-0.000346723,1.184813857,0.063836977,9.731966972
1784247011.975571,0.005911910,-0.123340860,1.868174672,-0.001380776,-0.000352497,0.000199800,1.211998940,0.086236306,9.746483803
1784247011.977549,0.005911910,-0.123340860,1.868174672,-0.000987291,-0.000184813,0.000400115,1.216596127,0.094343863,9.732194901
1784247011.979557,0.005911910,-0.123340860,1.868174672,-0.000067967,-0.000262267,-0.000302500,1.208612084,0.102472484,9.737617493
1784247011.981563,0.005914618,-0.123341456,1.868174672,0.000400128,-0.000586062,-0.000888365,1.188202500,0.120363213,9.715745926
1784247011.983596,0.005914618,-0.123341456,1.868174672,0.000741390,-0.000786280,-0.001260808,1.215613246,0.087600954,9.737080574
1784247011.985604,0.005915754,-0.123341843,1.868174672,0.001410131,-0.000523128,-0.001456974,1.210311055,0.055185605,9.705485344
1784247011.987568,0.005915754,-0.123341843,1.868174672,0.001718262,-0.000132499,-0.001436589,1.179247856,0.048287746,9.723344803
1784247011.989566,0.005915754,-0.123341843,1.868174672,0.001615204,-0.000042279,-0.001441394,1.215328813,0.065091610,9.752628326
1784247011.991570,0.005916306,-0.123342089,1.868174672,0.000974445,-0.000351315,-0.000978534,1.198072076,0.084657654,9.741529465
1784247011.993570,0.005916306,-0.123342089,1.868174672,0.000433044,-0.000721516,-0.000335392,1.209909439,0.098423578,9.737594604
1784247011.995568,0.005918686,-0.123342380,1.868174672,0.000280607,-0.000521074,-0.000640093,1.215396404,0.105242528,9.713881493
1784247011.997571,0.005918686,-0.123342380,1.868174672,-0.000183597,0.000192818,-0.001852312,1.245842099,0.100683190,9.733160019
1784247011.999573,0.005918686,-0.123342380,1.868174672,-0.000686666,0.000516556,-0.002718705,1.214525461,0.071520828,9.732046127
1784247012.001570,0.005919863,-0.123342603,1.868174672,-0.000755767,0.000058690,-0.002288198,1.222345233,0.087120801,9.729462624
1784247012.003579,0.005919863,-0.123342603,1.868174672,-0.000534205,-0.000118456,-0.001540032,1.193811536,0.103119701,9.736263275
1784247012.005578,0.005922322,-0.123341680,1.868174434,-0.000603129,0.000169514,-0.001083302,1.205394268,0.094611570,9.714699745
1784247012.007617,0.005922322,-0.123341680,1.868174434,-0.000705886,0.000489188,-0.000966673,1.194247603,0.100988626,9.720109940
1784247012.009577,0.005922322,-0.123341680,1.868174434,-0.000343393,0.000918663,-0.001421473,1.210104823,0.075343244,9.706510544
1784247012.011603,0.005923607,-0.123341471,1.868174434,-0.000260568,0.001214822,-0.001644861,1.209337354,0.049732547,9.718002319
1784247012.013612,0.005923607,-0.123341471,1.868174434,-0.000897278,0.000624914,-0.001289690,1.211481214,0.079618007,9.732991219
1784247012.015602,0.005924740,-0.123341344,1.868174434,-0.001310494,-0.000112136,-0.000906221,1.203444839,0.084496446,9.754534721
1784247012.017590,0.005924740,-0.123341344,1.868174434,-0.001092472,0.000498169,-0.000764066,1.236007810,0.067969233,9.751770020
1784247012.019626,0.005924740,-0.123341344,1.868174434,-0.000965731,0.001268541,-0.000893417,1.206059694,0.075747564,9.719960213
1784247012.021596,0.005925526,-0.123341344,1.868174672,-0.001187487,0.001238387,-0.000865079,1.194056988,0.083677121,9.697581291
1784247012.023628,0.005925526,-0.123341344,1.868174672,-0.001333642,0.001069383,-0.000375883,1.194522738,0.085021608,9.696695328
1784247012.025592,0.005926331,-0.123341560,1.868174672,-0.000989086,0.000868962,0.000052984,1.194849849,0.077571854,9.735651970
1784247012.027587,0.005926331,-0.123341560,1.868174672,-0.000793073,0.000564104,-0.000050754,1.209844589,0.091831356,9.719617844
1784247012.029616,0.005926331,-0.123341560,1.868174672,-0.000687716,0.000216649,-0.000163188,1.203051090,0.085747883,9.705225945
1784247012.031603,0.005927478,-0.123341396,1.868174672,-0.000427226,0.000249095,-0.000171005,1.214040518,0.067186877,9.712290764
1784247012.033598,0.005927478,-0.123341396,1.868174672,-0.000645358,0.000997430,-0.000227466,1.209046721,0.063145332,9.722571373
1784247012.035598,0.005927999,-0.123342015,1.868174672,-0.000770990,0.001377354,0.000199883,1.193004608,0.072333775,9.719477654
1784247012.037603,0.005927999,-0.123342015,1.868174672,-0.000689905,0.000896298,0.000507254,1.217960358,0.093252994,9.694079399
1784247012.039601,0.005927999,-0.123342015,1.868174672,-0.000251751,0.000382762,0.000243465,1.216031075,0.085730225,9.747382164
1784247012.041596,0.005929828,-0.123342358,1.868174672,0.000357855,0.000165968,0.000305361,1.235621214,0.074544951,9.772883415
1784247012.043596,0.005929828,-0.123342358,1.868174672,0.000500556,0.000534037,0.000226540,1.204294443,0.079649583,9.741503716
1784247012.045603,0.005930901,-0.123341650,1.868174672,0.000085302,0.001258304,0.000080578,1.178571939,0.103848979,9.724148750
1784247012.047601,0.005930901,-0.123341650,1.868174672,-0.000095895,0.001421202,0.000532012,1.178746819,0.083039895,9.751811981
1784247012.049608,0.005930901,-0.123341650,1.868174672,0.000108744,0.000941161,0.001038595,1.213371754,0.088455670,9.746948242
1784247012.051602,0.005932876,-0.123341560,1.868174672,0.000074604,0.000342219,0.001279592,1.221611619,0.064614035,9.745458603
1784247012.053609,0.005932876,-0.123341560,1.868174672,-0.000035742,0.000181897,0.000626175,1.202743530,0.061030526,9.716274261
1784247012.055611,0.005933047,-0.123340860,1.868174672,-0.000039757,0.000337146,-0.000317542,1.173854709,0.048693404,9.739033699
1784247012.057610,0.005933047,-0.123340860,1.868174672,0.000389311,0.000440715,-0.000210118,1.194857597,0.041258994,9.738556862
1784247012.059613,0.005933047,-0.123340860,1.868174672,0.000576364,0.000730188,0.000410687,1.199705362,0.070392109,9.728437424
1784247012.061617,0.005933118,-0.123340726,1.868174672,0.000406343,0.001034586,0.000826868,1.180099368,0.081046738,9.714589119
1784247012.063619,0.005933118,-0.123340726,1.868174672,0.000789076,0.001199312,0.000733399,1.170889258,0.061467338,9.712213516
1784247012.065619,0.005933055,-0.123339050,1.868174672,0.000907153,0.001378586,0.000087724,1.199233413,0.066566534,9.700167656
1784247012.067620,0.005933055,-0.123339050,1.868174672,0.000336118,0.001045413,0.000083076,1.207359672,0.071717739,9.717244148
1784247012.069620,0.005933055,-0.123339050,1.868174672,-0.000465179,0.000512448,0.001124466,1.199922919,0.087510012,9.715096474
1784247012.071635,0.005933993,-0.123339027,1.868174672,-0.000575257,0.000478291,0.002012196,1.216156363,0.094419546,9.722331047
1784247012.073631,0.005933993,-0.123339027,1.868174672,0.000142818,0.000556891,0.001992825,1.178015113,0.057305533,9.717573166
1784247012.075625,0.005934038,-0.123337992,1.868174672,0.000738942,0.000545129,0.001364684,1.178860188,0.054450475,9.739522934
1784247012.077625,0.005934038,-0.123337992,1.868174672,0.001297492,0.000371900,0.001122992,1.182775974,0.081698321,9.744185448
1784247012.079622,0.005934038,-0.123337992,1.868174672,0.001575798,0.000101881,0.001144485,1.192233562,0.083474368,9.729411125
1784247012.081631,0.005935207,-0.123337179,1.868174672,0.001417235,-0.000072709,0.001123589,1.183919668,0.063063845,9.716270447
1784247012.083630,0.005935207,-0.123337179,1.868174672,0.000903263,-0.000179924,0.001486932,1.183651805,0.081111684,9.762114525
1784247012.085634,0.005935551,-0.123336591,1.868174672,0.000150539,-0.000197961,0.001426425,1.202362418,0.067647584,9.731560707
1784247012.087637,0.005935551,-0.123336591,1.868174672,-0.000249991,-0.000012046,0.000950447,1.193568230,0.083368070,9.741965294
1784247012.089635,0.005935551,-0.123336591,1.868174672,-0.000364252,-0.000114394,0.000909539,1.195505261,0.093788087,9.722307205
1784247012.091639,0.005936399,-0.123336062,1.868174791,-0.000629928,-0.000366204,0.000752099,1.208366275,0.117858358,9.716645241
1784247012.093637,0.005936399,-0.123336062,1.868174791,-0.000748402,-0.000315911,0.000548568,1.200289488,0.118771911,9.728749275
1784247012.095641,0.005940065,-0.123335332,1.868174791,-0.000617217,-0.000157726,0.000744304,1.182482600,0.094278768,9.739782333
1784247012.097641,0.005940065,-0.123335332,1.868174791,-0.000775927,-0.000252749,0.000397922,1.160339117,0.080756374,9.728016853
1784247012.099639,0.005940065,-0.123335332,1.868174791,-0.000659263,-0.000629024,-0.000090429,1.195941687,0.054473665,9.705466270
1784247012.101642,0.005940322,-0.123334497,1.868174791,-0.000046489,-0.000532394,-0.000190559,1.200200677,0.035595443,9.706246376
1784247012.103644,0.005940322,-0.123334497,1.868174791,0.000548033,-0.000157168,-0.000333775,1.165393233,0.051738411,9.704074860
1784247012.105646,0.005939778,-0.123332694,1.868174672,0.000869759,-0.000240057,-0.000855460,1.175515413,0.074260823,9.732026100
1784247012.107651,0.005939778,-0.123332694,1.868174672,0.000526590,-0.000151658,-0.001000917,1.186153769,0.061745267,9.708642006
1784247012.109646,0.005939778,-0.123332694,1.868174672,0.000097289,0.000321018,0.000140683,1.159016013,0.082981624,9.732514381
1784247012.111646,0.005941280,-0.123329945,1.868174672,0.000143838,0.000445605,0.000953622,1.194601774,0.094561972,9.741141319
1784247012.113654,0.005941280,-0.123329945,1.868174672,0.000266828,0.000234510,0.000713916,1.200631022,0.071819879,9.714998245
1784247012.115652,0.005941459,-0.123329587,1.868174672,0.000515392,-0.000263080,0.000555681,1.198314428,0.100756004,9.682452202
1784247012.117666,0.005941459,-0.123329587,1.868174672,0.001077324,-0.000434120,0.000839221,1.208634257,0.102647357,9.712961197
1784247012.119657,0.005941459,-0.123329587,1.868174672,0.001075820,-0.000069087,0.001174214,1.187803745,0.086820193,9.707907677
1784247012.121700,0.005942088,-0.123329073,1.868174791,0.000762915,-0.000266231,0.001162452,1.184513330,0.075143509,9.717695236
1784247012.123671,0.005942088,-0.123329073,1.868174791,0.001143666,-0.001044281,0.000808332,1.185512781,0.082016751,9.694425583
1784247012.125667,0.005943076,-0.123327956,1.868174672,0.001570526,-0.001180270,0.000480790,1.176513433,0.081931420,9.722661018
1784247012.127662,0.005943076,-0.123327956,1.868174672,0.001232452,-0.001057675,0.000459004,1.197131991,0.079875126,9.722666740
1784247012.129665,0.005943076,-0.123327956,1.868174672,0.000493781,-0.001323926,0.000584785,1.178840995,0.089050986,9.725399017
1784247012.131664,0.005944685,-0.123326547,1.868174791,-0.000092766,-0.001012502,0.000534739,1.187472463,0.097075015,9.715595245
1784247012.133672,0.005944685,-0.123326547,1.868174791,-0.000442435,-0.000300380,0.000483056,1.189550757,0.082368456,9.700707436
1784247012.135670,0.005945243,-0.123325847,1.868174791,-0.000301365,-0.000105875,-0.000205637,1.185154200,0.092055351,9.732597351
1784247012.137671,0.005948645,-0.123326689,1.868157387,0.000054758,-0.000228820,-0.002026197,1.176654220,0.054774933,9.697829247
1784247012.139685,0.005945262,-0.123324633,1.868145108,-0.000207467,-0.000095995,-0.003478409,1.199661970,0.065591723,9.710473061
1784247012.141858,0.005939845,-0.123326443,1.868148208,-0.000819006,-0.000111658,-0.003075427,1.198653817,0.056621742,9.713553429
1784247012.143745,0.005934403,-0.123327017,1.868156075,-0.001233445,-0.000293920,-0.001392773,1.170242429,0.081287697,9.698440552
1784247012.145710,0.005936046,-0.123322487,1.868152857,-0.001168508,-0.000049679,-0.000651692,1.181852221,0.077449597,9.713222504
1784247012.147693,0.005935468,-0.123323165,1.868145585,-0.000919961,0.000114610,-0.001176635,1.193801165,0.102633581,9.741639137
1784247012.149696,0.005936172,-0.123325452,1.868138790,-0.000778391,-0.000123826,-0.001795783,1.198773980,0.104483016,9.724620819
1784247012.151698,0.005937852,-0.123323791,1.868135571,-0.000601599,-0.000119876,-0.001992993,1.208948016,0.090229072,9.694499969
1784247012.153694,0.005936630,-0.123321697,1.868140101,-0.000507520,0.000184602,-0.001358806,1.181762218,0.106223427,9.699508667
1784247012.155687,0.005944390,-0.123322725,1.868134379,-0.000098118,0.000115967,-0.001096453,1.177985549,0.092230007,9.720935822
1784247012.157692,0.005950019,-0.123325564,1.868124604,0.000542362,-0.000273508,-0.001917581,1.208604336,0.063605405,9.721677780
1784247012.159692,0.005951125,-0.123324730,1.868121266,0.000739617,-0.000339561,-0.002316410,1.216255426,0.065312222,9.719902992
1784247012.161690,0.005946767,-0.123327009,1.868118167,0.000250645,-0.000258073,-0.002083733,1.196578383,0.072567217,9.743244171
1784247012.163693,0.005945594,-0.123332754,1.868113041,-0.000272894,-0.000646222,-0.002025300,1.195968032,0.057113733,9.712209702
1784247012.165695,0.005941899,-0.123335935,1.868112087,-0.000529984,-0.001111091,-0.001857187,1.181289554,0.069261685,9.731552124
1784247012.167689,0.005943187,-0.123337545,1.868113279,-0.000498200,-0.001166664,-0.001317601,1.178981543,0.063108005,9.718956947
1784247012.169797,0.005936493,-0.123339295,1.868112087,-0.000726835,-0.001078550,-0.000906151,1.174257398,0.081051528,9.724445343
1784247012.171707,0.005930450,-0.123338856,1.868103147,-0.001542187,-0.000949602,-0.001220845,1.168208241,0.100394346,9.724564552
1784247012.173707,0.005922881,-0.123341665,1.868102193,-0.002191268,-0.000927289,-0.001414479,1.172564507,0.090389498,9.737505913
1784247012.175705,0.005923205,-0.123343781,1.868110061,-0.002108016,-0.001085664,-0.000472521,1.187556267,0.067440227,9.724371910
1784247012.177708,0.005930942,-0.123348199,1.868117452,-0.000946546,-0.001305560,0.000648096,1.222405553,0.055274837,9.734189987
1784247012.179704,0.005930790,-0.123355098,1.868119240,-0.000102115,-0.001715066,0.001029819,1.197603703,0.080050610,9.697113991
1784247012.181717,0.005922710,-0.123359762,1.868120432,-0.000607720,-0.002053418,0.000999016,1.221602559,0.099700645,9.725955963
1784247012.183711,0.005918019,-0.123363383,1.868117809,-0.001316609,-0.002078692,0.000724541,1.193347216,0.102191359,9.741637230
1784247012.185711,0.005921100,-0.123363107,1.868114591,-0.001304933,-0.001830596,0.000165878,1.173165917,0.102126129,9.724132538
1784247012.187715,0.005925988,-0.123358920,1.868115544,-0.000622034,-0.001118152,-0.000074603,1.189762473,0.101465456,9.724143982
1784247012.189710,0.005927265,-0.123358876,1.868113041,-0.000051539,-0.000528154,-0.000213176,1.184919119,0.108740591,9.717909813
1784247012.191711,0.005931199,-0.123362750,1.868109941,0.000050649,-0.000705501,-0.000552678,1.186501145,0.092854530,9.743812561
1784247012.193716,0.005928293,-0.123368502,1.868108153,-0.000150603,-0.001228260,-0.000712375,1.192364693,0.092614815,9.703914642
1784247012.195712,0.005932753,-0.123366669,1.868103266,-0.000201791,-0.001177246,-0.000970568,1.220016003,0.079988524,9.728518486
1784247012.197716,0.005931382,-0.123370826,1.868099928,-0.000147253,-0.001032414,-0.001266225,1.219363928,0.063394293,9.731998444
1784247012.199715,0.005925898,-0.123378739,1.868101120,-0.000585776,-0.001572708,-0.000998567,1.202162027,0.051476467,9.737733841
1784247012.201724,0.005924576,-0.123378970,1.868104100,-0.000776950,-0.001718247,-0.000386803,1.192922473,0.067228138,9.744551659
1784247012.203722,0.005924542,-0.123377331,1.868101358,-0.000582991,-0.001177900,-0.000261942,1.172687650,0.062686481,9.726568222
1784247012.205724,0.005928688,-0.123374030,1.868097425,-0.000240630,-0.000693335,-0.000675606,1.178937912,0.059521139,9.719380379
1784247012.207724,0.005928595,-0.123377748,1.868098974,0.000040340,-0.000702429,-0.000690094,1.170295000,0.087781355,9.730315208
1784247012.209729,0.005925306,-0.123377427,1.868096352,-0.000207696,-0.000741056,-0.000557132,1.180518270,0.079589002,9.729823112
1784247012.211725,0.005919762,-0.123373814,1.868092775,-0.000908095,-0.000401836,-0.000747878,1.197150707,0.081238076,9.719986916
1784247012.213737,0.005912890,-0.123377696,1.868092537,-0.001638877,-0.000441544,-0.000690214,1.187124014,0.070413172,9.748151779
1784247012.215728,0.005915185,-0.123379640,1.868089795,-0.001541976,-0.000801242,-0.000649048,1.176760077,0.068578690,9.772788048
1784247012.217735,0.005915870,-0.123380385,1.868085504,-0.000998158,-0.000850287,-0.000960106,1.228360772,0.064270601,9.718561172
1784247012.219735,0.005917662,-0.123385437,1.868086696,-0.000585929,-0.001013843,-0.000916618,1.207117915,0.052788906,9.733263969
1784247012.221739,0.005912651,-0.123390287,1.868088722,-0.000561063,-0.001420888,-0.000417631,1.207188010,0.058205780,9.727470398
1784247012.223737,0.005909772,-0.123392068,1.868087053,-0.000883682,-0.001496644,-0.000233954,1.201952934,0.070395164,9.723956108
1784247012.225740,0.005909288,-0.123396859,1.868088365,-0.000901776,-0.001571727,-0.000172121,1.185634851,0.092707410,9.703012466
1784247012.227739,0.005903684,-0.123402648,1.868090868,-0.001063254,-0.001896695,0.000178063,1.211221695,0.095302403,9.733092308
1784247012.229746,0.005903487,-0.123403184,1.868093491,-0.001123315,-0.001810508,0.000507266,1.209901333,0.097143285,9.728618622
1784247012.231740,0.005912853,-0.123403549,1.868093252,-0.000294278,-0.001359379,0.000461809,1.208101749,0.097128138,9.733996391
1784247012.233747,0.005910781,-0.123404130,1.868100166,0.000218532,-0.001031635,0.000735424,1.199289799,0.070658587,9.691675186
1784247012.235745,0.005911928,-0.123409636,1.868108511,0.000188946,-0.001152388,0.001563920,1.213569641,0.066207662,9.724836349
1784247012.237749,0.005918429,-0.123411819,1.868108988,0.000691739,-0.001350905,0.001662237,1.193924069,0.111707278,9.725558281
1784247012.239750,0.005921893,-0.123411827,1.868106008,0.001154181,-0.001131816,0.000959812,1.197216392,0.086619958,9.719123840
1784247012.241750,0.005921137,-0.123410940,1.868109345,0.000932533,-0.000733750,0.000701268,1.198325396,0.067305423,9.723933220
1784247012.243750,0.005920399,-0.123406634,1.868106008,0.000484915,-0.000152690,0.000514089,1.205670834,0.079467356,9.701601028
1784247012.245754,0.005927012,-0.123407342,1.868101120,0.000610881,0.000143390,-0.000217969,1.205620289,0.077446587,9.733868599
1784247012.247754,0.005929031,-0.123408638,1.868098855,0.000897295,-0.000021332,-0.000698921,1.197552681,0.077216573,9.717720032
1784247012.249760,0.005927738,-0.123412497,1.868092895,0.000633435,-0.000370004,-0.001087417,1.209220290,0.077886701,9.728493690
1784247012.251759,0.005926241,-0.123415053,1.868088961,0.000132871,-0.000728236,-0.001443711,1.224472404,0.077662617,9.732542992
1784247012.253765,0.005925247,-0.123412922,1.868089557,-0.000156069,-0.000578805,-0.001249565,1.200276136,0.078643620,9.701143265
1784247012.255758,0.005929351,-0.123415589,1.868088603,0.000048291,-0.000529414,-0.000945337,1.200320959,0.046676822,9.722905159
1784247012.257761,0.005933435,-0.123418555,1.868088961,0.000537098,-0.000838750,-0.000779250,1.200873137,0.054782066,9.716234207
1784247012.259766,0.005931233,-0.123418801,1.868090510,0.000533659,-0.000827450,-0.000458940,1.227012873,0.065488659,9.738742828
1784247012.261878,0.005926491,-0.123416662,1.868099213,0.000027896,-0.000403684,0.000407731,1.197533607,0.076660499,9.732957840
1784247012.263800,0.005932060,-0.123409405,1.868107796,0.000242647,0.000418168,0.001458069,1.225520968,0.088570699,9.708851814
1784247012.265786,0.005938493,-0.123403735,1.868107557,0.000946045,0.001285175,0.001539625,1.209299445,0.084996864,9.736609459
1784247012.267780,0.005935699,-0.123404682,1.868100762,0.000767512,0.001354122,0.000638058,1.206228375,0.090047345,9.724983215
1784247012.269810,0.005932420,-0.123408504,1.868091583,0.000015871,0.000658405,-0.000565422,1.213391304,0.051831570,9.730573654
1784247012.271806,0.005930730,-0.123404615,1.868095756,-0.000330853,0.000486975,-0.000717884,1.210830331,0.063033305,9.735126495
1784247012.273796,0.005925001,-0.123404078,1.868099809,-0.000636575,0.000663005,0.000093284,1.238687038,0.101776049,9.718364716
1784247012.275797,0.005928737,-0.123413540,1.868104100,-0.000705067,-0.000002166,0.000643931,1.247753859,0.071692787,9.711007118
1784247012.277822,0.005930234,-0.123414628,1.868105769,-0.000285591,-0.000598575,0.000846625,1.224398375,0.068973668,9.694378853
1784247012.279825,0.005928718,-0.123410083,1.868104339,-0.000205246,-0.000200557,0.000655581,1.210838675,0.063503519,9.731990814
1784247012.281849,0.005933777,-0.123408996,1.868100762,0.000000478,0.000234347,0.000102258,1.218396664,0.057585470,9.731511116
1784247012.283813,0.005942103,-0.123410366,1.868099570,0.000815165,0.000148461,-0.000374227,1.206497788,0.076062590,9.737895012
1784247012.285800,0.005945862,-0.123408109,1.868107677,0.001353396,0.000171395,0.000109430,1.214479923,0.067107983,9.722601891
1784247012.287800,0.005946629,-0.123410843,1.868113041,0.001291275,0.000099795,0.000984058,1.234294534,0.073094688,9.727142334
1784247012.289803,0.005950548,-0.123413995,1.868108392,0.001262134,-0.000325099,0.000734626,1.223615408,0.080425479,9.723592758
1784247012.291795,0.005953931,-0.123414911,1.868099570,0.001209041,-0.000448317,-0.000420894,1.211266637,0.097682118,9.713379860
1784247012.293796,0.005953469,-0.123419896,1.868097544,0.000897288,-0.000662458,-0.001047182,1.206038952,0.112362124,9.737679482
1784247012.295810,0.005952306,-0.123423763,1.868098140,0.000286330,-0.001052514,-0.000819372,1.196432590,0.096038647,9.719182968
1784247012.297803,0.005953648,-0.123421125,1.868099570,-0.000008936,-0.000817521,-0.000451715,1.181592584,0.092727356,9.707490921
1784247012.299811,0.005958703,-0.123420008,1.868092775,0.000377331,-0.000343177,-0.000776946,1.196152210,0.071940966,9.706027031
1784247012.301811,0.005961027,-0.123419218,1.868084431,0.000604445,-0.000137156,-0.001646550,1.194979429,0.087509669,9.724059105
1784247012.303809,0.005965106,-0.123416007,1.868081093,0.000734688,0.000155751,-0.002026582,1.224188566,0.052322794,9.705032349
1784247012.305804,0.005970475,-0.123417661,1.868077397,0.001135486,0.000292176,-0.002032597,1.222259045,0.041149940,9.704509735
1784247012.307810,0.005970337,-0.123413384,1.868075848,0.001156706,0.000465590,-0.001892583,1.208074331,0.056485105,9.715803146
1784247012.309845,0.005969401,-0.123408891,1.868078351,0.000776994,0.000935288,-0.001319951,1.218679905,0.044115447,9.735012054
1784247012.311823,0.005968205,-0.123403601,1.868078709,0.000428688,0.001367342,-0.000757994,1.219234824,0.051432882,9.713091850
1784247012.313844,0.005967334,-0.123404130,1.868080258,0.000171378,0.001340474,-0.000404678,1.231084585,0.104100846,9.720165253
1784247012.315817,0.005965117,-0.123406194,1.868086815,-0.000203450,0.000816067,0.000318945,1.189063191,0.081255712,9.732083321
1784247012.317818,0.005965829,-0.123405948,1.868088841,-0.000367447,0.000486864,0.000846565,1.221930623,0.091447182,9.751907349
1784247012.319859,0.005965509,-0.123406678,1.868085742,-0.000249456,0.000320685,0.000545749,1.218092322,0.070483528,9.745491982
1784247012.321826,0.005959347,-0.123407297,1.868082166,-0.000741691,0.000171743,0.000018653,1.186659217,0.067454897,9.723922729
1784247012.323818,0.005957403,-0.123408951,1.868089914,-0.001120723,0.000004926,0.000374436,1.212100267,0.053904582,9.693372726
1784247012.325819,0.005961798,-0.123408750,1.868087292,-0.000582407,-0.000053163,0.000599164,1.225709677,0.069086418,9.739213943
1784247012.327819,0.005963933,-0.123407856,1.868080258,-0.000041343,0.000071327,-0.000282964,1.194808245,0.073190816,9.721726418
1784247012.329827,0.005963397,-0.123403832,1.868079424,0.000011215,0.000380583,-0.000744391,1.190433741,0.083052568,9.728958130
1784247012.331820,0.005959578,-0.123401195,1.868080735,-0.000349567,0.000624302,-0.000449254,1.205748558,0.086971432,9.717341423
1784247012.333828,0.005953331,-0.123393930,1.868078709,-0.001007712,0.001022324,-0.000269753,1.205320835,0.088762641,9.718248367
1784247012.335825,0.005951837,-0.123390123,1.868073463,-0.001394079,0.001458146,-0.000607375,1.180839181,0.069254711,9.733344078
1784247012.337831,0.005950522,-0.123389624,1.868078589,-0.001283713,0.001318777,-0.000422008,1.208884954,0.048899602,9.709926605
1784247012.339842,0.005949832,-0.123391166,1.868076444,-0.001044585,0.000890333,-0.000089970,1.215893388,0.072485350,9.719947815
1784247012.341837,0.005949281,-0.123397067,1.868073583,-0.000891643,0.000167784,-0.000391959,1.186536670,0.094351031,9.722301483
1784247012.343840,0.005954445,-0.123400606,1.868078113,-0.000330564,-0.000491863,-0.000214842,1.184069395,0.075187407,9.712312698
1784247012.345837,0.005951673,-0.123398453,1.868090868,-0.000008976,-0.000438134,0.001000132,1.218235850,0.119339287,9.742667198
1784247012.347834,0.005943739,-0.123398826,1.868086696,-0.000729634,-0.000187827,0.001415540,1.209591508,0.072406866,9.742358208
1784247012.349838,0.005945456,-0.123400912,1.868084431,-0.001002311,-0.000307769,0.000669872,1.213402510,0.053540748,9.742239952
1784247012.351844,0.005951166,-0.123398721,1.868093729,-0.000152118,-0.000213333,0.000923620,1.205687642,0.084867969,9.761263847
1784247012.353845,0.005952798,-0.123395897,1.868101358,0.000541696,0.000192660,0.001760335,1.204076648,0.097284809,9.719199181
1784247012.355838,0.005954016,-0.123400860,1.868100524,0.000555443,0.000029618,0.001734722,1.197621584,0.083433978,9.725380898
1784247012.357843,0.005955484,-0.123406976,1.868102431,0.000505546,-0.000698048,0.001315436,1.201940417,0.068269826,9.707801819
1784247012.359843,0.005955264,-0.123405345,1.868101120,0.000455689,-0.000813797,0.000976174,1.209080338,0.066652700,9.733354568
1784247012.361842,0.005951058,-0.123400800,1.868100524,-0.000024015,-0.000118818,0.000642403,1.179480672,0.068363324,9.735130310
1784247012.363847,0.005942304,-0.123401783,1.868102789,-0.000918542,0.000211469,0.000704289,1.184750080,0.096871026,9.749216080
1784247012.365847,0.005948835,-0.123396397,1.868100882,-0.000937959,0.000356375,0.000569325,1.155651927,0.101019204,9.722314835
1784247012.367851,0.005949058,-0.123390988,1.868094206,-0.000421518,0.000892293,-0.000193671,1.200409651,0.091046639,9.720949173
1784247012.369852,0.005941596,-0.123386391,1.868093133,-0.000858867,0.001326478,-0.000588088,1.218876004,0.095817961,9.709789276
1784247012.371849,0.005943869,-0.123382039,1.868094563,-0.001106650,0.001620694,-0.000333873,1.189053893,0.077535659,9.688122749
1784247012.373856,0.005944301,-0.123381227,1.868092299,-0.000765239,0.001578296,-0.000293696,1.158932447,0.039869856,9.746583939
1784247012.375857,0.005943024,-0.123384699,1.868090272,-0.000595925,0.000847626,-0.000485073,1.200652480,0.074015163,9.721288681
1784247012.377860,0.005938587,-0.123386763,1.868090272,-0.000782508,0.000119585,-0.000445555,1.193844914,0.067413785,9.716755867
1784247012.379865,0.005935230,-0.123381428,1.868090749,-0.001091862,0.000309945,-0.000232508,1.199237585,0.068625078,9.725735664
1784247012.381864,0.005934377,-0.123376876,1.868094683,-0.001095615,0.000930660,0.000178457,1.199221492,0.064850993,9.689396858
1784247012.383862,0.005934023,-0.123377159,1.868098617,-0.000867889,0.001001159,0.000674651,1.199820161,0.079402201,9.721321106
1784247012.385866,0.005933527,-0.123380929,1.868102312,-0.000654730,0.000404146,0.001014533,1.189375401,0.070041411,9.733357430
1784247012.387863,0.005934176,-0.123380952,1.868104577,-0.000444752,-0.000012697,0.001154011,1.185408235,0.075923003,9.732493401
1784247012.389865,0.005932112,-0.123380423,1.868107200,-0.000378304,0.000026998,0.001185187,1.206590295,0.083277658,9.731216431
1784247012.391865,0.005930610,-0.123378083,1.868105292,-0.000616999,0.000204554,0.000955545,1.198476672,0.079441696,9.718182564
1784247012.393874,0.005924930,-0.123373233,1.868105054,-0.001058566,0.000625771,0.000626988,1.189343333,0.066140115,9.714950562
1784247012.395869,0.005917006,-0.123373665,1.868104100,-0.001725960,0.000755696,0.000494414,1.210948706,0.071261942,9.711865425
1784247012.397870,0.005910174,-0.123374909,1.868103862,-0.002288994,0.000437080,0.000413462,1.197475672,0.069718890,9.701083183
1784247012.399884,0.005908192,-0.123373687,1.868112206,-0.002192962,0.000321967,0.000933603,1.185964465,0.082439899,9.697117805
1784247012.401874,0.005915185,-0.123366751,1.868119121,-0.001196172,0.000747878,0.001677870,1.174187303,0.076444738,9.742349625
1784247012.403873,0.005920701,-0.123368077,1.868114591,-0.000071968,0.000879622,0.001281004,1.193825841,0.102827549,9.714293480
1784247012.405876,0.005927142,-0.123372823,1.868117929,0.000540464,0.000223185,0.000770749,1.185195446,0.094406441,9.716920853
1784247012.407880,0.005926688,-0.123376839,1.868122339,0.000657675,-0.000435452,0.001047371,1.199454665,0.086549886,9.724954605
1784247012.409886,0.005922124,-0.123375937,1.868119001,0.000151406,-0.000528686,0.000889065,1.202711463,0.059156023,9.727919579
1784247012.411885,0.005916097,-0.123373285,1.868117571,-0.000663884,-0.000157707,0.000432492,1.188002586,0.065795258,9.702841759
1784247012.413888,0.005909347,-0.123369493,1.868116975,-0.001382704,0.000310667,0.000299358,1.165778518,0.085579969,9.732985497
1784247012.415884,0.005906035,-0.123368800,1.868110180,-0.001817582,0.000419250,-0.000177871,1.181146026,0.059212573,9.758835793
1784247012.417886,0.005909150,-0.123373024,1.868107557,-0.001488814,-0.000047145,-0.000762215,1.175624728,0.082822941,9.724907875
1784247012.419893,0.005909522,-0.123371184,1.868110180,-0.000850853,-0.000196866,-0.000590501,1.187289715,0.082257301,9.720432281
1784247012.421889,0.005908070,-0.123368226,1.868114829,-0.000762200,0.000144778,0.000078058,1.176849842,0.107687786,9.691443443
1784247012.423895,0.005911105,-0.123365872,1.868115306,-0.000534123,0.000428894,0.000403086,1.159200430,0.097812027,9.725884438
1784247012.425891,0.005908513,-0.123361818,1.868112564,-0.000456956,0.000657928,0.000134397,1.180806756,0.105777048,9.764063835
1784247012.427890,0.005909272,-0.123360530,1.868116140,-0.000528641,0.000752721,0.000172728,1.169601798,0.105209284,9.738046646
1784247012.429892,0.005913292,-0.123359762,1.868115187,-0.000040021,0.000689508,0.000272982,1.177230358,0.103091121,9.707105637
1784247012.431896,0.005920414,-0.123355240,1.868106604,0.000554847,0.000808299,-0.000537225,1.192365289,0.093024611,9.709297180
1784247012.433898,0.005928670,-0.123347402,1.868110776,0.001318112,0.001375265,-0.000799319,1.193114758,0.081308901,9.717292786
1784247012.435908,0.005936590,-0.123344138,1.868108273,0.001981079,0.001730709,-0.000593263,1.177886128,0.083340742,9.711014748
1784247012.437902,0.005936604,-0.123344116,1.868107080,0.001862315,0.001458040,-0.000753952,1.192229152,0.081819236,9.710121155
1784247012.439908,0.005939685,-0.123345211,1.868109107,0.001573132,0.000989387,-0.000511802,1.187561989,0.068701439,9.736037254
1784247012.441905,0.005946167,-0.123344935,1.868109941,0.001759799,0.000625142,-0.000244636,1.192368150,0.056673612,9.717582703
1784247012.443907,0.005950518,-0.123344682,1.868108392,0.001951604,0.000450737,-0.000302137,1.181617498,0.058171373,9.715340614
1784247012.445907,0.005948619,-0.123342961,1.868100524,0.001478674,0.000405498,-0.000868047,1.196655869,0.076827809,9.710990906
1784247012.447910,0.005941786,-0.123341039,1.868100524,0.000393589,0.000487305,-0.001082274,1.199530482,0.094038047,9.742935181
1784247012.449911,0.005940073,-0.123337306,1.868100524,-0.000287567,0.000740392,-0.000695529,1.177745461,0.073720530,9.740989685
1784247012.451915,0.005942957,-0.123334557,1.868094563,-0.000204070,0.000921502,-0.000900286,1.181659460,0.061338902,9.710877419
1784247012.453915,0.005943895,-0.123331152,1.868097067,0.000055130,0.001032525,-0.000922888,1.193948388,0.077551544,9.740135193
1784247012.455917,0.005942629,-0.123332396,1.868102789,0.000077098,0.000912121,-0.000110357,1.201230288,0.083944060,9.710143089
1784247012.457919,0.005940855,-0.123342432,1.868104339,-0.000097546,-0.000091274,0.000440056,1.186737657,0.073341988,9.714994431
1784247012.459920,0.005935282,-0.123349510,1.868102074,-0.000571548,-0.001229380,0.000332755,1.199361086,0.079731897,9.738807678
1784247012.461926,0.005938326,-0.123347856,1.868100166,-0.000636434,-0.001267878,-0.000011339,1.188237071,0.086693630,9.724944115
1784247012.463975,0.005950410,-0.123344347,1.868107915,0.000588583,-0.000574883,0.000267534,1.198506117,0.081700586,9.715507507
1784247012.465935,0.005951189,-0.123348214,1.868105412,0.001259950,-0.000445644,0.000468245,1.185336947,0.107276477,9.734040260
1784247012.467936,0.005944875,-0.123347856,1.868103385,0.000427924,-0.000568139,0.000105705,1.179789662,0.093496844,9.728566170
1784247012.469929,0.005941906,-0.123349220,1.868108749,-0.000286027,-0.000479542,0.000383972,1.177466393,0.086412251,9.720897675
1784247012.471934,0.005939994,-0.123347253,1.868111372,-0.000553478,-0.000401384,0.000857941,1.161420345,0.095572084,9.721836090
1784247012.473935,0.005935126,-0.123344488,1.868106484,-0.000960735,-0.000068073,0.000536507,1.173684716,0.071974047,9.741872787
1784247012.475943,0.005936582,-0.123345353,1.868102551,-0.001005366,-0.000023201,-0.000149651,1.171778798,0.060582172,9.709070206
1784247012.477938,0.005944544,-0.123348475,1.868093610,-0.000209564,-0.000392991,-0.001047576,1.151254892,0.073519558,9.753966331
1784247012.479944,0.005949728,-0.123344503,1.868090153,0.000628003,-0.000233067,-0.001716956,1.170635343,0.079219840,9.736536026
1784247012.481942,0.005948901,-0.123338796,1.868094683,0.000680187,0.000333346,-0.001210122,1.193012953,0.072400570,9.710062027
1784247012.483947,0.005944085,-0.123342216,1.868097305,0.000096831,0.000245595,-0.000339223,1.204109430,0.063195854,9.724359512
1784247012.485946,0.005939309,-0.123348631,1.868100524,-0.000515818,-0.000463947,0.000237167,1.190213680,0.063888811,9.714937210
1784247012.487944,0.005938102,-0.123346984,1.868098617,-0.000758725,-0.000638946,0.000316304,1.220658422,0.058106434,9.717169762
1784247012.489945,0.005937815,-0.123347752,1.868097663,-0.000677889,-0.000407233,0.000051433,1.160961032,0.094681926,9.721830368
1784247012.491946,0.005939674,-0.123351768,1.868099570,-0.000444426,-0.000763731,0.000090502,1.182984710,0.061562929,9.740020752
1784247012.493952,0.005940841,-0.123348922,1.868104219,-0.000127899,-0.000775350,0.000499666,1.181169152,0.059800450,9.739111900
1784247012.495952,0.005941179,-0.123345010,1.868099332,-0.000034818,-0.000221589,0.000349356,1.197150350,0.082044967,9.732544899
1784247012.497950,0.005942267,-0.123355083,1.868099332,-0.000011982,-0.000697774,-0.000071995,1.176663637,0.058091529,9.735509872
1784247012.499954,0.005945836,-0.123356462,1.868101835,0.000326419,-0.001285005,0.000089573,1.177701831,0.106506914,9.729993820
1784247012.501954,0.005949248,-0.123354919,1.868101478,0.000580045,-0.001064681,0.000174793,1.197911739,0.105581224,9.697726250
1784247012.503960,0.005943094,-0.123356648,1.868098021,0.000060063,-0.000930694,-0.000071273,1.217394948,0.084232740,9.703435898
1784247012.505960,0.005937983,-0.123360701,1.868098974,-0.000845530,-0.001026283,-0.000108029,1.206511855,0.076173872,9.722205162
1784247012.508063,0.005934902,-0.123356931,1.868096948,-0.001284372,-0.000720760,-0.000060157,1.183919907,0.064280547,9.734211922
1784247012.510004,0.005934708,-0.123355053,1.868097544,-0.001166088,-0.000142485,-0.000094812,1.201493859,0.070318237,9.735610962
1784247012.512001,0.005936657,-0.123358406,1.868096471,-0.000705560,-0.000211343,-0.000104142,1.209631324,0.074341781,9.722195625
1784247012.513993,0.005938944,-0.123359896,1.868087888,-0.000280645,-0.000492475,-0.000761949,1.204717994,0.040640030,9.744839668
1784247012.515992,0.005932976,-0.123358384,1.868081450,-0.000491152,-0.000365802,-0.001547015,1.172807813,0.071741082,9.713177681
1784247012.518025,0.005935699,-0.123363219,1.868083954,-0.000522113,-0.000495481,-0.001361793,1.188454986,0.067844890,9.728857994
1784247012.519994,0.005945728,-0.123368911,1.868088007,0.000533635,-0.001073099,-0.000650181,1.202963233,0.078974403,9.712803841
1784247012.522037,0.005951315,-0.123375572,1.868089795,0.001392722,-0.001548413,-0.000204148,1.183262229,0.084421672,9.738374710
1784247012.524012,0.005949799,-0.123384245,1.868085265,0.001167663,-0.002098501,-0.000369104,1.206406474,0.068046972,9.731119156
1784247012.526049,0.005953264,-0.123391658,1.868085623,0.000912165,-0.002623688,-0.000580370,1.229962349,0.086127147,9.729463577
1784247012.528008,0.005953502,-0.123395920,1.868088722,0.000908930,-0.002705366,-0.000226858,1.214603901,0.078217991,9.735226631
1784247012.530024,0.005950961,-0.123400129,1.868088245,0.000529246,-0.002544808,0.000031299,1.178277373,0.080853522,9.745072365
1784247012.532036,0.005947628,-0.123403847,1.868088365,-0.000036575,-0.002459617,0.000038208,1.186186671,0.066462994,9.738262177
1784247012.534035,0.005945031,-0.123409078,1.868086100,-0.000467324,-0.002468577,-0.000083546,1.187381506,0.053092744,9.726073265
1784247012.536027,0.005941857,-0.123413958,1.868087292,-0.000709952,-0.002566311,-0.000100430,1.191603184,0.067861870,9.720792770
1784247012.538024,0.005942069,-0.123412080,1.868087053,-0.000682829,-0.002154392,-0.000001404,1.179110169,0.073849536,9.720370293
1784247012.540059,0.005943984,-0.123409592,1.868079305,-0.000420324,-0.001277194,-0.000539425,1.199877143,0.084310688,9.724042892
1784247012.542046,0.005944406,-0.123413540,1.868076921,-0.000270167,-0.001122813,-0.001078547,1.199175715,0.100864962,9.728631973
1784247012.544042,0.005949847,-0.123419970,1.868076801,0.000139008,-0.001610433,-0.001004812,1.224521756,0.081700630,9.731671333
1784247012.546032,0.005952854,-0.123419307,1.868079185,0.000604327,-0.001483365,-0.000641264,1.210289955,0.092610240,9.735315323
1784247012.548051,0.005946849,-0.123411864,1.868081570,0.000193505,-0.000448304,-0.000119637,1.211397648,0.074499674,9.759858131
1784247012.550051,0.005947415,-0.123406775,1.868078589,-0.000229166,0.000525151,-0.000081596,1.199508309,0.053436350,9.718913078
1784247012.552027,0.005949944,-0.123407885,1.868076921,-0.000000696,0.000600651,-0.000399545,1.197646499,0.046851218,9.703178406
1784247012.554025,0.005945635,-0.123412877,1.868077636,-0.000131629,-0.000026883,-0.000346615,1.189588428,0.048317667,9.700489998
1784247012.556055,0.005946249,-0.123417094,1.868079066,-0.000302147,-0.000700432,-0.000110810,1.212128520,0.057774067,9.716263771
1784247012.558034,0.005950917,-0.123417675,1.868081212,0.000191556,-0.000892003,0.000099723,1.209054351,0.064825892,9.738273621
1784247012.560055,0.005955477,-0.123418175,1.868076086,0.000736407,-0.000724804,-0.000196198,1.189858913,0.071525805,9.712743759
1784247012.562030,0.005963635,-0.123421371,1.868071198,0.001295305,-0.000781640,-0.000917962,1.181919932,0.084064104,9.728058815
1784247012.564015,0.005965337,-0.123425558,1.868067026,0.001518718,-0.001073606,-0.001355189,1.177127242,0.094576702,9.707498550
1784247012.566026,0.005959589,-0.123423815,1.868073821,0.000759788,-0.001047906,-0.000771249,1.203654766,0.063153908,9.731083870
1784247012.568038,0.005962920,-0.123423010,1.868074059,0.000354560,-0.000690562,-0.000054905,1.213303089,0.079808041,9.702956200
1784247012.570029,0.005966909,-0.123426907,1.868066669,0.000691532,-0.000718624,-0.000580663,1.222654104,0.076284498,9.740602493
1784247012.572021,0.005966220,-0.123427458,1.868063927,0.000593116,-0.000806360,-0.001127060,1.189396501,0.070613362,9.715875626
1784247012.574027,0.005967882,-0.123426400,1.868064761,0.000433383,-0.000530771,-0.000963747,1.196002245,0.097000740,9.710670471
1784247012.576020,0.005976629,-0.123428501,1.868068099,0.000911209,-0.000482622,-0.000483645,1.233967543,0.082977831,9.724067688
1784247012.578029,0.005980864,-0.123429574,1.868067503,0.001420715,-0.000592615,-0.000242759,1.215164304,0.087603517,9.737529755
1784247012.580028,0.005986497,-0.123428896,1.868072867,0.001739684,-0.000456965,0.000060207,1.206164598,0.084274724,9.717772484
1784247012.582048,0.005990290,-0.123427659,1.868073225,0.001811262,-0.000158974,0.000372027,1.224272847,0.060687792,9.725709915
1784247012.584038,0.005984035,-0.123427801,1.868068695,0.000978129,-0.000000800,0.000019792,1.194988847,0.085965842,9.689079285
1784247012.586035,0.005979240,-0.123424523,1.868065238,-0.000170160,0.000175370,-0.000417847,1.213716030,0.077089086,9.706525803
1784247012.588032,0.005975649,-0.123425044,1.868067265,-0.000772839,0.000280642,-0.000321227,1.189087868,0.083476439,9.734788895
1784247012.590040,0.005973939,-0.123424612,1.868075490,-0.000835558,0.000204743,0.000489032,1.205927491,0.101757318,9.716988564
1784247012.592034,0.005974278,-0.123420134,1.868076801,-0.000714851,0.000472085,0.001009151,1.205050707,0.065961152,9.711826324
1784247012.594040,0.005977590,-0.123420671,1.868074894,-0.000372849,0.000596532,0.000665992,1.191701770,0.075124644,9.707388878
1784247012.596044,0.005978432,-0.123420209,1.868085265,0.000034024,0.000357741,0.001028181,1.191024661,0.057116561,9.720722198
1784247012.598039,0.005975299,-0.123417832,1.868088007,-0.000066043,0.000383838,0.001653553,1.205127358,0.075482443,9.758961678
1784247012.600042,0.005974841,-0.123418353,1.868088365,-0.000263888,0.000408291,0.001441044,1.242097378,0.087751038,9.731278419
1784247012.602044,0.005974722,-0.123426460,1.868088603,-0.000287070,-0.000132068,0.001102798,1.199719667,0.108093351,9.719264984
1784247012.604049,0.005975221,-0.123425893,1.868088007,-0.000248766,-0.000453870,0.000784670,1.190010667,0.084881961,9.724485397
1784247012.606052,0.005984474,-0.123423792,1.868088245,0.000399511,-0.000190457,0.000466418,1.212441325,0.084559523,9.729437828
1784247012.608050,0.005996931,-0.123426817,1.868085980,0.001665207,-0.000239890,0.000035920,1.206646442,0.050183203,9.722486496
1784247012.610049,0.005996637,-0.123430528,1.868089318,0.002040325,-0.000631649,-0.000009767,1.241200686,0.086958826,9.718271255
1784247012.612048,0.005998410,-0.123430572,1.868094087,0.001592584,-0.000588713,0.000517241,1.206137896,0.082038097,9.717310905
1784247012.614056,0.006000649,-0.123428501,1.868098855,0.001451274,-0.000163999,0.000993905,1.202199221,0.089765593,9.708837509
1784247012.616055,0.006005817,-0.123429038,1.868091702,0.001438777,-0.000030474,0.000509930,1.207947135,0.085369848,9.749612808
1784247012.618055,0.006008536,-0.123431049,1.868081570,0.001338545,-0.000214120,-0.000837200,1.211114764,0.085136026,9.713747978
1784247012.620136,0.006010283,-0.123428382,1.868079662,0.001176754,-0.000115281,-0.001438327,1.214550376,0.109711386,9.717046738
1784247012.622082,0.006011378,-0.123425588,1.868086457,0.000879413,0.000329557,-0.000719134,1.220103264,0.087972343,9.739777565
1784247012.624082,0.006016735,-0.123423524,1.868087649,0.000933169,0.000613596,-0.000014485,1.223251104,0.086366005,9.707940102
1784247012.626093,0.006019164,-0.123425566,1.868084788,0.001078666,0.000481369,-0.000152741,1.192350626,0.091693453,9.707495689
1784247012.628071,0.006017923,-0.123421244,1.868080974,0.000698771,0.000536047,-0.000542219,1.204408288,0.086223111,9.698953629
1784247012.630079,0.006018780,-0.123426542,1.868079185,0.000437242,0.000323394,-0.000773177,1.234650493,0.064657152,9.715881348
1784247012.632076,0.006019164,-0.123432294,1.868084311,0.000420429,-0.000359025,-0.000348380,1.200636506,0.073077917,9.727109909
1784247012.634087,0.006018281,-0.123432331,1.868090272,0.000356539,-0.000498939,0.000504542,1.182260990,0.073482156,9.703333855
1784247012.636081,0.006025139,-0.123431243,1.868097305,0.000728614,-0.000335723,0.001182185,1.191854119,0.089294046,9.730792999
1784247012.638087,0.006031181,-0.123430558,1.868101597,0.001452625,-0.000166711,0.001514373,1.197858810,0.066358015,9.731995583
1784247012.640105,0.006034199,-0.123432174,1.868102193,0.001708266,-0.000182216,0.001358025,1.187872887,0.093850844,9.727231979
1784247012.642095,0.006034184,-0.123432212,1.868106604,0.001422702,-0.000332859,0.001314808,1.186998725,0.095666923,9.725449562
1784247012.644090,0.006028697,-0.123430856,1.868108511,0.000655922,-0.000239693,0.001464085,1.216005445,0.081879817,9.721801758
1784247012.646094,0.006030388,-0.123425968,1.868102074,0.000104072,0.000282845,0.000799149,1.191206217,0.071518086,9.711400032
1784247012.648097,0.006034065,-0.123417452,1.868098259,0.000268951,0.001146363,-0.000169059,1.198461056,0.077697553,9.711445808
1784247012.650097,0.006035931,-0.123410866,1.868100047,0.000551406,0.001860241,-0.000314051,1.216197968,0.098393954,9.730426788
1784247012.652090,0.006039511,-0.123407044,1.868104577,0.000626846,0.002162056,0.000174610,1.190208673,0.063850656,9.720315933
1784247012.654104,0.006037944,-0.123406477,1.868103266,0.000424643,0.001971823,0.000347383,1.177974343,0.054957639,9.732800484
1784247012.656097,0.006030924,-0.123404488,1.868101120,-0.000340193,0.001500128,0.000109373,1.206449032,0.071220867,9.725758553
1784247012.658096,0.006027926,-0.123405010,1.868102670,-0.000970943,0.001084083,0.000134034,1.181614280,0.094925836,9.713333130
1784247012.660097,0.006027438,-0.123406120,1.868107557,-0.000889987,0.000682740,0.000549451,1.209438086,0.095007814,9.714707375
1784247012.662104,0.006032038,-0.123405278,1.868108153,-0.000486701,0.000441206,0.000762649,1.217600346,0.101658702,9.709825516
1784247012.664103,0.006031404,-0.123403691,1.868110061,-0.000226644,0.000446823,0.000720350,1.208231807,0.106665671,9.715675354
1784247012.666100,0.006035175,-0.123406485,1.868105650,-0.000182607,0.000310482,0.000363589,1.209764004,0.084711663,9.712846756
1784247012.668105,0.006042738,-0.123408593,1.868101954,0.000354052,-0.000043502,-0.000348220,1.203558207,0.054286901,9.718027115
1784247012.670175,0.006049685,-0.123406000,1.868101239,0.001199823,-0.000001512,-0.000665802,1.201724052,0.087941326,9.714204788
1784247012.672107,0.006053158,-0.123402670,1.868106246,0.001457098,0.000424946,-0.000245657,1.199820399,0.078188688,9.702933311
1784247012.674113,0.006050404,-0.123396412,1.868116736,0.001084792,0.000988548,0.000891318,1.186905622,0.086421892,9.702525139
1784247012.676107,0.006050628,-0.123393960,1.868125439,0.000683484,0.001128992,0.001970605,1.219300032,0.058431737,9.736897469
1784247012.678107,0.006054781,-0.123390347,1.868130088,0.000806096,0.001049606,0.002305207,1.170592785,0.075642496,9.735615730
1784247012.680108,0.006064154,-0.123387203,1.868127346,0.001514690,0.001224289,0.001702804,1.201092720,0.072725944,9.712761879
1784247012.682113,0.006074909,-0.123382792,1.868126988,0.002339544,0.001386538,0.000885558,1.199025631,0.088331588,9.727207184
1784247012.684110,0.006074466,-0.123381488,1.868129611,0.002323337,0.001382738,0.000721786,1.191527724,0.063213743,9.744523048
1784247012.686116,0.006063811,-0.123384401,1.868130326,0.001002778,0.000798559,0.000849886,1.194320202,0.033674836,9.734922409
1784247012.688112,0.006063364,-0.123387314,1.868132710,0.000037689,0.000085147,0.000923546,1.208203554,0.067636445,9.722599983
1784247012.690117,0.006069448,-0.123383082,1.868130684,0.000408570,0.000149932,0.000639184,1.194573045,0.091092743,9.724978447
1784247012.692114,0.006068825,-0.123378381,1.868124008,0.000431277,0.000599210,-0.000125729,1.184582710,0.082580775,9.742847443
1784247012.694133,0.006058160,-0.123379022,1.868122339,-0.000677193,0.000595653,-0.000524125,1.183687568,0.081394657,9.722216606
1784247012.696123,0.006055046,-0.123374894,1.868117809,-0.001612385,0.000521558,-0.000670539,1.176514387,0.083561115,9.745536804
1784247012.698127,0.006055016,-0.123376392,1.868112564,-0.001606451,0.000408166,-0.001101372,1.220325828,0.105535038,9.726888657
1784247012.700123,0.006051920,-0.123377644,1.868110299,-0.001442100,0.000106960,-0.001271779,1.198090911,0.084807105,9.720458984
1784247012.702125,0.006050080,-0.123372801,1.868109822,-0.001517348,0.000319625,-0.001068888,1.209386230,0.090950713,9.718267441
1784247012.704132,0.006044064,-0.123364240,1.868110180,-0.001746223,0.001141179,-0.000719077,1.216321588,0.072317451,9.742812157
1784247012.706128,0.006044992,-0.123364098,1.868106484,-0.001662595,0.001432426,-0.000700230,1.207401514,0.075695343,9.724892616
1784247012.708125,0.006041583,-0.123369038,1.868102312,-0.001466155,0.000727279,-0.001034381,1.223115087,0.077997468,9.750925064
1784247012.710130,0.006040119,-0.123370104,1.868104219,-0.001415377,0.000122151,-0.000881323,1.209264040,0.081880204,9.733900070
1784247012.712131,0.006046586,-0.123369776,1.868103743,-0.000741754,0.000069332,-0.000586130,1.206242800,0.090971880,9.720952988
1784247012.714137,0.006053113,-0.123364754,1.868102431,0.000260329,0.000440983,-0.000638764,1.211245537,0.097110130,9.730861664
1784247012.716133,0.006062128,-0.123363473,1.868095160,0.000992201,0.000786471,-0.001127984,1.213669062,0.074286871,9.722647667
1784247012.718141,0.006063066,-0.123367973,1.868094802,0.001156499,0.000393497,-0.001380243,1.192312598,0.089367807,9.719585419
1784247012.720145,0.006063461,-0.123370893,1.868094563,0.000927912,-0.000216219,-0.001042863,1.171066284,0.077857472,9.738321304
1784247012.722140,0.006063942,-0.123372555,1.868094683,0.000653022,-0.000641445,-0.000761049,1.159334302,0.073435150,9.751282692
1784247012.724160,0.006058637,-0.123376757,1.868094802,0.000071952,-0.001037549,-0.000484629,1.196257710,0.044911288,9.726477623
1784247012.726191,0.006055970,-0.123373389,1.868089080,-0.000398980,-0.000801182,-0.000677551,1.185565233,0.087293722,9.708357811
1784247012.728154,0.006060731,-0.123370700,1.868082285,-0.000120939,-0.000164278,-0.001374122,1.192462802,0.100684471,9.703068733
1784247012.730163,0.006062627,-0.123371035,1.868087530,0.000348336,0.000040408,-0.001160516,1.178530931,0.103524663,9.769875526
1784247012.732167,0.006062206,-0.123371430,1.868091345,0.000287618,-0.000080997,-0.000212773,1.170784235,0.092147119,9.745585442
1784247012.734168,0.006061081,-0.123370036,1.868086576,-0.000043151,-0.000054370,-0.000172032,1.182761550,0.078343563,9.711883545
1784247012.736166,0.006062072,-0.123367131,1.868087769,-0.000118148,0.000216555,-0.000357309,1.189057469,0.081211209,9.738359451
1784247012.738185,0.006062906,-0.123362139,1.868091106,0.000027517,0.000660430,0.000050965,1.209603786,0.072908878,9.734739304
1784247012.740174,0.006066021,-0.123366088,1.868088484,0.000292362,0.000551867,0.000057405,1.185887814,0.041002329,9.727787018
1784247012.742166,0.006067161,-0.123369001,1.868083477,0.000480016,-0.000135704,-0.000500908,1.184115410,0.042013459,9.714790344
1784247012.744163,0.006065290,-0.123368494,1.868086815,0.000329723,-0.000330168,-0.000473139,1.205061674,0.067263708,9.717662811
1784247012.746166,0.006066430,-0.123362958,1.868091583,0.000226081,0.000208089,0.000200753,1.183827400,0.093035288,9.723186493
1784247012.748162,0.006068971,-0.123358779,1.868096352,0.000460483,0.000848408,0.000765759,1.211423635,0.111079596,9.719294548
1784247012.750169,0.006070122,-0.123352468,1.868099332,0.000649821,0.001333447,0.001051130,1.207118273,0.088355288,9.709281921
1784247012.752167,0.006075561,-0.123347796,1.868100166,0.000843031,0.001723856,0.000988537,1.187008858,0.095746405,9.714241982
1784247012.754167,0.006077528,-0.123348087,1.868102670,0.001033234,0.001557973,0.000904405,1.171121478,0.080726482,9.712783813
1784247012.756169,0.006079673,-0.123351596,1.868108273,0.001056105,0.000842411,0.001164551,1.177225351,0.066273086,9.718078613
1784247012.758178,0.006083626,-0.123354644,1.868115902,0.001250784,0.000137117,0.001696307,1.190711141,0.066294566,9.690742493
1784247012.760175,0.006075732,-0.123355605,1.868115664,0.000708474,-0.000169432,0.001776872,1.182666421,0.071919478,9.733362198
1784247012.762179,0.006072004,-0.123358853,1.868114352,-0.000300333,-0.000418700,0.001274837,1.174568534,0.071044385,9.745005608
1784247012.764176,0.006080005,-0.123363122,1.868111134,0.000011804,-0.000825577,0.000584586,1.186579704,0.060748201,9.722084999
1784247012.766180,0.006082214,-0.123365790,1.868107557,0.000583568,-0.001088479,-0.000116091,1.195150375,0.065455250,9.737815857
1784247012.768176,0.006071709,-0.123370171,1.868106246,-0.000230192,-0.001286505,-0.000339689,1.165897131,0.095431924,9.733496666
1784247012.770181,0.006066125,-0.123373248,1.868104458,-0.001275663,-0.001445101,-0.000304807,1.173024058,0.090062976,9.719572067
1784247012.772178,0.006065764,-0.123368680,1.868104100,-0.001471274,-0.001062539,-0.000311825,1.183735490,0.086636655,9.741079330
1784247012.774187,0.006062113,-0.123369142,1.868104100,-0.001467450,-0.000606097,-0.000207404,1.183082342,0.069222778,9.733794212
1784247012.776196,0.006063297,-0.123370036,1.868098736,-0.001286361,-0.000579389,-0.000475739,1.166834950,0.062201969,9.742251396
1784247012.778193,0.006065309,-0.123368435,1.868098855,-0.000773083,-0.000419719,-0.000723987,1.196998954,0.105471887,9.714761734
1784247012.780185,0.006063789,-0.123368122,1.868097305,-0.000543087,-0.000177515,-0.000633583,1.215954423,0.040645748,9.723777771
1784247012.782195,0.006061297,-0.123367667,1.868103266,-0.000612196,-0.000055175,-0.000135158,1.202493310,0.078408189,9.730284691
1784247012.784195,0.006054543,-0.123370357,1.868110776,-0.000937482,-0.000165173,0.000894309,1.201263666,0.087854870,9.727206230
1784247012.786191,0.006050255,-0.123371318,1.868113756,-0.001464691,-0.000367174,0.001480659,1.212249041,0.106041983,9.733161926
1784247012.788196,0.006051287,-0.123371802,1.868110776,-0.001411427,-0.000370291,0.001133079,1.208414912,0.123510145,9.740891457
1784247012.790193,0.006056145,-0.123372622,1.868109465,-0.000666381,-0.000359743,0.000483923,1.197617054,0.084209085,9.742422104
1784247012.792194,0.006060403,-0.123371787,1.868107200,0.000039438,-0.000317929,0.000029522,1.214444637,0.101987928,9.732240677
1784247012.794222,0.006059941,-0.123376787,1.868105054,0.000188914,-0.000571523,-0.000303667,1.208723068,0.073863983,9.728020668
1784247012.796205,0.006055389,-0.123376317,1.868106961,-0.000263327,-0.000734427,-0.000186126,1.187070131,0.100283250,9.706201553
1784247012.798200,0.006055698,-0.123379275,1.868111491,-0.000483829,-0.000713049,0.000351751,1.154485106,0.079045616,9.727104187
1784247012.800200,0.006056748,-0.123382390,1.868106246,-0.000266028,-0.000932225,0.000201327,1.195774794,0.079803333,9.735219002
1784247012.802202,0.006063271,-0.123383589,1.868103147,0.000148502,-0.000965114,-0.000484800,1.194243193,0.099736944,9.707099915
1784247012.804207,0.006058004,-0.123388074,1.868107200,0.000104352,-0.001079544,-0.000299722,1.197109938,0.078890167,9.735214233
1784247012.806209,0.006051872,-0.123390302,1.868110061,-0.000689572,-0.001265896,0.000356824,1.209663510,0.077029556,9.722211838
1784247012.808210,0.006057516,-0.123383611,1.868103147,-0.000624976,-0.000647526,0.000009951,1.213425398,0.091311947,9.723204613
1784247012.810210,0.006058551,-0.123382792,1.868102312,-0.000068424,0.000033327,-0.000547530,1.202370048,0.068114631,9.728873253
1784247012.812215,0.006056901,-0.123388246,1.868101954,-0.000142448,-0.000224574,-0.000453161,1.190888643,0.082691066,9.715954781
1784247012.814216,0.006051000,-0.123388775,1.868107200,-0.000614258,-0.000500709,0.000065726,1.185082793,0.085412249,9.721794128
1784247012.816222,0.006054603,-0.123387858,1.868108749,-0.000665838,-0.000417697,0.000554087,1.199051499,0.090561859,9.728566170
1784247012.818223,0.006057330,-0.123388797,1.868098855,-0.000249172,-0.000391368,-0.000190775,1.178694129,0.076949678,9.726217270
1784247012.820228,0.006056286,-0.123389006,1.868097425,-0.000162153,-0.000368746,-0.000914243,1.182185054,0.068424217,9.721682549
1784247012.822227,0.006053429,-0.123392895,1.868101239,-0.000375415,-0.000643246,-0.000468544,1.159921169,0.081817016,9.705607414
1784247012.824226,0.006051209,-0.123394720,1.868100524,-0.000604390,-0.000950750,-0.000090418,1.190002084,0.084815189,9.733901024
1784247012.826225,0.006046254,-0.123395197,1.868100524,-0.001038313,-0.000846459,-0.000048226,1.211189508,0.090994485,9.708854675
1784247012.828223,0.006042480,-0.123396188,1.868097425,-0.001480044,-0.000714246,-0.000161791,1.217705846,0.073005714,9.706502914
1784247012.830231,0.006038696,-0.123399831,1.868095994,-0.001623169,-0.000835294,-0.000335707,1.225807309,0.077152908,9.738817215
1784247012.832232,0.006041382,-0.123402104,1.868093729,-0.001402590,-0.000980976,-0.000462208,1.214199424,0.080193646,9.710132599
1784247012.834234,0.006045989,-0.123396009,1.868092775,-0.000674098,-0.000426924,-0.000603938,1.192000031,0.100578934,9.718760490
1784247012.836232,0.006047316,-0.123389937,1.868091583,-0.000300916,0.000481710,-0.000596312,1.216023803,0.121236205,9.731918335
1784247012.838233,0.006047513,-0.123390973,1.868090868,-0.000323718,0.000660507,-0.000539762,1.194310069,0.105938450,9.717003822
1784247012.840232,0.006045085,-0.123391487,1.868091941,-0.000381363,0.000376225,-0.000338474,1.171978712,0.078370266,9.727563858
1784247012.842234,0.006040204,-0.123388790,1.868092299,-0.000874863,0.000245220,-0.000065768,1.199235559,0.067799121,9.715867043
1784247012.844237,0.006043546,-0.123391695,1.868090153,-0.000873890,-0.000014436,-0.000138224,1.207070589,0.047146648,9.707672119
1784247012.846238,0.006047130,-0.123391740,1.868087649,-0.000112765,-0.000174023,-0.000478464,1.226524472,0.060722642,9.716744423
1784247012.848238,0.006047264,-0.123393521,1.868083239,0.000207759,-0.000214986,-0.000852640,1.208022594,0.090017989,9.725880623
1784247012.850241,0.006042484,-0.123393841,1.868082285,-0.000536348,-0.000325168,-0.000982810,1.186847568,0.081910476,9.706979752
1784247012.852242,0.006051753,-0.123392880,1.868104219,-0.001182348,-0.000548705,-0.000831584,1.189476728,0.076515287,9.704855919
1784247012.854250,0.006048214,-0.123393632,1.868105888,-0.001218850,-0.000716333,-0.000521878,1.212653160,0.066066541,9.746355057
1784247012.856248,0.006041422,-0.123395227,1.868106842,-0.001521308,-0.000674514,-0.000127301,1.200956821,0.100327231,9.738045692
1784247012.858248,0.006036825,-0.123395383,1.868104100,-0.001849037,-0.000605122,-0.000128639,1.219542384,0.076960295,9.714152336
1784247012.860249,0.006034829,-0.123400062,1.868101358,-0.001836360,-0.000771612,-0.000401200,1.227805495,0.092513204,9.717398643
1784247012.862252,0.006040398,-0.123408280,1.868105292,-0.001236098,-0.001333577,-0.000222187,1.199178815,0.062083732,9.700588226
1784247012.864253,0.006037347,-0.123412669,1.868100524,-0.000888667,-0.001723108,-0.000236224,1.175568223,0.079134330,9.739678383
1784247012.866257,0.006032318,-0.123418145,1.868093014,-0.001375798,-0.002048798,-0.000915777,1.196222425,0.078574546,9.718174934
1784247012.868256,0.006032862,-0.123428255,1.868097425,-0.001410767,-0.002671144,-0.000816751,1.209543943,0.067574680,9.728878021
1784247012.870263,0.006036855,-0.123432510,1.868098617,-0.000675743,-0.002919714,-0.000254864,1.195742369,0.039932229,9.734515190
1784247012.872261,0.006031889,-0.123433948,1.868092299,-0.000494764,-0.002588790,-0.000529214,1.212597847,0.060767315,9.735561371
1784247012.874264,0.006027572,-0.123431496,1.868091583,-0.000936458,-0.001891219,-0.000781598,1.217107654,0.060891069,9.710012436
1784247012.876262,0.006027769,-0.123431683,1.868094206,-0.000949495,-0.001137817,-0.000403995,1.215094924,0.081382938,9.730317116
1784247012.878265,0.006028987,-0.123428978,1.868090272,-0.000614639,-0.000573026,-0.000399056,1.205333710,0.090891175,9.733954430
1784247012.880266,0.006028496,-0.123427607,1.868089318,-0.000442214,-0.000141261,-0.000648184,1.175268650,0.089233704,9.706117630
1784247012.882274,0.006027933,-0.123428583,1.868091702,-0.000483371,-0.000097792,-0.000362099,1.170781136,0.088881396,9.700731277
1784247012.884273,0.006020684,-0.123425342,1.868093133,-0.000946458,0.000063100,0.000081016,1.207221389,0.097679801,9.720996857
1784247012.886274,0.006021019,-0.123425394,1.868091106,-0.001336336,0.000272753,0.000097371,1.220583797,0.089027852,9.716472626
1784247012.888272,0.006022081,-0.123429365,1.868091941,-0.001064901,-0.000065821,-0.000000879,1.223269939,0.089352302,9.729029655
1784247012.890274,0.006026708,-0.123436049,1.868094206,-0.000366380,-0.000769287,0.000160470,1.229917407,0.082124121,9.725403786
1784247012.892272,0.006033927,-0.123441182,1.868101120,0.000466807,-0.001305575,0.000657481,1.209074140,0.064171620,9.704196930
1784247012.894279,0.006042700,-0.123437874,1.868107557,0.001387967,-0.001017112,0.001258506,1.208464384,0.089958198,9.733502388
1784247012.896280,0.006045476,-0.123437457,1.868101358,0.001684712,-0.000491745,0.000849072,1.195211411,0.069178849,9.718113899
1784247012.898280,0.006047793,-0.123442121,1.868094325,0.001354505,-0.000655902,-0.000301546,1.231440663,0.059290078,9.720326424
1784247012.900278,0.006050695,-0.123441681,1.868100166,0.001329190,-0.000764681,-0.000345077,1.217175603,0.066695482,9.712738991
1784247012.902281,0.006054800,-0.123438820,1.868103385,0.001460556,-0.000219774,0.000312894,1.221153378,0.060896561,9.701945305
1784247012.904288,0.006048664,-0.123439848,1.868106246,0.000922613,0.000076796,0.000664291,1.196090221,0.067804389,9.720795631
1784247012.906293,0.006049592,-0.123440832,1.868108034,0.000291385,-0.000118114,0.000845403,1.197120070,0.078566208,9.717727661
1784247012.908288,0.006053802,-0.123441860,1.868105412,0.000483484,-0.000264365,0.000527058,1.205771565,0.088772781,9.716007233
1784247012.910287,0.006049339,-0.123442300,1.868103623,0.000299256,-0.000294198,0.000096489,1.193373680,0.065214708,9.711811066
1784247012.912287,0.006052137,-0.123440899,1.868105292,0.000021278,-0.000172158,0.000072226,1.182447195,0.053572156,9.730555534
1784247012.914299,0.006056488,-0.123434290,1.868106604,0.000438431,0.000395269,0.000184564,1.192910671,0.065512612,9.733778954
1784247012.916300,0.006057393,-0.123431511,1.868102431,0.000581257,0.000884581,-0.000094469,1.231217623,0.078504100,9.728072166
1784247012.918300,0.006058156,-0.123435974,1.868101358,0.000424310,0.000488663,-0.000428710,1.235243320,0.076730475,9.718200684
1784247012.920366,0.006054547,-0.123435125,1.868101478,0.000109390,0.000110526,-0.000366139,1.199196100,0.065460742,9.729750633
1784247012.922334,0.006045424,-0.123433255,1.868101120,-0.000748428,0.000273038,-0.000192752,1.210236788,0.088136978,9.734389305
1784247012.924335,0.006046675,-0.123432420,1.868098855,-0.001065513,0.000389325,-0.000264534,1.196853161,0.095000260,9.738454819
1784247012.926328,0.006054315,-0.123432070,1.868097901,-0.000429714,0.000339585,-0.000460613,1.213976026,0.100214541,9.730434418
1784247012.928353,0.006055474,-0.123433165,1.868102431,0.000085203,0.000173919,-0.000134746,1.197948575,0.111547425,9.740804672
1784247012.930322,0.006052796,-0.123432577,1.868099213,-0.000027219,0.000095043,0.000011843,1.224330187,0.101162665,9.704448700
1784247012.932319,0.006055113,-0.123433843,1.868097067,-0.000270204,0.000095973,-0.000314542,1.222750425,0.083124749,9.723609924
1784247012.934320,0.006063189,-0.123431422,1.868091941,0.000259807,0.000216461,-0.000785193,1.212813258,0.039872747,9.712114334
1784247012.936320,0.006059721,-0.123425394,1.868088841,0.000524363,0.000755857,-0.001179889,1.246879697,0.073508844,9.709224701
1784247012.938333,0.006052673,-0.123426072,1.868088484,-0.000262620,0.000940608,-0.001018843,1.215504885,0.040238515,9.718843460
1784247012.940326,0.006048534,-0.123428471,1.868094444,-0.000898119,0.000478020,-0.000273135,1.194558740,0.090574846,9.734837532
1784247012.942344,0.006048422,-0.123427302,1.868099213,-0.000998275,0.000315228,0.000578533,1.204343081,0.084087864,9.747360229
1784247012.944341,0.006053303,-0.123424590,1.868093729,-0.000559271,0.000538302,0.000353246,1.169583559,0.065449469,9.721652031
1784247012.946331,0.006053824,-0.123420343,1.868090272,-0.000148456,0.000631374,-0.000388773,1.190639138,0.099668466,9.723236084
1784247012.948340,0.006049767,-0.123424172,1.868085027,-0.000450890,0.000255132,-0.000842497,1.196152091,0.111151077,9.736764908
1784247012.950340,0.006049953,-0.123423956,1.868088961,-0.000600498,-0.000058817,-0.000667689,1.208876371,0.086016186,9.720027924
1784247012.952341,0.006053563,-0.123420738,1.868092179,-0.000234639,0.000262120,-0.000013025,1.210255027,0.087876625,9.707936287
1784247012.954345,0.006055694,-0.123415925,1.868091702,0.000126335,0.000802769,0.000158871,1.192567587,0.074458510,9.736527443
1784247012.956334,0.006060097,-0.123408765,1.868090749,0.000517958,0.001323115,-0.000021877,1.178373694,0.086073622,9.703859329
1784247012.958373,0.006062601,-0.123407505,1.868095636,0.000872209,0.001465345,0.000188225,1.188659787,0.084050976,9.717754364
1784247012.960346,0.006065290,-0.123408303,1.868096709,0.001034465,0.001101128,0.000482937,1.171242476,0.091407605,9.722716331
1784247012.962352,0.006068661,-0.123404101,1.868094325,0.001009551,0.000876220,0.000228283,1.201708198,0.088627398,9.743799210
1784247012.964348,0.006067846,-0.123401627,1.868091583,0.000723116,0.000932699,-0.000191102,1.209006310,0.095957167,9.707987785
1784247012.966346,0.006073833,-0.123402193,1.868089318,0.000693490,0.000809920,-0.000497249,1.217130303,0.063905969,9.727067947
1784247012.968344,0.006079353,-0.123401076,1.868083000,0.001069373,0.000627966,-0.001008986,1.215321183,0.064221121,9.749035835
1784247012.970347,0.006075639,-0.123399548,1.868073225,0.000767112,0.000630388,-0.001833241,1.192208767,0.045283798,9.744410515
1784247012.972347,0.006073494,-0.123399109,1.868071795,0.000129553,0.000580220,-0.002037514,1.167948484,0.041302249,9.717908859
1784247012.974357,0.006076910,-0.123396270,1.868078113,0.000278533,0.000638855,-0.001173918,1.184460163,0.070266806,9.710489273
1784247012.976360,0.006082110,-0.123393305,1.868080735,0.000839890,0.000801354,-0.000326789,1.213907957,0.057630241,9.733301163
1784247012.978358,0.006084702,-0.123397298,1.868082285,0.001154106,0.000454657,-0.000019287,1.238434076,0.082758181,9.746934891
1784247012.980391,0.006081883,-0.123403654,1.868086219,0.000870202,-0.000369238,0.000345142,1.199688435,0.069851935,9.741436958
1784247012.982372,0.006082855,-0.123402461,1.868087411,0.000522255,-0.000643930,0.000612213,1.213824987,0.087271385,9.723627090
1784247012.984374,0.006080839,-0.123395748,1.868083835,0.000261469,0.000041099,0.000306242,1.187723756,0.080920406,9.718630791
1784247012.986411,0.006079386,-0.123394251,1.868081212,-0.000127210,0.000507719,-0.000151826,1.206882596,0.069474161,9.718574524
1784247012.988371,0.006075282,-0.123400562,1.868084788,-0.000493400,-0.000036408,-0.000003181,1.198829412,0.072598889,9.734727859
1784247012.990363,0.006075826,-0.123405039,1.868083119,-0.000583011,-0.000759025,0.000157724,1.193654418,0.089315563,9.724517822
1784247012.992367,0.006075323,-0.123404920,1.868077755,-0.000570210,-0.000886541,-0.000336473,1.186307192,0.077544354,9.754922867
1784247012.994372,0.006072696,-0.123405680,1.868080616,-0.000739686,-0.000727399,-0.000388490,1.196098328,0.070301376,9.747711182
1784247012.996370,0.006073851,-0.123407453,1.868090987,-0.000577177,-0.000692966,0.000620622,1.184981704,0.078130402,9.737888336
1784247012.998369,0.006080973,-0.123408608,1.868093133,0.000192175,-0.000692125,0.001230286,1.198252320,0.099049635,9.733551979
1784247013.000380,0.006078437,-0.123407222,1.868093252,0.000467121,-0.000486348,0.001007192,1.192944884,0.104589544,9.720131874
1784247013.002370,0.006075218,-0.123409465,1.868091941,-0.000164903,-0.000416687,0.000716538,1.200159192,0.070021071,9.716778755
1784247013.004378,0.006073352,-0.123407744,1.868087053,-0.000624262,-0.000345739,0.000143877,1.200232506,0.075463369,9.707399368
1784247013.006376,0.006079193,-0.123406462,1.868087530,-0.000269634,-0.000085716,-0.000234940,1.196079493,0.067315087,9.726621628
1784247013.008383,0.006080288,-0.123405822,1.868080020,0.000169157,0.000030872,-0.000691542,1.200973272,0.101267666,9.731775284
1784247013.010382,0.006073982,-0.123400643,1.868076324,-0.000321205,0.000413633,-0.001204317,1.186068654,0.054183967,9.700972557
1784247013.012384,0.006066643,-0.123397946,1.868078470,-0.001167527,0.000765314,-0.000856167,1.197185993,0.048384909,9.740398407
1784247013.014389,0.006069403,-0.123397730,1.868081212,-0.001119463,0.000688256,-0.000260360,1.180651784,0.053185344,9.725171089
1784247013.016385,0.006067082,-0.123389415,1.868077993,-0.000717770,0.001008695,-0.000238832,1.207016468,0.044287186,9.731863022
1784247013.018382,0.006060656,-0.123387203,1.868079185,-0.001056510,0.001375044,-0.000241463,1.193144441,0.083974414,9.720448494
1784247013.020392,0.006063032,-0.123389602,1.868080497,-0.001021678,0.000989258,0.000024208,1.215979218,0.115616202,9.703188896
1784247013.022386,0.006068225,-0.123394549,1.868088007,-0.000368878,0.000285257,0.000577423,1.190642476,0.061700493,9.706852913
1784247013.024437,0.006065316,-0.123401374,1.868086338,-0.000275909,-0.000528466,0.000815684,1.197749496,0.056985807,9.727004051
1784247013.026399,0.006063722,-0.123402350,1.868085623,-0.000530401,-0.000934578,0.000466280,1.190353274,0.075122811,9.710077286
1784247013.028396,0.006061494,-0.123396754,1.868087649,-0.000634968,-0.000386996,0.000487348,1.166858315,0.062793009,9.722081184
1784247013.030420,0.006060809,-0.123391666,1.868086219,-0.000652053,0.000443699,0.000432988,1.189013720,0.079244480,9.763006210
1784247013.032398,0.006063931,-0.123393103,1.868088841,-0.000308524,0.000523147,0.000372972,1.209273338,0.083170034,9.741530418
1784247013.034404,0.006068360,-0.123396315,1.868088603,0.000297147,0.000018884,0.000380840,1.205456853,0.099968031,9.717423439
1784247013.036408,0.006068393,-0.123391613,1.868088603,0.000381422,0.000052251,0.000243822,1.198382854,0.072217114,9.726205826
1784247013.038400,0.006064791,-0.123387851,1.868090987,-0.000076981,0.000548705,0.000380484,1.162028313,0.072199844,9.731102943
1784247013.040404,0.006059613,-0.123385891,1.868088603,-0.000647014,0.000787692,0.000352620,1.160750985,0.077217795,9.720823288
1784247013.042397,0.006057482,-0.123383090,1.868080378,-0.001080765,0.000768428,-0.000390858,1.176601768,0.089518160,9.726744652
1784247013.044409,0.006052699,-0.123379461,1.868072987,-0.001412832,0.000864666,-0.001274870,1.192874193,0.098762885,9.720541954
1784247013.046409,0.006051768,-0.123376332,1.868075252,-0.001564672,0.001055481,-0.001214027,1.184266448,0.054956630,9.721599579
1784247013.048409,0.006055627,-0.123376153,1.868079901,-0.000992390,0.000966596,-0.000429764,1.229134917,0.051938783,9.687101364
1784247013.050411,0.006054439,-0.123374380,1.868088603,-0.000432438,0.000843759,0.000556659,1.202068686,0.079008169,9.709665298
1784247013.052412,0.006048538,-0.123380497,1.868095517,-0.000698306,0.000364117,0.001506687,1.214173436,0.076746680,9.690833092
1784247013.054414,0.006040741,-0.123383574,1.868094325,-0.001418560,-0.000317951,0.001600372,1.177881837,0.082495682,9.703836441
1784247013.056420,0.006038714,-0.123381957,1.868096471,-0.001739271,-0.000418945,0.001328166,1.169157505,0.067660049,9.726596832
1784247013.058412,0.006042019,-0.123383909,1.868103147,-0.001159403,-0.000413949,0.001564841,1.181000710,0.119060457,9.722904205
1784247013.060415,0.006041218,-0.123385921,1.868116856,-0.000505327,-0.000561449,0.002494958,1.187601805,0.145816296,9.728909492
1784247013.062419,0.006049778,-0.123382375,1.868120074,0.000029321,-0.000361992,0.002921616,1.200681210,0.079104535,9.761671066
1784247013.064422,0.006048873,-0.123383895,1.868117571,0.000276972,-0.000190520,0.002149243,1.171231031,0.090911962,9.729438782
1784247013.066416,0.006050561,-0.123391487,1.868114710,0.000160405,-0.000852152,0.001220687,1.165372133,0.088756412,9.728074074
1784247013.068433,0.006053831,-0.123395681,1.868110776,0.000345032,-0.001516268,0.000417295,1.177903891,0.047917448,9.714821815
1784247013.070421,0.006056201,-0.123393729,1.868104219,0.000542456,-0.001261010,-0.000452579,1.173402429,0.047860466,9.730957985
1784247013.072424,0.006056510,-0.123390138,1.868101358,0.000545713,-0.000678112,-0.000994026,1.194527745,0.088303231,9.739307404
1784247013.074430,0.006059594,-0.123397611,1.868105292,0.000684204,-0.000889233,-0.000687770,1.182470083,0.092153437,9.723628998
1784247013.076437,0.006063424,-0.123396762,1.868106842,0.000891706,-0.001153947,-0.000176285,1.212629914,0.100638434,9.736266136
1784247013.078440,0.006061785,-0.123391159,1.868106246,0.000691399,-0.000459600,-0.000033962,1.201721668,0.089949034,9.746947289
1784247013.080433,0.006061334,-0.123394527,1.868102312,0.000326860,-0.000183193,-0.000292944,1.194154263,0.092550486,9.709743500
1784247013.082435,0.006064720,-0.123401329,1.868100524,0.000269586,-0.000811268,-0.000612262,1.173236132,0.069953024,9.711821556
1784247013.084445,0.006071739,-0.123405308,1.868098974,0.000751556,-0.001311012,-0.000754026,1.176352620,0.067695238,9.708670616
1784247013.086439,0.006072809,-0.123399757,1.868095994,0.001056941,-0.000900280,-0.000907211,1.208553314,0.097551256,9.736689568
1784247013.088441,0.006074164,-0.123398624,1.868090868,0.000867767,-0.000253425,-0.001216092,1.189333797,0.066470429,9.731539726
1784247013.090444,0.006070226,-0.123402491,1.868088841,0.000397878,-0.000373143,-0.001354669,1.174171805,0.072270371,9.699283600
1784247013.092441,0.006058715,-0.123408839,1.868090987,-0.000820386,-0.001066758,-0.000828578,1.195764780,0.078913778,9.734316826
1784247013.094446,0.006058261,-0.123417787,1.868086457,-0.001494153,-0.001915121,-0.000645468,1.174571514,0.107036471,9.724164009
1784247013.096451,0.006062943,-0.123421215,1.868087053,-0.000969791,-0.002344550,-0.000762136,1.182373762,0.085719816,9.746452332
1784247013.098449,0.006059329,-0.123418748,1.868085265,-0.000778766,-0.001882576,-0.000644544,1.189649105,0.090438128,9.699863434
1784247013.100456,0.006054823,-0.123415284,1.868090272,-0.001086263,-0.000967567,-0.000177279,1.205280781,0.085204393,9.714639664
1784247013.102462,0.006054673,-0.123413056,1.868095279,-0.001112397,-0.000305672,0.000578600,1.202211499,0.054704409,9.724753380
1784247013.104464,0.006061789,-0.123415194,1.868093014,-0.000410923,-0.000205587,0.000532555,1.208663106,0.068526618,9.722605705
1784247013.106455,0.006060235,-0.123416863,1.868086219,-0.000027172,-0.000360646,-0.000260636,1.243764520,0.076182812,9.716859818
1784247013.108488,0.006055541,-0.123411886,1.868075967,-0.000609311,0.000006323,-0.001270407,1.217815280,0.043981053,9.692419052
1784247013.110460,0.006054893,-0.123410463,1.868071795,-0.000923553,0.000433468,-0.001842482,1.210265994,0.051589198,9.707255363
1784247013.112494,0.006057199,-0.123410672,1.868071437,-0.000561190,0.000374626,-0.001664646,1.210983634,0.076805621,9.751353264
1784247013.114469,0.006058328,-0.123413548,1.868069768,-0.000156087,0.000041256,-0.001374022,1.194608450,0.093399316,9.715578079
1784247013.116472,0.006059755,-0.123418055,1.868073225,0.000008701,-0.000489843,-0.000893341,1.220073223,0.084086962,9.719130516
1784247013.118466,0.006064277,-0.123415343,1.868068576,0.000332278,-0.000499516,-0.000775419,1.180054069,0.078257225,9.728918076
1784247013.120483,0.006064028,-0.123416573,1.868062973,0.000445413,-0.000267597,-0.001284087,1.189413071,0.072363883,9.721714020
1784247013.122478,0.006057203,-0.123420142,1.868057251,-0.000291480,-0.000612011,-0.001622705,1.210686326,0.051764328,9.744916916
1784247013.124474,0.006059483,-0.123416647,1.868053317,-0.000644214,-0.000541465,-0.001777041,1.178706050,0.078665212,9.736989021
1784247013.126467,0.006062981,-0.123412490,1.868050814,-0.000244971,0.000024053,-0.001759205,1.174191356,0.076073088,9.731588364
1784247013.128472,0.006050508,-0.123413645,1.868048429,-0.000934484,0.000121175,-0.001514849,1.192853093,0.059384242,9.713565826
1784247013.130473,0.006043557,-0.123419143,1.868051171,-0.001986208,-0.000362670,-0.000925610,1.186957121,0.092095934,9.723632812
1784247013.132483,0.006040815,-0.123419158,1.868049502,-0.002156259,-0.000775349,-0.000531847,1.186635375,0.066050597,9.732431412
1784247013.134480,0.006037873,-0.123415865,1.868044496,-0.002073531,-0.000480914,-0.000782906,1.205337882,0.090922952,9.729471207
1784247013.136490,0.006038979,-0.123416878,1.868039012,-0.001885472,-0.000212142,-0.001236071,1.166381955,0.098142564,9.729480743
1784247013.138480,0.006041653,-0.123416312,1.868036151,-0.001352894,-0.000201155,-0.001476339,1.170968175,0.104540944,9.703522682
1784247013.140489,0.006051101,-0.123415411,1.868043423,-0.000133337,-0.000044772,-0.000891048,1.197136164,0.079906911,9.718184471
1784247013.142492,0.006055925,-0.123414919,1.868048191,0.000915968,0.000010209,0.000058760,1.180721760,0.095785558,9.720063210
1784247013.144492,0.006050687,-0.123415872,1.868048191,0.000631083,-0.000080204,0.000387255,1.188156962,0.080387197,9.729835510
1784247013.146491,0.006046113,-0.123416886,1.868049622,-0.000246600,-0.000281951,0.000480323,1.190233588,0.066478014,9.728850365
1784247013.148495,0.006041445,-0.123421818,1.868046880,-0.000870393,-0.000697970,0.000366131,1.203237057,0.065431260,9.726615906
1784247013.150524,0.006045762,-0.123422511,1.868037224,-0.000761150,-0.000893916,-0.000564000,1.220191836,0.057565648,9.731064796
1784247013.152507,0.006058615,-0.123425655,1.868026853,0.000479065,-0.000865089,-0.001906708,1.218122244,0.072745584,9.742368698
1784247013.154500,0.006062627,-0.123430520,1.868031859,0.001485669,-0.001121386,-0.001875336,1.204492807,0.093374580,9.701240540
1784247013.156497,0.006062303,-0.123429187,1.868031979,0.001243418,-0.001050680,-0.001022214,1.191342235,0.083533548,9.722684860
1784247013.158497,0.006063234,-0.123429850,1.868023634,0.000746565,-0.000720304,-0.001284218,1.194247842,0.062588580,9.701482773
1784247013.160500,0.006067910,-0.123431936,1.868019581,0.000816807,-0.000716177,-0.001818701,1.209930778,0.061812203,9.719425201
1784247013.162497,0.006071005,-0.123429164,1.868020892,0.001122298,-0.000467797,-0.001574481,1.202784538,0.065405212,9.731098175
1784247013.164507,0.006065082,-0.123429634,1.868022203,0.000675994,-0.000174415,-0.000945711,1.183980465,0.068811014,9.727067947
1784247013.166502,0.006063819,-0.123433076,1.868026733,-0.000035451,-0.000516048,-0.000238641,1.211236358,0.095416881,9.716952324
1784247013.168521,0.006070438,-0.123436391,1.868034482,0.000347461,-0.000956735,0.000619799,1.187826037,0.090238541,9.731244087
1784247013.170587,0.006076731,-0.123436801,1.868043184,0.001262368,-0.000943971,0.001464656,1.179570675,0.075962760,9.737420082
1784247013.172513,0.006080448,-0.123437688,1.868048787,0.001531730,-0.000893838,0.001989463,1.186909080,0.050884128,9.722472191
1784247013.174513,0.006085481,-0.123442434,1.868045926,0.001545718,-0.001156579,0.001593594,1.198877454,0.074193977,9.699319839
1784247013.176522,0.006092262,-0.123442620,1.868047476,0.001792847,-0.001240660,0.000999302,1.197945833,0.073125124,9.725314140
1784247013.178514,0.006095331,-0.123438202,1.868054509,0.001923813,-0.000675617,0.001255746,1.220752239,0.066951185,9.733366966
1784247013.180520,0.006094031,-0.123437449,1.868061781,0.001639921,-0.000136450,0.001857863,1.184890866,0.070117973,9.730662346
1784247013.182521,0.006094478,-0.123437896,1.868060231,0.001103524,-0.000240775,0.001751651,1.210611820,0.080662161,9.713719368
1784247013.184522,0.006099302,-0.123444386,1.868050456,0.000981406,-0.000816233,0.000462449,1.227500677,0.103787929,9.707607269
1784247013.186566,0.006105617,-0.123450860,1.868044734,0.001108380,-0.001397887,-0.000784163,1.210604429,0.081008375,9.728067398
1784247013.188531,0.006110605,-0.123447187,1.868047237,0.001314962,-0.001125969,-0.000857867,1.230039477,0.054008100,9.709531784
1784247013.190524,0.006107021,-0.123448201,1.868049026,0.001087562,-0.000639249,-0.000350946,1.215254664,0.055996034,9.708633423
1784247013.192529,0.006102573,-0.123452567,1.868047595,0.000265634,-0.000816471,-0.000166183,1.211104155,0.046246681,9.700945854
1784247013.194528,0.006100166,-0.123457275,1.868045926,-0.000281059,-0.001196687,-0.000267575,1.194795966,0.072282165,9.723512650
1784247013.196546,0.006096482,-0.123459719,1.868048191,-0.000643141,-0.001421502,-0.000106416,1.208863258,0.086317874,9.740653038
1784247013.198529,0.006098970,-0.123458147,1.868048906,-0.000558988,-0.001157711,0.000122232,1.212270498,0.070647299,9.732933998
1784247013.200531,0.006102088,-0.123460017,1.868050694,-0.000008198,-0.000862383,0.000217945,1.227058768,0.069498047,9.741908073
1784247013.202528,0.006096307,-0.123461336,1.868049860,-0.000187202,-0.000802865,0.000267830,1.218227744,0.079252325,9.709233284
1784247013.204539,0.006085768,-0.123460703,1.868051767,-0.001238157,-0.000588252,0.000411973,1.197367787,0.061572921,9.712686539
1784247013.206540,0.006086450,-0.123462938,1.868056893,-0.001536479,-0.000619042,0.000859665,1.221675634,0.070793279,9.758499146
1784247013.208540,0.006095420,-0.123463549,1.868059278,-0.000434488,-0.000726920,0.001061060,1.218287468,0.085803218,9.733037949
1784247013.210537,0.006100449,-0.123467602,1.868062854,0.000675651,-0.000843823,0.001045583,1.209517241,0.101711318,9.716990471
1784247013.212543,0.006098885,-0.123471953,1.868067265,0.000595932,-0.001100948,0.001284664,1.192511201,0.068339683,9.714966774
1784247013.214542,0.006094258,-0.123468995,1.868069291,-0.000125965,-0.000813013,0.001442373,1.202394962,0.070335351,9.731577873
1784247013.216547,0.006101246,-0.123463713,1.868067741,0.000042413,-0.000049668,0.001055999,1.205980301,0.071067646,9.748173714
1784247013.218543,0.006104402,-0.123464532,1.868069291,0.000686864,0.000249360,0.000683668,1.219913125,0.069450505,9.698411942
1784247013.220585,0.006102468,-0.123468213,1.868070722,0.000606876,-0.000122510,0.000679047,1.235660553,0.110419765,9.705415726
1784247013.222553,0.006102849,-0.123473331,1.868071795,0.000184442,-0.000623587,0.000691871,1.222043872,0.097610898,9.703975677
1784247013.224555,0.006101191,-0.123473264,1.868069172,-0.000137996,-0.000734809,0.000431827,1.198929787,0.080281012,9.725361824
1784247013.226565,0.006098751,-0.123470992,1.868070722,-0.000422686,-0.000401425,0.000262669,1.207706451,0.062397022,9.704183578
1784247013.228564,0.006097503,-0.123467460,1.868067145,-0.000609335,0.000075540,0.000086621,1.222194791,0.074180812,9.722207069
1784247013.230561,0.006097496,-0.123467654,1.868064046,-0.000583372,0.000279256,-0.000367104,1.200794458,0.086888388,9.737959862
1784247013.232557,0.006094906,-0.123469941,1.868061781,-0.000713446,0.000050621,-0.000591665,1.181603551,0.094839983,9.725438118
1784247013.234560,0.006096869,-0.123468287,1.868058205,-0.000680153,0.000009008,-0.000808511,1.198499322,0.080836467,9.711018562
1784247013.236565,0.006099820,-0.123468779,1.868054986,-0.000293317,0.000047335,-0.001055781,1.203592420,0.057394009,9.722081184
1784247013.238563,0.006099600,-0.123470381,1.868057847,-0.000105331,-0.000142490,-0.000785982,1.223248124,0.049967308,9.722948074
1784247013.240563,0.006098154,-0.123472743,1.868059516,-0.000150979,-0.000370906,-0.000247244,1.192809939,0.057423882,9.737314224
1784247013.242569,0.006105188,-0.123472787,1.868061185,0.000340804,-0.000506082,0.000001814,1.201543808,0.073145904,9.715903282
1784247013.244581,0.006110925,-0.123469211,1.868068099,0.001227152,-0.000198039,0.000475184,1.222791195,0.085876100,9.714660645
1784247013.246567,0.006106954,-0.123466432,1.868066669,0.000972651,0.000360723,0.000712150,1.212196946,0.103605017,9.760941505
1784247013.248569,0.006098244,-0.123471044,1.868064284,-0.000266329,0.000206370,0.000356473,1.199261189,0.107212730,9.717912674
1784247013.250569,0.006099890,-0.123468660,1.868063211,-0.000699782,-0.000001017,0.000079531,1.235437274,0.092040636,9.707090378
1784247013.252576,0.006104361,-0.123466931,1.868066311,-0.000232787,0.000395667,0.000170906,1.218348742,0.089530006,9.712886810
1784247013.254573,0.006108381,-0.123470671,1.868067145,0.000283463,0.000268103,0.000343741,1.212017059,0.086379386,9.726308823
1784247013.256578,0.006109994,-0.123475008,1.868064284,0.000419773,-0.000341893,0.000087300,1.214812994,0.095269121,9.731301308
1784247013.258575,0.006102674,-0.123478293,1.868059278,-0.000293606,-0.000757735,-0.000389476,1.178120136,0.065429263,9.709106445
1784247013.260585,0.006104388,-0.123478524,1.868057489,-0.000647787,-0.000792800,-0.000680891,1.189817190,0.067144759,9.698818207
1784247013.262582,0.006107811,-0.123479880,1.868056178,-0.000182242,-0.000755145,-0.000729216,1.181357861,0.075069278,9.733830452
1784247013.264585,0.006100554,-0.123479456,1.868051052,-0.000475137,-0.000684016,-0.000909596,1.209700227,0.082182512,9.753629684
1784247013.266580,0.006097365,-0.123474509,1.868045092,-0.001224626,-0.000102891,-0.001291629,1.225603342,0.096516356,9.725491524
1784247013.268584,0.006102304,-0.123475611,1.868047476,-0.000886664,0.000218489,-0.001171959,1.200778008,0.083111115,9.702068329
1784247013.270584,0.006101965,-0.123477161,1.868046761,-0.000320883,-0.000020805,-0.000761979,1.193427444,0.071717903,9.742338181
1784247013.272586,0.006100304,-0.123478472,1.868045449,-0.000451639,-0.000278163,-0.000645156,1.214825392,0.057371099,9.705056190
1784247013.274591,0.006102677,-0.123477973,1.868049026,-0.000328989,-0.000325552,-0.000306199,1.223470688,0.106336653,9.734519005
1784247013.276597,0.006108943,-0.123476610,1.868051529,0.000215418,-0.000042101,0.000123740,1.219637036,0.085407972,9.723173141
1784247013.278590,0.006119146,-0.123473249,1.868054986,0.001138633,0.000357145,0.000366649,1.192910194,0.064292744,9.716286659
1784247013.280596,0.006128411,-0.123471700,1.868053198,0.002154889,0.000592281,0.000218909,1.201433659,0.064170778,9.718088150
1784247013.282597,0.006129618,-0.123471953,1.868051887,0.002259738,0.000465990,-0.000144111,1.210553885,0.076960817,9.730283737
1784247013.284599,0.006129678,-0.123475656,1.868054271,0.001752770,0.000017970,-0.000032390,1.200416327,0.092314199,9.731716156
1784247013.286600,0.006136849,-0.123476461,1.868054390,0.001654705,-0.000293665,0.000103667,1.203740358,0.108308338,9.744825363
1784247013.288599,0.006138749,-0.123475038,1.868046880,0.001624778,-0.000174945,-0.000481194,1.200831294,0.089204513,9.727213860
1784247013.290603,0.006135910,-0.123471178,1.868041158,0.001010454,0.000225910,-0.001231382,1.199777007,0.077035211,9.739239693
1784247013.292606,0.006140903,-0.123467468,1.868037343,0.000726484,0.000640831,-0.001560319,1.190090418,0.091995269,9.732153893
1784247013.294605,0.006143763,-0.123465598,1.868035078,0.000933597,0.000811421,-0.001601453,1.184399962,0.065739498,9.717185020
1784247013.296613,0.006141309,-0.123462245,1.868036032,0.000667545,0.000919866,-0.001253081,1.188137293,0.077801175,9.715472221
1784247013.298608,0.006144940,-0.123466231,1.868035674,0.000541454,0.000601380,-0.000875040,1.195987582,0.058483049,9.708630562
1784247013.300614,0.006143596,-0.123464815,1.868032694,0.000521397,0.000262257,-0.000870901,1.195681095,0.071365215,9.724853516
1784247013.302610,0.006139639,-0.123456925,1.868029594,-0.000063067,0.000796095,-0.000990803,1.188951612,0.069837660,9.699730873
1784247013.304626,0.006133664,-0.123455793,1.868031502,-0.000761096,0.001167713,-0.000717643,1.196505070,0.100664534,9.698589325
1784247013.306618,0.006137039,-0.123456910,1.868036032,-0.000861144,0.000855176,-0.000051902,1.186961174,0.092127748,9.719149590
1784247013.308620,0.006132282,-0.123459041,1.868042827,-0.000810593,0.000408184,0.000756989,1.195091009,0.097307578,9.732192039
1784247013.310618,0.006132207,-0.123452127,1.868043065,-0.000857621,0.000625206,0.001060320,1.201487541,0.069863923,9.736506462
1784247013.312625,0.006137426,-0.123445451,1.868044257,-0.000306408,0.001319734,0.000833916,1.221417308,0.083243735,9.709261894
1784247013.314622,0.006133824,-0.123441696,1.868046761,-0.000124581,0.001610963,0.000847956,1.202058792,0.079335302,9.726703644
1784247013.316627,0.006130274,-0.123443335,1.868041873,-0.000666275,0.001274517,0.000511072,1.187722683,0.080507405,9.713696480
1784247013.318624,0.006125074,-0.123443261,1.868041635,-0.001189786,0.000779818,0.000101594,1.163065791,0.084642231,9.743736267
1784247013.320633,0.006125800,-0.123440571,1.868041515,-0.001170405,0.000755327,0.000094631,1.179453492,0.102496788,9.723691940
1784247013.322624,0.006134182,-0.123441137,1.868035674,-0.000415507,0.000588273,-0.000361392,1.174493313,0.099529229,9.708872795
1784247013.324631,0.006135664,-0.123441823,1.868029475,0.000132937,0.000235259,-0.001128134,1.205693245,0.084102415,9.742877960
1784247013.326632,0.006135802,-0.123436920,1.868030548,0.000102226,0.000429611,-0.001179415,1.192434311,0.098838575,9.710680008
1784247013.328635,0.006134964,-0.123433754,1.868034244,0.000008767,0.000837634,-0.000511380,1.195305705,0.077623338,9.727583885
1784247013.330632,0.006134234,-0.123430558,1.868035078,-0.000060248,0.001044998,-0.000043279,1.206090093,0.078822881,9.728497505
1784247013.332634,0.006136760,-0.123426929,1.868036151,-0.000036949,0.001268482,0.000099679,1.202722073,0.057618547,9.692042351
1784247013.334639,0.006129302,-0.123428926,1.868034720,-0.000493677,0.001077076,0.000092786,1.194466591,0.080526091,9.698907852
1784247013.336641,0.006132166,-0.123433374,1.868030190,-0.000795761,0.000345659,-0.000294574,1.192282200,0.086289294,9.711495399
1784247013.338641,0.006132025,-0.123428904,1.868034959,-0.000469440,0.000254704,-0.000212395,1.189619184,0.088986136,9.715096474
1784247013.340646,0.006130684,-0.123426855,1.868042707,-0.000337363,0.000634362,0.000698223,1.183007479,0.062551059,9.727025986
1784247013.342645,0.006127908,-0.123427264,1.868049741,-0.000445369,0.000461944,0.001557342,1.223588467,0.078995749,9.735688210
1784247013.344652,0.006123297,-0.123424545,1.868051529,-0.000793939,0.000377572,0.001803915,1.188117146,0.078045644,9.744167328
1784247013.346643,0.006128151,-0.123417996,1.868058085,-0.000590556,0.000779821,0.001878540,1.174334288,0.086925901,9.717310905
1784247013.348649,0.006130319,-0.123411901,1.868059278,0.000012297,0.001302385,0.001862697,1.210384846,0.098627687,9.708005905
1784247013.350650,0.006134264,-0.123406373,1.868059754,0.000435017,0.001739900,0.001418203,1.205673218,0.082323283,9.741071701
1784247013.352648,0.006138335,-0.123406336,1.868062973,0.000828574,0.001642945,0.001218576,1.222951412,0.098895594,9.710708618
1784247013.354652,0.006136670,-0.123407312,1.868060350,0.000713004,0.001127557,0.000925619,1.182066679,0.058978874,9.727002144
1784247013.356653,0.006126750,-0.123404756,1.868060350,-0.000237522,0.000870214,0.000585121,1.178540111,0.063981064,9.722994804
1784247013.358657,0.006127405,-0.123404652,1.868056536,-0.000784295,0.000753833,0.000229389,1.197232008,0.050774157,9.719343185
1784247013.360660,0.006130270,-0.123404726,1.868060589,-0.000334446,0.000550913,0.000133398,1.201840043,0.062614471,9.747220039
1784247013.362662,0.006131187,-0.123407990,1.868069291,0.000115787,0.000216462,0.000929111,1.168448687,0.082130305,9.709204674
