time_sec,roll_rad,pitch_rad,yaw_rad,gyro_x,gyro_y,gyro_z,acc_x,acc_y,acc_z
1784247030.292400,0.002304799,-0.113895342,-2.995611668,-0.000053461,0.000226891,0.000082168,1.051252127,0.040503189,9.725412369
1784247030.294352,0.002297895,-0.113894664,-2.995610952,-0.000617645,-0.000013176,-0.000134337,1.071898341,0.041906562,9.742927551
1784247030.296316,0.002295520,-0.113893621,-2.995616436,-0.001207794,-0.000041915,-0.000327634,1.118251204,0.015339620,9.741006851
1784247030.298314,0.002298328,-0.113891631,-2.995625257,-0.001056461,0.000025306,-0.001189106,1.077823043,0.013070707,9.754853249
1784247030.300325,0.002301204,-0.113890246,-2.995625496,-0.000456821,0.000247219,-0.001526109,1.098370433,0.003967852,9.737777710
1784247030.302346,0.002300202,-0.113892108,-2.995622158,-0.000097467,0.000116527,-0.000924929,1.084337473,0.031442475,9.742871284
1784247030.304325,0.002300839,-0.113896534,-2.995622158,0.000015309,-0.000373279,-0.000453307,1.121986866,0.062951773,9.717555046
1784247030.306344,0.002298448,-0.113892898,-2.995619535,-0.000222656,-0.000240555,-0.000125569,1.115985751,0.049543161,9.723740578
1784247030.308333,0.002294513,-0.113889337,-2.995618582,-0.000697728,0.000398808,0.000205988,1.099116087,0.065780118,9.739071846
1784247030.310345,0.002291921,-0.113891058,-2.995620728,-0.000957508,0.000415661,0.000120228,1.080262065,0.065144755,9.736359596
1784247030.312337,0.002292761,-0.113888398,-2.995623827,-0.001058198,0.000194765,-0.000232236,1.095203280,0.038147926,9.725440025
1784247030.314347,0.002291287,-0.113885753,-2.995612383,-0.000949657,0.000332225,0.000433592,1.084625244,0.053977262,9.723737717
1784247030.316355,0.002290981,-0.113880612,-2.995609283,-0.000851166,0.000645599,0.001335052,1.088984847,0.044807922,9.745203972
1784247030.318334,0.002290413,-0.113881320,-2.995607853,-0.000798336,0.000644421,0.001286426,1.085036516,0.050838970,9.723269463
1784247030.320342,0.002290863,-0.113879919,-2.995605707,-0.000562169,0.000515880,0.001178398,1.093881607,0.039169200,9.710203171
1784247030.322314,0.002291066,-0.113878697,-2.995604753,-0.000461379,0.000513226,0.001063992,1.099637985,0.036056932,9.759505272
1784247030.324315,0.002285373,-0.113875106,-2.995604992,-0.000820038,0.000660608,0.000872482,1.071669459,0.059452746,9.733175278
1784247030.326316,0.002281308,-0.113869950,-2.995598078,-0.001333955,0.000911927,0.001184665,1.081079721,0.058423374,9.734972000
1784247030.328311,0.002279121,-0.113868780,-2.995598316,-0.001474931,0.000930833,0.001357388,1.094045281,0.055861030,9.756936073
1784247030.330317,0.002280544,-0.113863431,-2.995595217,-0.001104880,0.001121382,0.001178070,1.107652307,0.028976841,9.732566833
1784247030.332305,0.002277964,-0.113862276,-2.995595932,-0.000907619,0.001260975,0.001047328,1.074664474,0.011350908,9.750355721
1784247030.334349,0.002273758,-0.113865003,-2.995600224,-0.001202735,0.000812301,0.000478973,1.088869095,0.034168147,9.729442596
1784247030.336314,0.002271913,-0.113866560,-2.995603323,-0.001384488,0.000180099,-0.000099182,1.063628197,0.025082920,9.729362488
1784247030.338335,0.002271505,-0.113869652,-2.995603561,-0.001228428,-0.000303113,-0.000267305,1.099668622,0.036298580,9.725433350
1784247030.340348,0.002267211,-0.113870002,-2.995609283,-0.001256838,-0.000454607,-0.000551355,1.095378399,0.053715274,9.741231918
1784247030.342318,0.002259757,-0.113864414,-2.995610952,-0.001922846,-0.000053811,-0.000792564,1.069176197,0.039272368,9.740217209
1784247030.344391,0.002261136,-0.113862731,-2.995612383,-0.001991249,0.000376114,-0.000714126,1.102329254,0.034799382,9.742462158
1784247030.346365,0.002260834,-0.113861784,-2.995616913,-0.001464815,0.000414769,-0.000928375,1.107252598,0.033017419,9.732143402
1784247030.348367,0.002257743,-0.113859296,-2.995616436,-0.001370344,0.000499158,-0.000940186,1.104288816,0.048234295,9.739860535
1784247030.350403,0.002256465,-0.113857627,-2.995615721,-0.001283381,0.000648111,-0.000569185,1.096141338,0.079694457,9.740950584
1784247030.352354,0.002257160,-0.113854922,-2.995615721,-0.001166094,0.000720264,-0.000335136,1.077047229,0.059736334,9.746633530
1784247030.354325,0.002252426,-0.113850720,-2.995624065,-0.001384813,0.000941752,-0.000759885,1.092869282,0.031384114,9.735706329
1784247030.356352,0.002252240,-0.113848239,-2.995628834,-0.001525482,0.001086896,-0.001394303,1.058492303,0.046161566,9.735768318
1784247030.358331,0.002249727,-0.113853462,-2.995625019,-0.001383624,0.000555044,-0.001047303,1.073698997,0.042741340,9.748313904
1784247030.360325,0.002251882,-0.113856114,-2.995619535,-0.000959579,-0.000127943,-0.000127737,1.080325007,0.071314454,9.750744820
1784247030.362326,0.002260006,-0.113851883,-2.995620012,-0.000175253,-0.000214421,0.000184166,1.095911980,0.062484331,9.767292976
1784247030.364327,0.002262355,-0.113854438,-2.995623112,0.000343271,-0.000273309,-0.000166334,1.100912809,0.026966365,9.712371826
1784247030.366320,0.002260851,-0.113856256,-2.995623112,0.000283771,-0.000600033,-0.000333687,1.092535615,0.041213214,9.740253448
1784247030.368313,0.002260756,-0.113854311,-2.995623112,0.000098583,-0.000531861,-0.000237500,1.097284555,0.062270314,9.731873512
1784247030.370314,0.002261122,-0.113851540,-2.995624781,0.000076940,-0.000068662,-0.000291307,1.088463545,0.036540885,9.711525917
1784247030.372318,0.002272133,-0.113847941,-2.995621681,0.000712266,0.000314865,-0.000184799,1.085934281,0.014050751,9.728415489
1784247030.374319,0.002271655,-0.113850534,-2.995618820,0.001152378,0.000232641,0.000197621,1.127820492,0.025696872,9.716423988
1784247030.376313,0.002269390,-0.113859110,-2.995620012,0.000634416,-0.000500969,0.000272553,1.093059897,0.009482324,9.727944374
1784247030.378324,0.002272127,-0.113857754,-2.995616913,0.000476963,-0.000767779,0.000328982,1.092356205,0.027234213,9.753164291
1784247030.380327,0.002283023,-0.113854073,-2.995616913,0.001292537,-0.000216101,0.000357672,1.079095006,0.042357925,9.729487419
1784247030.382365,0.002290777,-0.113857090,-2.995623112,0.002100943,-0.000208406,-0.000291201,1.072910428,0.050095089,9.723703384
1784247030.384325,0.002293748,-0.113858655,-2.995619774,0.002179087,-0.000558938,-0.000495916,1.066549897,0.043475240,9.720963478
1784247030.386324,0.002297273,-0.113856182,-2.995608807,0.002001778,-0.000477201,0.000565929,1.066523075,0.041642062,9.726779938
1784247030.388333,0.002298709,-0.113859363,-2.995601654,0.001798471,-0.000526511,0.001609524,1.101323605,0.062224917,9.730979919
1784247030.390329,0.002300366,-0.113864027,-2.995605946,0.001540464,-0.000914923,0.001338681,1.099221706,0.038750444,9.759520531
1784247030.392332,0.002305309,-0.113868572,-2.995608330,0.001479307,-0.001321144,0.000472972,1.086832404,0.051635582,9.734036446
1784247030.394332,0.002308716,-0.113868527,-2.995606422,0.001600021,-0.001297302,0.000241496,1.076416731,0.042097080,9.707962990
1784247030.396355,0.002311232,-0.113862649,-2.995603323,0.001567078,-0.000669093,0.000473219,1.071892142,0.039832097,9.719599724
1784247030.398338,0.002315010,-0.113862015,-2.995609283,0.001508569,-0.000171868,0.000118690,1.093697429,0.024341971,9.716382980
1784247030.400341,0.002321612,-0.113862753,-2.995611668,0.001734626,-0.000133981,-0.000556152,1.110980630,0.045005970,9.740741730
1784247030.402348,0.002325939,-0.113860413,-2.995617867,0.001882440,0.000001906,-0.001065243,1.119042039,0.043971583,9.745676041
1784247030.404346,0.002326907,-0.113860078,-2.995615721,0.001646525,0.000174387,-0.001075210,1.124053001,0.048959918,9.728226662
1784247030.406346,0.002328420,-0.113865115,-2.995608807,0.001322594,-0.000189835,-0.000182852,1.096397042,0.061954677,9.714834213
1784247030.408347,0.002333942,-0.113867983,-2.995611429,0.001356334,-0.000671851,0.000105407,1.105929136,0.035239495,9.737088203
1784247030.410345,0.002341255,-0.113871731,-2.995604277,0.001888195,-0.000938247,0.000280575,1.104380608,0.055443015,9.734078407
1784247030.412351,0.002340010,-0.113871597,-2.995596409,0.001859713,-0.000970596,0.001184651,1.095049262,0.062769271,9.728735924
1784247030.414375,0.002344191,-0.113868318,-2.995600939,0.001538508,-0.000518294,0.001087259,1.085072279,0.053552169,9.719700813
1784247030.416350,0.002337808,-0.113867216,-2.995601177,0.000853595,-0.000198723,0.000492035,1.097452760,0.038976941,9.730828285
1784247030.418351,0.002329799,-0.113871031,-2.995600939,-0.000429074,-0.000446103,0.000487744,1.094498992,0.054273300,9.727335930
1784247030.420360,0.002338679,-0.113872617,-2.995602131,-0.000260754,-0.000690987,0.000287440,1.113960505,0.032346502,9.751424789
1784247030.422366,0.002348217,-0.113878772,-2.995605469,0.000945437,-0.001076621,-0.000255053,1.106954217,0.046366613,9.745678902
1784247030.424361,0.002348682,-0.113888696,-2.995611429,0.001221842,-0.001925593,-0.000889048,1.101691842,0.055909563,9.736321449
1784247030.426362,0.002352389,-0.113889635,-2.995605469,0.001063820,-0.002184517,-0.000645454,1.102409244,0.041509252,9.743849754
1784247030.428364,0.002350938,-0.113885358,-2.995600224,0.000903211,-0.001405232,0.000277446,1.097727299,0.061406791,9.726489067
1784247030.430358,0.002353248,-0.113883182,-2.995597839,0.000771510,-0.000583722,0.000680383,1.115480065,0.045857117,9.738959312
1784247030.432359,0.002353686,-0.113880150,-2.995600462,0.000694473,-0.000018365,0.000468313,1.115488887,0.047547210,9.753315926
1784247030.434366,0.002347429,-0.113877878,-2.995602846,0.000024264,0.000401664,0.000060167,1.130939603,0.023458164,9.710584641
1784247030.436362,0.002346214,-0.113878593,-2.995602131,-0.000502996,0.000490752,-0.000021813,1.121204257,0.037626859,9.751913071
1784247030.438369,0.002349813,-0.113876134,-2.995604038,-0.000217882,0.000566656,-0.000116512,1.113529205,0.032488976,9.732147217
1784247030.440373,0.002347946,-0.113875747,-2.995604992,-0.000064351,0.000605201,-0.000293991,1.097127438,0.049682885,9.738069534
1784247030.442372,0.002345771,-0.113881163,-2.995604277,-0.000393603,0.000024625,-0.000192700,1.095050335,0.063588880,9.739500999
1784247030.444373,0.002346689,-0.113883428,-2.995608807,-0.000472086,-0.000578500,-0.000372384,1.120900393,0.048907962,9.741224289
1784247030.446365,0.002349103,-0.113882281,-2.995606899,-0.000288273,-0.000462715,-0.000463702,1.137751579,0.032524727,9.746517181
1784247030.448381,0.002348580,-0.113884911,-2.995601416,-0.000174290,-0.000400357,0.000155588,1.126278281,0.047571387,9.730463028
1784247030.450376,0.002344181,-0.113891937,-2.995599985,-0.000405080,-0.000945629,0.000620997,1.109957695,0.072701409,9.754368782
1784247030.452379,0.002343121,-0.113894843,-2.995602369,-0.000880315,-0.001426439,0.000453638,1.100050092,0.069704890,9.752548218
1784247030.454375,0.002347141,-0.113893263,-2.995596409,-0.000624033,-0.001190665,0.000570614,1.115910769,0.042871442,9.716973305
1784247030.456376,0.002344711,-0.113892473,-2.995588303,-0.000291078,-0.000718814,0.001361755,1.121498466,0.059809070,9.719328880
1784247030.458383,0.002341591,-0.113892168,-2.995580912,-0.000519909,-0.000460873,0.002081281,1.119586229,0.087172985,9.718156815
1784247030.460381,0.002340375,-0.113889895,-2.995585203,-0.000647240,-0.000160193,0.001757703,1.116860628,0.047326833,9.718793869
1784247030.462387,0.002340709,-0.113889202,-2.995592356,-0.000701453,0.000064521,0.000529224,1.112848997,0.050021835,9.725085258
1784247030.464442,0.002339966,-0.113890156,-2.995591879,-0.000671750,0.000009494,-0.000041887,1.100122690,0.073924139,9.726121902
1784247030.466403,0.002342943,-0.113892466,-2.995590687,-0.000581241,-0.000232645,0.000082603,1.101088285,0.042940337,9.733994484
1784247030.468398,0.002341158,-0.113893144,-2.995592594,-0.000605116,-0.000389077,0.000010795,1.098899841,0.048671745,9.751066208
1784247030.470418,0.002337463,-0.113887742,-2.995589256,-0.000797932,0.000037615,0.000159787,1.129422665,0.048369840,9.738540649
1784247030.472400,0.002339729,-0.113887496,-2.995584965,-0.000757387,0.000452064,0.000666330,1.128687024,0.060600288,9.721133232
1784247030.474408,0.002340660,-0.113884218,-2.995586634,-0.000457265,0.000609509,0.000637827,1.141930103,0.044116795,9.747042656
1784247030.476415,0.002342972,-0.113880932,-2.995589972,-0.000252374,0.001015441,0.000113213,1.122930527,0.067762919,9.732381821
1784247030.478412,0.002340246,-0.113883972,-2.995590925,-0.000343039,0.000881211,-0.000181481,1.124743700,0.068289630,9.718040466
1784247030.480405,0.002345467,-0.113890275,-2.995593548,-0.000110120,0.000006238,-0.000400017,1.131093502,0.074420176,9.726604462
1784247030.482435,0.002350538,-0.113893881,-2.995593071,0.000421600,-0.000581409,-0.000504211,1.123303652,0.098672248,9.732580185
1784247030.484406,0.002349688,-0.113890111,-2.995591164,0.000435826,-0.000323725,-0.000215851,1.133151531,0.059958108,9.740411758
1784247030.486444,0.002348529,-0.113890387,-2.995593786,0.000123385,0.000066685,-0.000203737,1.107280374,0.036883734,9.755481720
1784247030.488418,0.002353332,-0.113897733,-2.995597839,0.000232136,-0.000405842,-0.000631839,1.120614529,0.061952274,9.734583855
1784247030.490421,0.002358121,-0.113899291,-2.995598793,0.000779646,-0.000899670,-0.000853536,1.112840414,0.050358500,9.740778923
1784247030.492416,0.002355465,-0.113897815,-2.995599270,0.000623586,-0.000679231,-0.000723861,1.103078604,0.058240231,9.721093178
1784247030.494423,0.002353411,-0.113900378,-2.995599031,0.000056831,-0.000586529,-0.000504130,1.122523665,0.071342818,9.733748436
1784247030.496420,0.002347833,-0.113902129,-2.995589733,-0.000557779,-0.000629134,0.000359029,1.128376603,0.073044032,9.736008644
1784247030.498421,0.002344783,-0.113898240,-2.995593786,-0.001108575,-0.000225197,0.000683210,1.111630678,0.061584316,9.739504814
1784247030.500421,0.002344051,-0.113891475,-2.995597363,-0.001122679,0.000556517,0.000002061,1.135745525,0.053070657,9.759200096
1784247030.502425,0.002341182,-0.113884561,-2.995595455,-0.001240371,0.001322370,-0.000041931,1.151737571,0.039027765,9.751951218
1784247030.504421,0.002336900,-0.113888614,-2.995599270,-0.001569132,0.001144939,-0.000078461,1.113282561,0.049085185,9.730011940
1784247030.506418,0.002335712,-0.113895863,-2.995603800,-0.001673394,0.000045145,-0.000579613,1.096173406,0.044385616,9.728618622
1784247030.508426,0.002340897,-0.113900334,-2.995601416,-0.001063354,-0.000783541,-0.000600775,1.106711507,0.060967855,9.709010124
1784247030.510426,0.002344831,-0.113894753,-2.995599031,-0.000122098,-0.000495284,-0.000177190,1.130379915,0.052882466,9.732293129
1784247030.512429,0.002346240,-0.113889582,-2.995602369,0.000066390,0.000478139,-0.000208133,1.129732847,0.074322961,9.742741585
1784247030.514431,0.002347049,-0.113886073,-2.995602846,-0.000032413,0.001047038,-0.000430401,1.122927308,0.066927411,9.723857880
1784247030.516425,0.002354196,-0.113883935,-2.995607376,0.000273156,0.001241967,-0.000683204,1.116140008,0.026948582,9.750494957
1784247030.518439,0.002350004,-0.113882191,-2.995611429,0.000133243,0.001262993,-0.001049136,1.105882883,0.032036997,9.746482849
1784247030.520436,0.002349345,-0.113883384,-2.995615959,-0.000297619,0.000957871,-0.001318022,1.103043199,0.055933654,9.730494499
1784247030.522437,0.002352823,-0.113886982,-2.995613098,-0.000219083,0.000332725,-0.001082280,1.109403968,0.026586862,9.750486374
1784247030.524429,0.002357296,-0.113885596,-2.995615482,0.000201406,0.000052722,-0.000800679,1.113948822,0.031444214,9.752314568
1784247030.526436,0.002364119,-0.113886394,-2.995622873,0.000764719,0.000048392,-0.001316087,1.104624033,0.039227981,9.745632172
1784247030.528441,0.002359335,-0.113885231,-2.995621920,0.000577536,0.000031799,-0.001385700,1.116012335,0.052589860,9.736312866
1784247030.530441,0.002354147,-0.113884583,-2.995617390,-0.000210400,0.000147420,-0.000570250,1.106940866,0.047071759,9.772583008
1784247030.532441,0.002349530,-0.113885053,-2.995619297,-0.000895175,-0.000018039,-0.000158288,1.116980910,0.058408223,9.735454559
1784247030.534444,0.002345781,-0.113886394,-2.995629549,-0.001411233,-0.000276183,-0.000869873,1.121552229,0.063878879,9.713974953
1784247030.536438,0.002345057,-0.113884941,-2.995627642,-0.001549200,-0.000144258,-0.001151421,1.114313722,0.061476689,9.749818802
1784247030.538449,0.002345918,-0.113879122,-2.995617151,-0.001177486,0.000442323,0.000018895,1.095652699,0.038148537,9.724543571
1784247030.540446,0.002346910,-0.113875113,-2.995612621,-0.000616410,0.000991620,0.001017012,1.107121229,0.059843607,9.740386009
1784247030.542454,0.002351225,-0.113877788,-2.995614290,-0.000194028,0.000802748,0.000910487,1.093886495,0.076797329,9.711340904
1784247030.544448,0.002342722,-0.113884829,-2.995609999,-0.000527464,-0.000084338,0.000899898,1.096633792,0.046902288,9.751949310
1784247030.546454,0.002336352,-0.113882504,-2.995604277,-0.001419452,-0.000439017,0.001452383,1.086273551,0.080256179,9.742738724
1784247030.548461,0.002338236,-0.113875791,-2.995607138,-0.001424953,0.000235157,0.001283424,1.083727002,0.093192510,9.755372047
1784247030.550458,0.002342158,-0.113874897,-2.995611906,-0.000704310,0.000687234,0.000385044,1.111608386,0.059382666,9.734109879
1784247030.552455,0.002342655,-0.113875605,-2.995607853,-0.000385612,0.000439830,0.000214443,1.086455345,0.057474356,9.732728958
1784247030.554459,0.002339902,-0.113874242,-2.995601177,-0.000516594,0.000294531,0.000902110,1.103849769,0.085906312,9.735617638
1784247030.556454,0.002340457,-0.113872789,-2.995595455,-0.000699984,0.000440846,0.001530696,1.114433408,0.069718048,9.724763870
1784247030.558463,0.002336774,-0.113872178,-2.995592594,-0.000923998,0.000495853,0.001753510,1.092121482,0.082729302,9.762487411
1784247030.560458,0.002336286,-0.113870457,-2.995596409,-0.000959266,0.000520531,0.001266080,1.093176126,0.057311807,9.743495941
1784247030.562465,0.002340443,-0.113870248,-2.995598078,-0.000660179,0.000393338,0.000531611,1.109017968,0.068325520,9.741337776
1784247030.564461,0.002336993,-0.113869891,-2.995594978,-0.000589078,0.000209278,0.000483215,1.122832060,0.022506742,9.732988358
1784247030.566467,0.002333556,-0.113865636,-2.995592117,-0.000804077,0.000561833,0.000811282,1.113858342,0.021408208,9.714590073
1784247030.568464,0.002341550,-0.113863237,-2.995590210,-0.000199375,0.000955557,0.000871730,1.122774959,0.016788170,9.718156815
1784247030.570477,0.002339934,-0.113861017,-2.995590925,0.000293454,0.001009376,0.000661826,1.079463005,-0.000737331,9.740419388
1784247030.572486,0.002330806,-0.113861531,-2.995589733,-0.000399614,0.000753498,0.000577804,1.070991278,0.002631642,9.722948074
1784247030.574475,0.002324934,-0.113860331,-2.995588541,-0.001176867,0.000497037,0.000678238,1.087127209,0.039471284,9.742925644
1784247030.576469,0.002321421,-0.113854609,-2.995591879,-0.001574957,0.000742258,0.000447197,1.085573316,0.098033503,9.764371872
1784247030.578481,0.002322177,-0.113849550,-2.995584965,-0.001374678,0.001183609,0.000606061,1.083985567,0.075881623,9.731948853
1784247030.580481,0.002322599,-0.113846593,-2.995579958,-0.000833178,0.001407879,0.001209278,1.089919329,0.045899030,9.716069221
1784247030.582516,0.002316919,-0.113850161,-2.995579958,-0.001023540,0.000913917,0.001265035,1.099086761,0.062711172,9.729637146
1784247030.584488,0.002307539,-0.113849729,-2.995578766,-0.001850790,0.000382501,0.001141138,1.075511813,0.080854841,9.740938187
1784247030.586487,0.002306488,-0.113845795,-2.995577812,-0.002285738,0.000461320,0.001089845,1.086104870,0.066766463,9.749825478
1784247030.588544,0.002307473,-0.113842450,-2.995584965,-0.001966151,0.000713742,0.000422764,1.099987864,0.028381787,9.767077446
1784247030.590498,0.002305801,-0.113842882,-2.995585203,-0.001536109,0.000716286,-0.000190258,1.107820988,0.044086695,9.749700546
1784247030.592493,0.002300285,-0.113842241,-2.995579720,-0.001679321,0.000501537,0.000263821,1.110767961,0.063896038,9.730999947
1784247030.594496,0.002301626,-0.113841392,-2.995580673,-0.001583672,0.000433267,0.000541266,1.090782166,0.044400550,9.736237526
1784247030.596498,0.002304649,-0.113839589,-2.995585442,-0.000915313,0.000399836,-0.000031804,1.088837862,0.030273216,9.710140228
1784247030.598495,0.002305760,-0.113834225,-2.995584011,-0.000425497,0.000680441,-0.000285109,1.120638967,0.025366334,9.712829590
1784247030.600512,0.002305795,-0.113831997,-2.995585203,-0.000230672,0.001010941,-0.000198417,1.100004077,0.063668735,9.719332695
1784247030.602512,0.002309206,-0.113827892,-2.995580912,-0.000054233,0.001142122,0.000062751,1.085538983,0.055716265,9.729578018
1784247030.604506,0.002301550,-0.113828912,-2.995569229,-0.000346077,0.001020583,0.001171774,1.099363923,0.048383385,9.727750778
1784247030.606503,0.002296433,-0.113830641,-2.995572090,-0.001104113,0.000562598,0.001543518,1.114450812,0.035101652,9.741130829
1784247030.608508,0.002296467,-0.113830753,-2.995577812,-0.001273088,0.000286463,0.000569683,1.099140763,0.031627577,9.753199577
1784247030.610503,0.002300344,-0.113826983,-2.995579958,-0.000723155,0.000456029,-0.000136610,1.085234523,0.031427804,9.743320465
1784247030.612505,0.002304097,-0.113822833,-2.995576859,-0.000068475,0.000789265,-0.000071908,1.091070414,0.032185383,9.752298355
1784247030.614504,0.002303224,-0.113821171,-2.995574951,0.000116929,0.000889403,0.000262799,1.098140955,0.022724373,9.746864319
1784247030.616517,0.002305584,-0.113815054,-2.995569468,0.000271437,0.001123139,0.000670022,1.082767606,0.013077423,9.744994164
1784247030.618523,0.002310129,-0.113808639,-2.995569944,0.000731488,0.001614870,0.000770453,1.086146832,0.030723879,9.714624405
1784247030.620520,0.002305777,-0.113803200,-2.995569944,0.000543067,0.001980618,0.000535945,1.077376604,0.047442034,9.710688591
1784247030.622512,0.002301715,-0.113793716,-2.995562315,-0.000191900,0.002285743,0.000978136,1.104247451,0.043449804,9.719655037
1784247030.624512,0.002300741,-0.113794737,-2.995557308,-0.000461542,0.002071295,0.001605137,1.112237096,0.036985833,9.732173920
1784247030.626515,0.002296695,-0.113792934,-2.995554209,-0.000624976,0.001556613,0.001753076,1.101273060,0.057773929,9.726917267
1784247030.628518,0.002293196,-0.113793604,-2.995555401,-0.000959881,0.001204324,0.001481543,1.105331898,0.058694422,9.716165543
1784247030.630526,0.002296177,-0.113796718,-2.995556831,-0.000754470,0.000621179,0.000903540,1.092140913,0.044481874,9.722340584
1784247030.632526,0.002304382,-0.113796614,-2.995556116,0.000082098,0.000188737,0.000519624,1.071629524,0.018711155,9.728878975
1784247030.634563,0.002302885,-0.113801003,-2.995558500,0.000383249,-0.000212855,0.000220922,1.075578690,0.012283030,9.743637085
1784247030.636526,0.002301590,-0.113800697,-2.995560884,0.000041352,-0.000606467,-0.000142549,1.086149931,0.034799676,9.771589279
1784247030.638531,0.002306234,-0.113797702,-2.995564699,0.000195835,-0.000392697,-0.000548319,1.090254784,0.039732739,9.763553619
1784247030.640531,0.002312627,-0.113800272,-2.995570183,0.000815051,-0.000258770,-0.001114011,1.112553000,0.063390099,9.735931396
1784247030.642527,0.002314563,-0.113804139,-2.995572567,0.001007423,-0.000645279,-0.001384806,1.113239527,0.081877947,9.718116760
1784247030.644529,0.002312927,-0.113806672,-2.995573282,0.000640474,-0.000923593,-0.001221828,1.087466955,0.068089925,9.750283241
1784247030.646533,0.002311267,-0.113802224,-2.995566130,0.000141932,-0.000624076,-0.000414701,1.064323187,0.047284447,9.756403923
1784247030.648536,0.002314899,-0.113794714,-2.995569944,0.000112150,0.000275933,-0.000057062,1.079303622,-0.013747280,9.743023872
1784247030.650540,0.002323635,-0.113793053,-2.995576859,0.000833099,0.000822107,-0.000861013,1.092108965,0.005830649,9.739129066
1784247030.652538,0.002319071,-0.113792032,-2.995577812,0.000917790,0.000665325,-0.001215799,1.118006229,-0.005641425,9.730561256
1784247030.654537,0.002318467,-0.113790676,-2.995571375,0.000452646,0.000532816,-0.000500399,1.141055226,0.008336531,9.739639282
1784247030.656538,0.002324083,-0.113789923,-2.995567083,0.000784135,0.000625166,0.000329762,1.112987876,0.023659511,9.714604378
1784247030.658541,0.002329180,-0.113787211,-2.995567799,0.001353327,0.000782224,0.000393991,1.086187601,0.035908636,9.741556168
1784247030.660542,0.002322982,-0.113787316,-2.995568752,0.000899023,0.000745566,0.000185834,1.091839194,0.059832394,9.769512177
1784247030.662549,0.002319853,-0.113788873,-2.995568037,-0.000051353,0.000328452,0.000211552,1.103158116,0.066163629,9.740870476
1784247030.664546,0.002323961,-0.113796823,-2.995563507,-0.000008744,-0.000506974,0.000499271,1.074907899,0.031912606,9.756764412
1784247030.666549,0.002324773,-0.113798663,-2.995561838,0.000383254,-0.001173572,0.000727174,1.066588283,0.048237473,9.744307518
1784247030.668552,0.002325187,-0.113797225,-2.995564222,0.000369293,-0.001023434,0.000481073,1.085879683,0.047968000,9.747462273
1784247030.670554,0.002324732,-0.113801651,-2.995563984,0.000250474,-0.000948334,0.000211168,1.107217073,0.065463975,9.705900192
1784247030.672553,0.002325881,-0.113805898,-2.995564938,0.000032617,-0.001306853,0.000120345,1.124747753,0.031138081,9.712870598
1784247030.674553,0.002330572,-0.113810562,-2.995569706,0.000181976,-0.001587027,-0.000324522,1.129077554,0.022140080,9.773341179
1784247030.676556,0.002331298,-0.113815956,-2.995570183,0.000489460,-0.001811272,-0.000648400,1.114116788,0.006527525,9.727497101
1784247030.678573,0.002327603,-0.113817379,-2.995574236,0.000155035,-0.001753396,-0.000757634,1.088552237,0.045750931,9.739380836
1784247030.680570,0.002331876,-0.113815725,-2.995577335,0.000097554,-0.001262042,-0.001032981,1.099542618,0.062762663,9.721567154
1784247030.682589,0.002335202,-0.113816418,-2.995580435,0.000363137,-0.000889633,-0.001196896,1.087214470,0.046645015,9.742075920
1784247030.684639,0.002333597,-0.113819219,-2.995581627,0.000173241,-0.000921186,-0.001156137,1.091860414,0.058784235,9.727810860
1784247030.686624,0.002337208,-0.113816991,-2.995583773,0.000126773,-0.000801390,-0.001089399,1.087105989,0.036062475,9.718244553
1784247030.688583,0.002336883,-0.113817960,-2.995584488,0.000184596,-0.000589334,-0.001003836,1.084890723,0.038340561,9.716914177
1784247030.690590,0.002336797,-0.113819696,-2.995587349,0.000080179,-0.000613155,-0.000960783,1.080154896,0.055381808,9.723295212
1784247030.692581,0.002342859,-0.113821670,-2.995585918,0.000382391,-0.000743135,-0.000839186,1.085766554,0.075343885,9.741361618
1784247030.694584,0.002341537,-0.113817930,-2.995577574,0.000604820,-0.000464514,0.000009655,1.083793044,0.059770919,9.729602814
1784247030.696584,0.002338830,-0.113812350,-2.995569468,0.000228676,0.000245029,0.001153497,1.112861633,0.051337101,9.729127884
1784247030.698585,0.002337153,-0.113819845,-2.995577574,-0.000195709,-0.000003668,0.000881108,1.119657159,0.056626394,9.729168892
1784247030.700602,0.002337588,-0.113823682,-2.995582342,-0.000328295,-0.000775074,-0.000240974,1.109154582,0.041134045,9.721437454
1784247030.702588,0.002342664,-0.113824800,-2.995583057,0.000048925,-0.000895042,-0.000585836,1.108386278,0.053106941,9.740344048
1784247030.704594,0.002338464,-0.113828629,-2.995585203,0.000033893,-0.000980750,-0.000602843,1.081498861,0.056968808,9.749757767
1784247030.706589,0.002336299,-0.113825560,-2.995587349,-0.000572182,-0.000910444,-0.000669593,1.083047271,0.035548601,9.734827042
1784247030.708603,0.002340005,-0.113818601,-2.995589733,-0.000481234,-0.000126558,-0.000785499,1.113569021,0.036857300,9.747866631
1784247030.710595,0.002346050,-0.113821007,-2.995585203,0.000323065,0.000218334,-0.000508987,1.095716834,0.044327784,9.737586021
1784247030.712593,0.002345222,-0.113820665,-2.995586395,0.000612981,-0.000121973,-0.000184954,1.098400950,0.044229690,9.746553421
1784247030.714597,0.002345065,-0.113825805,-2.995593309,0.000317554,-0.000557983,-0.000672825,1.092763424,0.022037348,9.727128029
1784247030.716599,0.002343481,-0.113830544,-2.995597839,0.000153046,-0.001252704,-0.001264927,1.109583616,0.039352342,9.719185829
1784247030.718601,0.002349414,-0.113832869,-2.995599270,0.000486549,-0.001567690,-0.001369550,1.117652059,0.039185256,9.728157997
1784247030.720609,0.002354042,-0.113834634,-2.995603323,0.001022909,-0.001422223,-0.001461263,1.108211517,0.037542775,9.724103928
1784247030.722603,0.002353611,-0.113839410,-2.995602846,0.000942170,-0.001402272,-0.001348786,1.114218712,0.054242544,9.759186745
1784247030.724627,0.002354421,-0.113839045,-2.995604277,0.000649317,-0.001242659,-0.001031737,1.104450226,0.060856692,9.728733063
1784247030.726606,0.002364042,-0.113834664,-2.995602608,0.001002241,-0.000592623,-0.000778845,1.116962314,0.059882097,9.780297279
1784247030.728607,0.002373542,-0.113837071,-2.995600224,0.001871699,-0.000306668,-0.000432222,1.123779774,0.064939640,9.749849319
1784247030.730653,0.002372781,-0.113838017,-2.995601892,0.001959160,-0.000451565,-0.000326960,1.115535378,0.048726119,9.713423729
1784247030.732623,0.002369527,-0.113837384,-2.995605469,0.001031545,-0.000328671,-0.000539410,1.100670934,0.045220874,9.729077339
1784247030.734613,0.002369670,-0.113838933,-2.995600939,0.000462919,-0.000278732,-0.000297087,1.119239330,0.059713814,9.736809731
1784247030.736608,0.002373640,-0.113840461,-2.995594740,0.000551909,-0.000395424,0.000475098,1.102455258,0.043898508,9.722793579
1784247030.738619,0.002368415,-0.113842718,-2.995594978,0.000219060,-0.000528481,0.000765951,1.092022061,0.035033353,9.728106499
1784247030.740615,0.002367346,-0.113846041,-2.995598793,-0.000294647,-0.000762607,0.000344825,1.110939741,0.077814624,9.726606369
1784247030.742630,0.002371797,-0.113846973,-2.995597839,-0.000234236,-0.000865965,0.000057156,1.101025701,0.075983927,9.749897957
1784247030.744617,0.002368466,-0.113847613,-2.995602608,-0.000350862,-0.000759203,-0.000205804,1.142910123,0.050430804,9.739462852
1784247030.746616,0.002369622,-0.113849051,-2.995599985,-0.000525353,-0.000573243,-0.000270545,1.117293239,0.083973795,9.731135368
1784247030.748655,0.002374751,-0.113853596,-2.995592594,0.000011915,-0.000701574,0.000440054,1.097692490,0.059106570,9.734992027
1784247030.750630,0.002377075,-0.113856509,-2.995586157,0.000617358,-0.001014799,0.001191507,1.117133379,0.070554033,9.728359222
1784247030.752626,0.002379898,-0.113856532,-2.995581150,0.000718528,-0.000932553,0.001613760,1.111792803,0.074616522,9.733759880
1784247030.754628,0.002381450,-0.113854408,-2.995574713,0.000741652,-0.000530218,0.001941245,1.089931011,0.048017997,9.733120918
1784247030.756625,0.002383274,-0.113852315,-2.995577335,0.000742457,-0.000161742,0.001656707,1.095787406,0.048937753,9.719232559
1784247030.758630,0.002383851,-0.113857217,-2.995583773,0.000577150,-0.000372187,0.000580006,1.113258362,0.085267678,9.745487213
1784247030.760634,0.002385722,-0.113864303,-2.995583057,0.000540558,-0.001085701,0.000009274,1.106858253,0.073879242,9.720300674
1784247030.762637,0.002390491,-0.113862589,-2.995583773,0.000662108,-0.001195428,-0.000024890,1.127964020,0.076982856,9.749929428
1784247030.764642,0.002390000,-0.113863319,-2.995580673,0.000610266,-0.000842976,0.000132925,1.114789128,0.024904083,9.725375175
1784247030.766642,0.002391010,-0.113867775,-2.995582342,0.000532811,-0.000927332,0.000173722,1.103038311,0.019522224,9.747296333
1784247030.768638,0.002397961,-0.113872215,-2.995586157,0.000926855,-0.001242532,-0.000302707,1.136717677,0.021327659,9.747788429
1784247030.770638,0.002399703,-0.113870271,-2.995588064,0.001218245,-0.001076106,-0.000665619,1.109211802,0.046449158,9.729990959
1784247030.772640,0.002404145,-0.113870800,-2.995579720,0.001269122,-0.000652230,-0.000098184,1.124793530,0.036767617,9.740254402
1784247030.774642,0.002406978,-0.113875262,-2.995577812,0.001409375,-0.000778084,0.000565655,1.126649737,0.040471401,9.720106125
1784247030.776642,0.002407188,-0.113875166,-2.995582342,0.001135050,-0.000752621,0.000218925,1.134250998,0.041783944,9.773921013
1784247030.778653,0.002406156,-0.113873720,-2.995583534,0.000650661,-0.000333915,-0.000212405,1.105108500,0.077905260,9.724359512
1784247030.780653,0.002405984,-0.113872081,-2.995580673,0.000405093,-0.000033036,-0.000039078,1.120804906,0.077233829,9.727509499
1784247030.782714,0.002412103,-0.113872141,-2.995579243,0.000586464,0.000091385,0.000231648,1.122411966,0.061544899,9.725616455
1784247030.784715,0.002415756,-0.113873973,-2.995577335,0.000969384,-0.000054116,0.000337693,1.137920618,0.082390890,9.727558136
1784247030.786692,0.002423396,-0.113875307,-2.995579958,0.001267069,-0.000158653,0.000144206,1.121624708,0.072151676,9.747652054
1784247030.788679,0.002430544,-0.113877356,-2.995582342,0.001683432,-0.000252854,-0.000339515,1.112998009,0.064165816,9.752075195
1784247030.790708,0.002440064,-0.113878623,-2.995587349,0.002293557,-0.000413675,-0.000872445,1.079660058,0.088154882,9.714984894
1784247030.792686,0.002443400,-0.113876648,-2.995590925,0.002270348,-0.000309687,-0.001278242,1.072015285,0.050935734,9.733122826
1784247030.794720,0.002443237,-0.113870732,-2.995592356,0.001625232,0.000257048,-0.001283295,1.128509641,0.048257325,9.756024361
1784247030.796707,0.002449887,-0.113869600,-2.995592117,0.001516099,0.000646581,-0.001051859,1.131684899,0.050514132,9.747971535
1784247030.798680,0.002445869,-0.113870494,-2.995595694,0.001160599,0.000466012,-0.000994596,1.116109133,0.059433281,9.718872070
1784247030.800684,0.002444412,-0.113868870,-2.995588779,0.000503245,0.000389664,-0.000447756,1.139524817,0.029089745,9.722286224
1784247030.802676,0.002447472,-0.113866568,-2.995587587,0.000532712,0.000579003,0.000205509,1.132915258,0.041883860,9.762263298
1784247030.804695,0.002445078,-0.113868825,-2.995589018,0.000426045,0.000451759,0.000120119,1.118362904,0.061917428,9.743547440
1784247030.806685,0.002444451,-0.113866352,-2.995587587,0.000004508,0.000344440,0.000111441,1.108012199,0.060187858,9.753390312
1784247030.808678,0.002439148,-0.113869883,-2.995591879,-0.000520114,0.000179605,-0.000058176,1.117003441,0.023023082,9.733881950
1784247030.810675,0.002434856,-0.113870524,-2.995593071,-0.001067001,-0.000153805,-0.000327605,1.133607984,0.022019366,9.719097137
1784247030.812691,0.002431441,-0.113868780,-2.995586634,-0.001172715,0.000063927,0.000165119,1.115766525,0.032819159,9.744704247
1784247030.814678,0.002431752,-0.113870025,-2.995585918,-0.000924905,0.000182487,0.000614615,1.108007550,0.056502789,9.704498291
1784247030.816679,0.002431168,-0.113873489,-2.995581865,-0.000767135,-0.000197880,0.000776966,1.099057317,0.060452286,9.732311249
1784247030.818692,0.002422979,-0.113872901,-2.995572329,-0.001158621,-0.000347503,0.001545007,1.104140401,0.072900146,9.736880302
1784247030.820697,0.002419683,-0.113869324,-2.995570183,-0.001528686,0.000031057,0.001998788,1.120936513,0.088404223,9.731616974
1784247030.822688,0.002420932,-0.113865636,-2.995570660,-0.001396844,0.000486925,0.001608931,1.125960827,0.095524266,9.729424477
1784247030.824691,0.002416228,-0.113863885,-2.995572567,-0.001428066,0.000696058,0.001053260,1.131255746,0.051485747,9.738113403
1784247030.826686,0.002418619,-0.113857932,-2.995577812,-0.001302817,0.001082907,0.000307017,1.100091696,0.070439018,9.712202072
1784247030.828698,0.002422480,-0.113853872,-2.995581627,-0.000648883,0.001521865,-0.000433414,1.090889573,0.051326647,9.707139969
1784247030.830697,0.002426755,-0.113849603,-2.995579958,0.000059692,0.001674377,-0.000522078,1.107540607,0.019989010,9.736543655
1784247030.832698,0.002420434,-0.113845371,-2.995579481,-0.000076081,0.001772188,-0.000208690,1.110896826,0.038670916,9.749668121
1784247030.834694,0.002419730,-0.113844641,-2.995588064,-0.000591937,0.001600044,-0.000650326,1.091668963,0.045926534,9.772112846
1784247030.836700,0.002425328,-0.113840617,-2.995592117,-0.000316940,0.001379951,-0.001350635,1.087792397,0.059007306,9.766813278
1784247030.838709,0.002423835,-0.113833562,-2.995595694,-0.000130833,0.001649647,-0.001515445,1.124871373,0.042651534,9.731774330
1784247030.840702,0.002420389,-0.113827899,-2.995594263,-0.000445899,0.002064422,-0.001219816,1.117539644,0.030191064,9.733033180
1784247030.842700,0.002421073,-0.113824040,-2.995593786,-0.000497814,0.002129016,-0.000734717,1.120772958,0.036149193,9.708415031
1784247030.844708,0.002425295,-0.113823779,-2.995589256,0.000002544,0.001809510,-0.000256152,1.120068789,0.051871128,9.704032898
1784247030.846711,0.002424621,-0.113826789,-2.995584249,0.000216911,0.001144289,0.000432814,1.107499719,0.053204287,9.728239059
1784247030.848715,0.002413180,-0.113827422,-2.995579243,-0.000676739,0.000597899,0.001113224,1.109727502,0.052241467,9.733614922
1784247030.850714,0.002407257,-0.113825180,-2.995577574,-0.001612798,0.000546246,0.001393751,1.086035848,0.021742394,9.717704773
1784247030.852709,0.002406507,-0.113823369,-2.995584488,-0.001659219,0.000561187,0.000714876,1.116645336,0.031038078,9.741554260
1784247030.854708,0.002406137,-0.113818683,-2.995593548,-0.001400189,0.000735555,-0.000536477,1.118007541,0.032768156,9.747844696
1784247030.856715,0.002410704,-0.113815024,-2.995596647,-0.000883852,0.001109708,-0.001229556,1.125518799,0.060424320,9.751615524
1784247030.858714,0.002400901,-0.113815457,-2.995589256,-0.001020410,0.001038735,-0.000581869,1.138296962,0.077355817,9.741872787
1784247030.860718,0.002397686,-0.113817431,-2.995590687,-0.001576596,0.000594867,0.000067571,1.140909672,0.069804542,9.727929115
1784247030.862718,0.002404694,-0.113821499,-2.995590448,-0.001023542,0.000138729,-0.000036193,1.115211964,0.096631303,9.719109535
1784247030.864720,0.002410908,-0.113820955,-2.995589256,0.000031983,-0.000021050,-0.000037580,1.123733997,0.060526803,9.740405083
1784247030.866720,0.002408862,-0.113818489,-2.995595932,0.000209506,0.000267236,-0.000416362,1.131006360,0.031279802,9.744709969
1784247030.868727,0.002405226,-0.113812044,-2.995590448,-0.000290570,0.000877694,-0.000311983,1.102425575,0.040422928,9.707527161
1784247030.870722,0.002400913,-0.113812789,-2.995582104,-0.000642298,0.001028196,0.000755287,1.127650619,0.048570897,9.713432312
1784247030.872732,0.002394238,-0.113812193,-2.995579004,-0.001210100,0.000727877,0.001421692,1.103392363,0.047442079,9.726852417
1784247030.874737,0.002389099,-0.113806359,-2.995590448,-0.001832797,0.000951524,0.000573459,1.108635187,0.033692971,9.697628021
1784247030.876781,0.002388021,-0.113808312,-2.995592356,-0.001906974,0.001004797,-0.000441617,1.129382491,0.044404957,9.729099274
1784247030.878746,0.002389570,-0.113810338,-2.995593071,-0.001425934,0.000511653,-0.000497234,1.113656402,0.042004269,9.716963768
1784247030.880738,0.002390160,-0.113810249,-2.995592356,-0.000894125,0.000239448,-0.000374511,1.065293431,0.051902004,9.735363007
1784247030.882731,0.002390782,-0.113804258,-2.995586395,-0.000612024,0.000435391,0.000186268,1.059939981,0.053835969,9.725058556
1784247030.884738,0.002393381,-0.113796532,-2.995583773,-0.000256489,0.001097828,0.000706234,1.119048476,0.044022460,9.738502502
1784247030.886741,0.002398477,-0.113794781,-2.995587349,0.000310972,0.001527399,0.000381198,1.095103621,0.029662093,9.721798897
1784247030.888739,0.002398657,-0.113793917,-2.995585442,0.000556623,0.001374277,0.000123497,1.101837158,0.030004740,9.724496841
1784247030.890738,0.002397973,-0.113792546,-2.995580435,0.000425539,0.001154204,0.000566482,1.087744117,0.052141998,9.724177361
1784247030.892745,0.002406415,-0.113788038,-2.995580435,0.000729589,0.001116677,0.000709992,1.073921204,0.059084147,9.717932701
1784247030.894783,0.002408755,-0.113785878,-2.995578289,0.001132986,0.001142704,0.000598502,1.081782937,0.041074932,9.716032028
1784247030.896757,0.002404020,-0.113782890,-2.995575190,0.000647971,0.001096295,0.000804510,1.094628930,0.027841032,9.726717949
1784247030.898751,0.002400096,-0.113780133,-2.995572090,-0.000121053,0.001102303,0.001062457,1.110699415,0.057275187,9.717059135
1784247030.900756,0.002401197,-0.113776289,-2.995577812,-0.000298534,0.001250421,0.000619964,1.115906596,0.042839643,9.721455574
1784247030.902759,0.002407324,-0.113772072,-2.995582104,0.000098405,0.001410079,-0.000260869,1.102338552,0.033252366,9.707930565
1784247030.904761,0.002406555,-0.113771938,-2.995585680,0.000276018,0.001274716,-0.000759711,1.094088912,0.020641239,9.732051849
1784247030.906756,0.002406534,-0.113766648,-2.995585442,0.000116483,0.001285114,-0.000779980,1.092908502,0.034936011,9.740213394
1784247030.908764,0.002410250,-0.113762930,-2.995579004,0.000381095,0.001536586,-0.000142917,1.080443859,0.043173008,9.738459587
1784247030.910763,0.002412268,-0.113764711,-2.995579243,0.000713515,0.001250518,0.000282681,1.099245071,0.040555015,9.757739067
1784247030.912763,0.002413091,-0.113763027,-2.995579243,0.000647185,0.000850001,0.000175973,1.087850690,0.062708639,9.750248909
1784247030.914774,0.002413437,-0.113766916,-2.995579004,0.000488742,0.000415202,0.000133368,1.094646573,-0.005152051,9.766857147
1784247030.916767,0.002416733,-0.113764815,-2.995575905,0.000770976,0.000128947,0.000301703,1.132623196,0.015667191,9.732057571
1784247030.918764,0.002414609,-0.113765508,-2.995574474,0.000816030,0.000137693,0.000497496,1.091764927,0.051140271,9.731798172
1784247030.920778,0.002417355,-0.113767572,-2.995573997,0.000647880,-0.000086652,0.000458006,1.097791195,0.069206178,9.763750076
1784247030.922772,0.002419804,-0.113765173,-2.995580435,0.000618752,-0.000085998,-0.000075150,1.086423159,0.055599842,9.744374275
1784247030.924778,0.002418098,-0.113761060,-2.995582342,0.000276935,0.000332802,-0.000606141,1.092351317,0.028006123,9.770653725
1784247030.926765,0.002413809,-0.113751210,-2.995581150,-0.000221420,0.001105240,-0.000449201,1.057613730,0.047942642,9.738916397
1784247030.928774,0.002407577,-0.113748990,-2.995576859,-0.000840071,0.001541838,0.000133366,1.114188075,0.049137276,9.721045494
1784247030.930779,0.002407824,-0.113748148,-2.995570660,-0.000935512,0.001332317,0.000844214,1.118542790,0.038309637,9.723670959
1784247030.932783,0.002408382,-0.113750249,-2.995573282,-0.000699400,0.000909499,0.000855589,1.119954348,0.043267656,9.716979027
1784247030.934855,0.002408389,-0.113757342,-2.995570421,-0.000568881,0.000063280,0.000644190,1.119858980,0.038867168,9.768957138
1784247030.936782,0.002411737,-0.113755614,-2.995570660,-0.000236970,-0.000358629,0.000636062,1.056263685,0.047928091,9.743398666
1784247030.938808,0.002413243,-0.113757402,-2.995568514,0.000099292,-0.000306577,0.000560087,1.082488537,0.026579235,9.737010002
1784247030.940812,0.002417926,-0.113761440,-2.995559931,0.000574150,-0.000616773,0.001098874,1.069051266,0.066556044,9.747117996
1784247030.942791,0.002417715,-0.113761082,-2.995551348,0.000719926,-0.000861355,0.001942250,1.096486330,0.035201259,9.759494781
1784247030.944791,0.002416939,-0.113755658,-2.995554447,0.000364749,-0.000399824,0.001783243,1.082631707,0.000251894,9.721597672
1784247030.946797,0.002416262,-0.113749914,-2.995556355,0.000202775,0.000371651,0.000965966,1.080315351,0.030811336,9.712825775
1784247030.948800,0.002423858,-0.113751508,-2.995553732,0.000693625,0.000457125,0.000693834,1.096365333,0.023303440,9.731622696
1784247030.950808,0.002425776,-0.113753833,-2.995552778,0.001172496,0.000067109,0.000655727,1.107327104,0.038872715,9.727698326
1784247030.952803,0.002420704,-0.113756552,-2.995548248,0.000651806,-0.000317072,0.000860701,1.114209652,0.052549262,9.745277405
1784247030.954824,0.002421213,-0.113755994,-2.995542288,0.000219483,-0.000400706,0.001390120,1.083055139,0.036015652,9.732139587
1784247030.956804,0.002422221,-0.113751210,-2.995542049,0.000289515,-0.000049698,0.001435718,1.058208466,0.022441883,9.732477188
1784247030.958831,0.002423324,-0.113751106,-2.995543242,0.000323278,0.000173295,0.000963276,1.087703109,0.011390856,9.721226692
1784247030.960828,0.002423490,-0.113755211,-2.995548248,0.000271162,-0.000147195,0.000255258,1.094666004,0.030970387,9.727636337
1784247030.962818,0.002421154,-0.113757111,-2.995548725,0.000013883,-0.000576848,-0.000171708,1.097183824,0.053371500,9.723298073
1784247030.964809,0.002430812,-0.113757938,-2.995545387,0.000532869,-0.000666572,0.000025069,1.115913391,0.043297146,9.720113754
1784247030.966803,0.002438753,-0.113754839,-2.995544195,0.001566047,-0.000343127,0.000189677,1.071434379,0.037334502,9.693581581
1784247030.968812,0.002436034,-0.113749690,-2.995542288,0.001473266,0.000297598,0.000310507,1.090783954,0.043603204,9.722332954
1784247030.970810,0.002436033,-0.113749616,-2.995541096,0.000915217,0.000571215,0.000468881,1.086756468,0.046577640,9.752386093
1784247030.972810,0.002445741,-0.113750771,-2.995540380,0.001263186,0.000277535,0.000402190,1.102581978,0.057057533,9.762331963
1784247030.974820,0.002450262,-0.113750972,-2.995543480,0.001788454,0.000044654,0.000028999,1.102275848,0.067509465,9.742223740
1784247030.976817,0.002456532,-0.113748185,-2.995539665,0.001938825,0.000182056,-0.000006851,1.103643894,0.031290654,9.729438782
1784247030.978829,0.002457107,-0.113750033,-2.995534420,0.001846894,0.000172677,0.000561812,1.097585559,0.049346823,9.721480370
1784247030.980880,0.002457310,-0.113751724,-2.995541811,0.001380796,-0.000113412,0.000251815,1.092382431,0.065030858,9.730542183
1784247030.982829,0.002456568,-0.113748156,-2.995545626,0.000756726,-0.000009117,-0.000568434,1.090526223,0.061327077,9.750691414
1784247030.984831,0.002454209,-0.113740884,-2.995546579,0.000181041,0.000677262,-0.000693422,1.091313601,0.015967188,9.764299393
1784247030.986818,0.002456667,-0.113738202,-2.995546579,0.000194264,0.001099291,-0.000567599,1.080359221,0.035614904,9.730340958
1784247030.988830,0.002454044,-0.113738626,-2.995545864,0.000197982,0.000884158,-0.000370549,1.110501885,0.042343024,9.738035202
1784247030.990839,0.002456359,-0.113738284,-2.995548248,0.000109710,0.000639417,-0.000390101,1.097122550,0.048428033,9.725508690
1784247030.992830,0.002456817,-0.113742292,-2.995551348,0.000187572,0.000173267,-0.000676500,1.124137282,0.058134992,9.761014938
1784247030.994842,0.002454145,-0.113744840,-2.995550394,-0.000065851,-0.000362626,-0.000615947,1.103713751,0.038731109,9.754145622
1784247030.996854,0.002454472,-0.113744035,-2.995548725,-0.000229660,-0.000431250,-0.000245077,1.053434849,0.035537336,9.726728439
1784247030.998854,0.002457174,-0.113747440,-2.995548010,0.000012138,-0.000538800,-0.000028805,1.086121321,0.030927001,9.749147415
1784247031.000844,0.002460371,-0.113751106,-2.995546818,0.000420762,-0.000871202,0.000055494,1.102850676,0.040229574,9.733979225
1784247031.002840,0.002462976,-0.113747604,-2.995546341,0.000668729,-0.000698725,0.000101085,1.094787478,0.042871382,9.755060196
1784247031.004838,0.002466315,-0.113747217,-2.995552778,0.000799316,-0.000299340,-0.000387760,1.092705488,0.018742638,9.749523163
1784247031.006847,0.002466823,-0.113755144,-2.995552778,0.000813985,-0.000763380,-0.000766265,1.099629641,0.034370020,9.744698524
1784247031.008839,0.002469469,-0.113763526,-2.995556831,0.000799681,-0.001696349,-0.000846785,1.113651156,0.042773005,9.734903336
1784247031.010839,0.002466589,-0.113766328,-2.995556593,0.000540114,-0.001995671,-0.000849565,1.126618505,0.039819937,9.748793602
1784247031.012841,0.002465784,-0.113768302,-2.995550156,0.000156067,-0.001694072,-0.000126933,1.125023603,0.053984102,9.713016510
1784247031.014844,0.002461361,-0.113769747,-2.995550156,-0.000231165,-0.001383095,0.000381783,1.117142797,0.072653949,9.748099327
1784247031.016842,0.002461991,-0.113771394,-2.995551586,-0.000638945,-0.001187984,0.000228500,1.130285501,0.082838021,9.741452217
1784247031.018850,0.002458089,-0.113772608,-2.995549202,-0.000881966,-0.001029427,0.000279479,1.111042500,0.088352658,9.756712914
1784247031.020859,0.002454554,-0.113778599,-2.995548010,-0.001117185,-0.001238384,0.000495234,1.116291165,0.076674834,9.751261711
1784247031.022853,0.002460574,-0.113778986,-2.995552540,-0.000942645,-0.001283242,0.000148106,1.116381764,0.045473963,9.728198051
1784247031.024846,0.002470257,-0.113776006,-2.995558023,0.000024128,-0.000709569,-0.000659666,1.084895849,0.039191969,9.723195076
1784247031.026855,0.002472401,-0.113775760,-2.995558023,0.000744389,-0.000419703,-0.000941927,1.090778589,0.044371936,9.740270615
1784247031.028852,0.002467912,-0.113775864,-2.995559931,0.000343794,-0.000416876,-0.000771095,1.070066690,0.037586674,9.723619461
1784247031.030879,0.002467289,-0.113778986,-2.995558023,-0.000094144,-0.000522010,-0.000521111,1.086443424,0.057785593,9.752010345
1784247031.032866,0.002474169,-0.113777623,-2.995556116,0.000273447,-0.000606998,-0.000175491,1.097156167,0.053152099,9.754231453
1784247031.034906,0.002478325,-0.113775425,-2.995558262,0.000835096,-0.000310325,-0.000210074,1.130918860,0.023699440,9.739727974
1784247031.036897,0.002479626,-0.113775566,-2.995561123,0.000956846,0.000018663,-0.000523924,1.146767735,0.034363747,9.723672867
1784247031.038923,0.002476081,-0.113777816,-2.995561838,0.000535658,-0.000043047,-0.000610636,1.092212319,0.051935058,9.745251656
1784247031.040896,0.002472711,-0.113774300,-2.995556593,-0.000042192,0.000055373,-0.000095778,1.129605174,0.062777720,9.728321075
1784247031.042879,0.002475785,-0.113771655,-2.995551348,-0.000134150,0.000535180,0.000661175,1.122414470,0.062374052,9.735036850
1784247031.044868,0.002476244,-0.113768905,-2.995553732,-0.000001549,0.000831886,0.000671076,1.124126911,0.054812033,9.724229813
1784247031.046890,0.002479228,-0.113766238,-2.995554447,0.000113542,0.000996381,0.000262838,1.115572691,0.053072192,9.732280731
1784247031.048884,0.002479343,-0.113763452,-2.995558500,0.000161487,0.001117266,-0.000142921,1.110361099,0.067879379,9.738646507
1784247031.050877,0.002479343,-0.113763452,-2.995558500,0.000355619,0.000914630,-0.000277412,1.110773563,0.064750619,9.736833572
1784247031.052874,0.002480600,-0.113769673,-2.995577812,0.001180506,0.000486779,0.000002856,1.116198897,0.029846201,9.720924377
1784247031.054882,0.002480600,-0.113769673,-2.995577812,0.001860682,0.000698213,-0.000205491,1.113593459,0.037454702,9.726799011
1784247031.056879,0.002481108,-0.113769710,-2.995577812,0.001670188,0.000949744,-0.000375869,1.122507095,0.033215854,9.739782333
1784247031.058880,0.002481108,-0.113769710,-2.995577812,0.001346654,0.000897331,0.000094116,1.129325032,0.042330127,9.768987656
1784247031.060885,0.002481108,-0.113769710,-2.995577812,0.001052395,0.000393684,0.000126928,1.120017886,0.051063873,9.754688263
1784247031.062895,0.002482761,-0.113769747,-2.995577812,0.000669927,-0.000597725,-0.000448625,1.123933673,0.041128363,9.758664131
1784247031.064886,0.002482761,-0.113769747,-2.995577812,0.000703654,-0.000838009,-0.000756417,1.084750295,0.027910279,9.734780312
1784247031.066888,0.002482102,-0.113768451,-2.995577812,0.001256571,-0.000500869,-0.000309030,1.108186245,0.034912240,9.716016769
1784247031.068889,0.002482102,-0.113768451,-2.995577812,0.001877681,-0.000131625,0.000017922,1.097392678,0.072446220,9.749872208
1784247031.070895,0.002482102,-0.113768451,-2.995577812,0.001659555,-0.000157184,-0.000432572,1.109555840,0.075912841,9.744526863
1784247031.072890,0.002485287,-0.113767818,-2.995577812,0.001101825,-0.000279276,-0.000798066,1.102469563,0.083223082,9.737393379
1784247031.074902,0.002485287,-0.113767818,-2.995577812,0.000646569,0.000205848,-0.000664064,1.094130516,0.062612243,9.752496719
1784247031.076919,0.002486755,-0.113766573,-2.995577812,0.000046783,0.000867470,-0.000456843,1.120595455,0.062206276,9.761933327
1784247031.078927,0.002486755,-0.113766573,-2.995577812,-0.000265115,0.001204224,-0.000324547,1.113183856,0.041822419,9.743414879
1784247031.080902,0.002486755,-0.113766573,-2.995577812,-0.000805180,0.000948831,-0.000213406,1.106940985,0.045048174,9.742083549
1784247031.082898,0.002487526,-0.113766968,-2.995577812,-0.001489567,0.000516585,-0.000567518,1.107936382,0.051483009,9.717469215
1784247031.084899,0.002487526,-0.113766968,-2.995577812,-0.000828872,0.000387300,-0.000840661,1.114817262,0.064336769,9.724729538
1784247031.086920,0.002489891,-0.113767207,-2.995577812,0.000390763,0.000155178,-0.000389373,1.110883832,0.072105609,9.710428238
1784247031.088907,0.002489891,-0.113767207,-2.995577812,0.000821724,-0.000443181,0.000297303,1.132228851,0.057745703,9.738154411
1784247031.090909,0.002489891,-0.113767207,-2.995577812,0.000611634,-0.000802760,0.001013754,1.098305941,0.072558746,9.732389450
1784247031.092904,0.002492135,-0.113767341,-2.995577812,0.000319994,-0.000505240,0.001538578,1.098497510,0.051476557,9.735391617
1784247031.094944,0.002492135,-0.113767341,-2.995577812,0.000381264,-0.000162468,0.001434644,1.097602963,0.049890168,9.708033562
1784247031.096931,0.002494197,-0.113766856,-2.995577812,0.000482502,0.000180166,0.000781880,1.102504492,0.046313189,9.698150635
1784247031.098916,0.002494197,-0.113766856,-2.995577812,0.000504158,0.000663327,0.000470032,1.114130974,0.079791971,9.694790840
1784247031.100922,0.002494197,-0.113766856,-2.995577812,0.000210827,0.000996654,0.000892125,1.108477116,0.060309287,9.735458374
1784247031.102924,0.002495925,-0.113767281,-2.995577812,-0.000403616,0.000973591,0.001233600,1.098180890,0.025876001,9.744643211
1784247031.104919,0.002495925,-0.113767281,-2.995577812,-0.000691245,0.000633072,0.001155879,1.110446095,0.036634002,9.721858978
1784247031.106928,0.002497120,-0.113767341,-2.995577812,-0.000648014,0.000276390,0.000756073,1.127304435,0.058708046,9.737708092
1784247031.108937,0.002497120,-0.113767341,-2.995577812,-0.000994712,0.000094396,0.000175822,1.100715756,0.050437417,9.751526833
1784247031.110929,0.002497120,-0.113767341,-2.995577812,-0.001593494,-0.000198878,0.000148809,1.080870867,0.078965373,9.744966507
1784247031.112954,0.002499519,-0.113766044,-2.995577812,-0.001889420,-0.000827687,0.000072885,1.106835246,0.073291361,9.740023613
1784247031.114932,0.002499519,-0.113766044,-2.995577812,-0.001887027,-0.001233013,-0.000162303,1.107900381,0.051603466,9.763647079
1784247031.116935,0.002500308,-0.113765411,-2.995577812,-0.001138207,-0.000943920,-0.000076466,1.090260625,0.038157105,9.733057976
1784247031.118955,0.002500308,-0.113765411,-2.995577812,-0.000134716,-0.000180392,0.000007925,1.112258315,0.039991193,9.750575066
1784247031.120947,0.002500308,-0.113765411,-2.995577812,-0.000272314,0.000313088,0.000085725,1.101543069,0.041362140,9.703049660
1784247031.122939,0.002501596,-0.113765597,-2.995577812,-0.000899732,0.000338387,-0.000203283,1.091244698,0.045312986,9.733102798
1784247031.124934,0.002501596,-0.113765597,-2.995577812,-0.000922724,0.000457585,0.000002621,1.103356600,0.081508763,9.724829674
1784247031.126949,0.002504240,-0.113765523,-2.995577812,-0.000936355,0.000832374,0.000154229,1.128294706,0.066724874,9.742691994
1784247031.128936,0.002504240,-0.113765523,-2.995577812,-0.000764512,0.001053432,-0.000385192,1.121306300,0.044511620,9.728645325
1784247031.130940,0.002504240,-0.113765523,-2.995577812,-0.000118774,0.000901764,-0.000598552,1.129552007,0.057901032,9.721116066
1784247031.132944,0.002504889,-0.113765880,-2.995577812,0.000168439,0.000664600,-0.000321735,1.130978584,0.065003462,9.727889061
1784247031.134957,0.002504889,-0.113765880,-2.995577812,0.000086948,0.000473754,0.000402862,1.106205821,0.058901951,9.748448372
1784247031.136946,0.002507086,-0.113765806,-2.995577812,-0.000298431,0.000319245,0.001092586,1.108167529,0.036386114,9.760859489
1784247031.138949,0.002507086,-0.113765806,-2.995577812,-0.001009502,0.000412972,0.000999799,1.097680330,0.057794482,9.730499268
1784247031.140944,0.002507086,-0.113765806,-2.995577812,-0.001507889,0.000502469,0.000372747,1.125172377,0.029321415,9.715549469
1784247031.142948,0.002507369,-0.113767244,-2.995577812,-0.001605574,0.000059942,0.000057954,1.102536917,0.051837798,9.740329742
1784247031.144946,0.002507369,-0.113767244,-2.995577812,-0.001537170,-0.000731918,-0.000173764,1.127774596,0.060897585,9.743999481
1784247031.146952,0.002509116,-0.113767952,-2.995577812,-0.001283525,-0.000948337,-0.000773479,1.095384955,0.090546042,9.728466988
1784247031.148952,0.002509116,-0.113767952,-2.995577812,-0.001270789,-0.000311733,-0.001278421,1.098182559,0.064695388,9.767308235
1784247031.150964,0.002509116,-0.113767952,-2.995577812,-0.001551758,0.000205169,-0.000996565,1.101763606,0.061745781,9.734564781
1784247031.152954,0.002510786,-0.113767698,-2.995577812,-0.001291753,0.000177967,-0.000341453,1.108396888,0.054406311,9.746627808
1784247031.154963,0.002510786,-0.113767698,-2.995577812,-0.000742510,0.000027280,0.000298099,1.101099372,0.041812673,9.703500748
1784247031.156957,0.002511210,-0.113767594,-2.995577812,-0.000212697,0.000221652,0.000838113,1.109154820,0.005167390,9.738691330
1784247031.158963,0.002511210,-0.113767594,-2.995577812,0.000482392,0.000469461,0.000979866,1.090479016,0.019311557,9.736523628
1784247031.160961,0.002511210,-0.113767594,-2.995577812,0.000372916,0.000426181,0.000503247,1.087875605,0.063715853,9.734562874
1784247031.162965,0.002512914,-0.113767058,-2.995577812,-0.000902497,0.000156330,0.000026446,1.096007824,0.069724843,9.757026672
1784247031.164962,0.002512914,-0.113767058,-2.995577812,-0.001866983,0.000189691,0.000402398,1.127392411,0.066291586,9.742239952
1784247031.166973,0.002515367,-0.113767318,-2.995577812,-0.001517512,0.000474076,0.000444723,1.104958296,0.063345119,9.692882538
1784247031.168970,0.002515367,-0.113767318,-2.995577812,-0.000799336,-0.000022841,0.000003022,1.113500118,0.066606537,9.722950935
1784247031.170976,0.002515367,-0.113767318,-2.995577812,-0.000534919,-0.000799020,0.000165928,1.110505223,0.043178536,9.746559143
1784247031.172971,0.002516562,-0.113767587,-2.995577812,-0.000300396,-0.000772706,0.000576796,1.076378226,0.042198468,9.756832123
1784247031.174978,0.002516562,-0.113767587,-2.995577812,-0.000048652,-0.000067452,0.000392661,1.115645647,0.058511321,9.723347664
1784247031.176974,0.002517361,-0.113767445,-2.995577812,-0.000191442,0.000290389,-0.000158058,1.110900521,0.001109565,9.739117622
1784247031.178986,0.002517361,-0.113767445,-2.995577812,-0.000678574,0.000283887,-0.000344727,1.118214011,0.011803621,9.734259605
1784247031.180983,0.002517361,-0.113767445,-2.995577812,-0.001085386,0.000425585,-0.000786861,1.105147839,0.006277223,9.715829849
1784247031.182998,0.002516158,-0.113767467,-2.995577812,-0.001108927,0.000582523,-0.001541461,1.094323277,0.041943055,9.760434151
1784247031.185063,0.002516158,-0.113767467,-2.995577812,-0.000799070,0.000959882,-0.001529588,1.108391404,0.052338209,9.722405434
1784247031.187000,0.002516954,-0.113767587,-2.995577812,-0.000937576,0.001161955,-0.000745696,1.098515391,0.052833159,9.733607292
1784247031.188995,0.002516954,-0.113767587,-2.995577812,-0.001385578,0.000953696,-0.000303533,1.084717512,0.061595783,9.723339081
1784247031.191004,0.002516954,-0.113767587,-2.995577812,-0.001165619,0.001086182,-0.000321955,1.112603784,0.066627577,9.721604347
1784247031.192993,0.002519083,-0.113766618,-2.995577812,-0.000927802,0.001737844,-0.000007226,1.107918262,0.051339932,9.737642288
1784247031.195009,0.002519083,-0.113766618,-2.995577812,-0.000863464,0.002177638,0.000239734,1.115966320,0.048983913,9.739428520
1784247031.197011,0.002520129,-0.113767147,-2.995577812,-0.000645264,0.001544432,0.000053565,1.095256805,0.044244498,9.750138283
1784247031.199015,0.002520129,-0.113767147,-2.995577812,-0.000383291,0.000613062,0.000077954,1.100557089,0.037837282,9.759516716
1784247031.201014,0.002520129,-0.113767147,-2.995577812,-0.000101249,0.000023139,0.000168567,1.098828793,0.042438447,9.745647430
1784247031.203007,0.002521529,-0.113765366,-2.995577812,-0.000073608,-0.000204601,-0.000107564,1.095206738,0.039390057,9.739794731
1784247031.205010,0.002521529,-0.113765366,-2.995577812,-0.000250652,-0.000329062,-0.000850359,1.091493249,0.027922610,9.720888138
1784247031.207009,0.002521580,-0.113764152,-2.995577812,-0.000272993,-0.000583095,-0.001356115,1.109606624,0.042370424,9.735792160
1784247031.209005,0.002521580,-0.113764152,-2.995577812,0.000005585,-0.000057011,-0.000799480,1.121173143,0.033735115,9.732162476
1784247031.211009,0.002521580,-0.113764152,-2.995577812,-0.000244066,0.000364569,0.000020709,1.124308586,0.032840289,9.726329803
1784247031.213011,0.002521949,-0.113765784,-2.995577574,-0.001006004,0.000306486,-0.000449805,1.100128651,0.038408637,9.742930412
1784247031.215020,0.002521949,-0.113765784,-2.995577574,-0.001467029,0.000482471,-0.001332758,1.102683067,0.025129270,9.715500832
1784247031.217014,0.002521888,-0.113765568,-2.995577812,-0.001480082,0.000653000,-0.000639397,1.091487765,0.028691342,9.738825798
1784247031.219018,0.002521888,-0.113765568,-2.995577812,-0.001648774,0.001120487,-0.000060425,1.080389738,0.038693395,9.738430977
1784247031.221035,0.002521888,-0.113765568,-2.995577812,-0.001827330,0.001212979,-0.000181674,1.105548382,0.041859735,9.751924515
1784247031.223034,0.002522572,-0.113764755,-2.995577812,-0.001093045,0.001069727,0.000271751,1.101428866,0.034381986,9.739768982
1784247031.225030,0.002522572,-0.113764755,-2.995577812,-0.000189045,0.001680583,0.000733000,1.093953371,0.009845662,9.738259315
1784247031.227026,0.002521659,-0.113763936,-2.995577574,0.000109072,0.002149905,0.000671439,1.088971138,0.043079674,9.736226082
1784247031.229032,0.002521659,-0.113763936,-2.995577574,-0.000076522,0.001993274,0.000442656,1.078369379,0.056288015,9.725092888
1784247031.231038,0.002521659,-0.113763936,-2.995577574,-0.000221236,0.001032425,0.000415672,1.075959206,0.044869721,9.759986877
1784247031.233032,0.002522694,-0.113762118,-2.995577574,0.000173584,-0.000178242,0.000610586,1.060516000,0.065775722,9.746208191
1784247031.235068,0.002522694,-0.113762118,-2.995577574,0.000791267,-0.000561885,0.001098864,1.068234682,0.034073673,9.716870308
1784247031.237034,0.002523365,-0.113759354,-2.995577574,0.000867816,-0.000331368,0.001131885,1.092932463,0.037150387,9.743812561
1784247031.239049,0.002523365,-0.113759354,-2.995577574,0.000225638,0.000387384,0.000616346,1.090265393,0.037788641,9.721846581
1784247031.241044,0.002523365,-0.113759354,-2.995577574,-0.000260131,0.000911513,0.000186600,1.084932446,0.041911531,9.718729019
1784247031.243042,0.002524149,-0.113757387,-2.995577812,0.000156860,0.000673273,-0.000164799,1.094932437,0.052526589,9.720152855
1784247031.245041,0.002524149,-0.113757387,-2.995577812,0.000945202,0.000187842,-0.000313446,1.094683290,0.031917188,9.720468521
1784247031.247063,0.002524356,-0.113756530,-2.995577812,0.001084817,-0.000268101,-0.000585461,1.092759848,0.022818804,9.743272781
1784247031.249055,0.002524356,-0.113756530,-2.995577812,0.000587591,-0.000827228,-0.000876096,1.094256878,0.034531213,9.731692314
1784247031.251049,0.002524356,-0.113756530,-2.995577812,-0.000024606,-0.000856303,-0.000688971,1.087436795,0.027021198,9.728948593
1784247031.253047,0.002524287,-0.113756202,-2.995577812,-0.000298168,0.000055508,-0.000366662,1.080396414,0.038340822,9.724978447
1784247031.255053,0.002524287,-0.113756202,-2.995577812,0.000189299,0.000711684,-0.000022506,1.093647003,0.058291011,9.730948448
1784247031.257047,0.002526573,-0.113754742,-2.995577812,0.001223803,0.000497854,0.000315692,1.084628105,0.056836359,9.762762070
1784247031.259056,0.002526573,-0.113754742,-2.995577812,0.002228376,0.000053823,0.000163719,1.105217814,0.049687501,9.722833633
1784247031.261054,0.002526573,-0.113754742,-2.995577812,0.002383801,-0.000065442,0.000053229,1.093159199,0.016751455,9.713644981
1784247031.263058,0.002526080,-0.113753155,-2.995577812,0.001851262,0.000305171,-0.000115997,1.073531270,0.026827769,9.718173981
1784247031.265051,0.002526080,-0.113753155,-2.995577812,0.001644606,0.000556976,-0.000527919,1.099391222,0.015466615,9.757130623
1784247031.267055,0.002525438,-0.113751926,-2.995577812,0.001864559,-0.000004538,-0.000344162,1.075578690,0.011876401,9.737806320
1784247031.269055,0.002525438,-0.113751926,-2.995577812,0.001770055,-0.000467501,0.000222241,1.100912094,0.028176706,9.731209755
1784247031.271060,0.002525438,-0.113751926,-2.995577812,0.001431449,-0.000658195,0.000689403,1.093907118,0.043016437,9.736229897
1784247031.273057,0.002526312,-0.113751084,-2.995577812,0.001219162,-0.001012035,0.000793909,1.090868115,0.051968202,9.743008614
1784247031.275062,0.002526312,-0.113751084,-2.995577812,0.000899528,-0.001571355,0.000434855,1.100033283,0.031981379,9.764858246
1784247031.277061,0.002527104,-0.113749899,-2.995577812,0.000646842,-0.002105590,0.000335017,1.110900998,0.039919417,9.763126373
1784247031.279068,0.002527104,-0.113749899,-2.995577812,0.000341641,-0.001832036,0.001005909,1.094729066,0.036736656,9.735742569
1784247031.281101,0.002527104,-0.113749899,-2.995577812,0.000124615,-0.001286732,0.000828667,1.092617869,0.048752241,9.751060486
1784247031.283131,0.002527572,-0.113749579,-2.995577812,-0.000069879,-0.001047210,0.000066798,1.077547669,0.064597733,9.755182266
1784247031.285116,0.002527572,-0.113749579,-2.995577812,-0.000429517,-0.000837914,0.000089290,1.096398830,0.062780641,9.724702835
1784247031.287111,0.002529592,-0.113749206,-2.995577812,-0.000235866,-0.000348483,0.000126328,1.105301738,0.057239253,9.731849670
1784247031.289124,0.002529592,-0.113749206,-2.995577812,0.000139526,-0.000153799,-0.000280463,1.083454251,0.033592027,9.757231712
1784247031.291118,0.002529592,-0.113749206,-2.995577812,0.000030904,-0.000259069,-0.000705152,1.104107618,0.033835940,9.748734474
1784247031.293124,0.002530279,-0.113748759,-2.995577812,-0.000120048,-0.000176198,-0.000490257,1.103479266,0.016212594,9.707822800
1784247031.295152,0.002530279,-0.113748759,-2.995577812,0.000116067,0.000219547,0.000138058,1.098199248,0.025615640,9.718190193
1784247031.297128,0.002530579,-0.113747902,-2.995577574,0.000329237,0.000922709,0.000381534,1.125540853,0.060599197,9.726958275
1784247031.299102,0.002530579,-0.113747902,-2.995577574,0.000065373,0.001010926,-0.000003731,1.134361148,0.083485425,9.706042290
1784247031.301131,0.002530579,-0.113747902,-2.995577574,-0.000330529,0.000575070,-0.000558280,1.134361148,0.083485425,9.706042290
1784247031.303103,0.002532788,-0.113747358,-2.995577574,-0.000312264,0.000235030,-0.000763331,1.127317786,0.060839742,9.752964973
1784247031.305093,0.002532788,-0.113747358,-2.995577574,0.000007719,-0.000035208,-0.000713777,1.127317786,0.060839742,9.752964973
1784247031.307098,0.002534213,-0.113746956,-2.995577574,-0.000191740,-0.000013964,-0.000261958,1.102958918,0.087185405,9.746385574
1784247031.309102,0.002534213,-0.113746956,-2.995577574,-0.000769607,0.000219620,0.000482906,1.102958918,0.087185405,9.746385574
1784247031.311103,0.002534213,-0.113746956,-2.995577574,-0.000829268,0.000192657,0.000248781,1.109022617,0.030367069,9.723609924
1784247031.313101,0.002534581,-0.113747336,-2.995577812,-0.000605459,-0.000242410,-0.000158341,1.086908340,0.021533763,9.745500565
1784247031.315098,0.002534144,-0.113746434,-2.995577574,-0.000567763,-0.000309886,0.000178079,1.101683378,0.017442748,9.727107048
1784247031.317107,0.002534144,-0.113746434,-2.995577574,-0.000538047,-0.000248303,-0.000027516,1.091564298,0.033752460,9.720028877
1784247031.319111,0.002534144,-0.113746434,-2.995577574,-0.000568792,-0.000180670,-0.000863216,1.094693184,0.032400131,9.715539932
1784247031.321103,0.002534094,-0.113745734,-2.995577574,-0.000482715,-0.000062565,-0.001146526,1.085844636,0.044447903,9.738472939
1784247031.323102,0.002534094,-0.113745734,-2.995577574,0.000132064,-0.000651439,-0.000868399,1.087570429,0.075797476,9.737331390
1784247031.325107,0.002536686,-0.113744624,-2.995577574,0.000596486,-0.001154483,-0.000359291,1.090013742,0.055966828,9.749311447
1784247031.327109,0.002536686,-0.113744624,-2.995577574,0.000506539,-0.000906900,0.000429520,1.090015888,0.055982731,9.747069359
1784247031.329112,0.002536686,-0.113744624,-2.995577574,0.000356119,-0.000256537,0.000826127,1.115355134,0.035144202,9.733510971
1784247031.331110,0.002537554,-0.113744028,-2.995577574,0.000643594,0.000071185,0.000753832,1.113670468,0.044545770,9.737604141
1784247031.333111,0.002537554,-0.113744028,-2.995577574,0.001197414,0.000290981,0.000250312,1.091537118,0.067885928,9.708590508
1784247031.335130,0.002540453,-0.113743797,-2.995577574,0.000921395,0.000967718,-0.000981186,1.116837621,0.083925486,9.738756180
1784247031.337164,0.002540453,-0.113743797,-2.995577574,0.000407012,0.000976343,-0.001592686,1.076892614,0.046764538,9.743859291
1784247031.339168,0.002540453,-0.113743797,-2.995577574,0.000527999,0.000232895,-0.000994542,1.110401154,0.033847671,9.735739708
1784247031.341154,0.002541615,-0.113742709,-2.995577574,0.000691011,-0.000127964,-0.000810400,1.128313541,0.028877728,9.709272385
1784247031.343132,0.002541615,-0.113742709,-2.995577574,0.000447984,-0.000439947,-0.000839569,1.104067802,0.029874247,9.738843918
1784247031.345123,0.002542119,-0.113741845,-2.995577574,-0.000237670,-0.000632824,0.000293881,1.117596745,0.034289494,9.723643303
1784247031.347125,0.002542119,-0.113741845,-2.995577574,-0.001113643,-0.000463619,0.001174870,1.122401834,0.025495589,9.754527092
1784247031.349133,0.002542119,-0.113741845,-2.995577574,-0.001369248,-0.000372177,0.000463206,1.105852127,0.030578647,9.762612343
1784247031.351122,0.002542495,-0.113741070,-2.995577574,-0.000775786,-0.000273211,-0.000830042,1.101327896,0.027100150,9.755862236
1784247031.353120,0.002542495,-0.113741070,-2.995577574,-0.000471400,-0.000168275,-0.001032056,1.077909708,0.055801287,9.731366158
1784247031.355132,0.002544897,-0.113739915,-2.995577574,-0.000394298,0.000084741,-0.000366136,1.097474098,0.041982304,9.749228477
1784247031.357127,0.002544897,-0.113739915,-2.995577574,-0.000249593,0.000018331,-0.000243312,1.113745213,0.051620942,9.750651360
1784247031.359128,0.002544897,-0.113739915,-2.995577574,-0.000310704,-0.000353011,-0.000029538,1.110171199,0.088570833,9.727571487
1784247031.361127,0.002549168,-0.113739997,-2.995577574,-0.000355848,-0.000712633,-0.000018718,1.087441921,0.064245872,9.723806381
1784247031.363128,0.002549168,-0.113739997,-2.995577574,-0.000807243,-0.001361989,-0.000681575,1.093839884,0.037218373,9.732605934
1784247031.365136,0.002548704,-0.113739997,-2.995577574,-0.001224116,-0.001530537,-0.000765764,1.095316768,0.047148481,9.719669342
1784247031.367135,0.002548704,-0.113739997,-2.995577574,-0.001144004,-0.001209363,-0.000517130,1.111876607,0.044171680,9.730426788
1784247031.369138,0.002548704,-0.113739997,-2.995577574,-0.000738993,-0.000708586,-0.000424225,1.105752707,0.096462697,9.759897232
1784247031.371136,0.002551969,-0.113739572,-2.995577574,-0.000153962,-0.000327574,-0.000572615,1.102134466,0.093446098,9.749563217
1784247031.373143,0.002551969,-0.113739572,-2.995577574,0.000213504,-0.000393355,-0.000357790,1.105276227,0.054202091,9.717930794
1784247031.375146,0.002553175,-0.113738544,-2.995577574,-0.000009958,-0.000531177,0.000645862,1.092740655,0.056205783,9.710758209
1784247031.377142,0.002553175,-0.113738544,-2.995577574,0.000082117,-0.000472334,0.001378304,1.096586347,0.042070117,9.738468170
1784247031.379144,0.002553175,-0.113738544,-2.995577574,0.000930052,-0.000271578,0.001209980,1.125558615,0.062359247,9.731451988
1784247031.381141,0.002554677,-0.113738768,-2.995577574,0.001114229,-0.000102212,0.001014591,1.131329179,0.056117982,9.716624260
1784247031.383157,0.002554677,-0.113738768,-2.995577574,0.000650869,0.000060290,0.001413075,1.101451635,0.073366717,9.739122391
1784247031.385159,0.002557067,-0.113738649,-2.995577574,0.000509070,-0.000076424,0.001864722,1.130713701,0.043053370,9.727747917
1784247031.387152,0.002557067,-0.113738649,-2.995577574,0.000315504,-0.000174713,0.002139451,1.104188800,0.039338659,9.730836868
1784247031.389178,0.002557067,-0.113738649,-2.995577574,0.000033480,-0.000043040,0.001726734,1.096029639,0.071113229,9.750758171
1784247031.391166,0.002559299,-0.113737829,-2.995577574,-0.000061132,0.000180228,0.001011769,1.111739874,0.070956528,9.744497299
1784247031.393157,0.002559299,-0.113737829,-2.995577574,-0.000075257,0.000448731,0.000744326,1.115534782,0.050339907,9.738538742
1784247031.395227,0.002560635,-0.113738038,-2.995577574,0.000403266,0.000763286,0.000839765,1.119263053,0.062331632,9.746689796
1784247031.397182,0.002560635,-0.113738038,-2.995577574,0.000699014,0.001101554,0.000819557,1.126988053,0.032704048,9.740679741
1784247031.399166,0.002560635,-0.113738038,-2.995577574,0.000458430,0.000940022,0.000621319,1.109012127,0.032311175,9.765316963
1784247031.401160,0.002561573,-0.113736331,-2.995577574,0.000517073,0.000676940,0.000295949,1.097820759,0.032661580,9.736167908
1784247031.403163,0.002561573,-0.113736331,-2.995577574,0.000905294,0.000661664,0.000042400,1.078917384,0.064361461,9.722902298
1784247031.405166,0.002563794,-0.113735065,-2.995577574,0.000676905,0.000223293,-0.000019138,1.135383129,0.056593698,9.705422401
1784247031.407166,0.002563794,-0.113735065,-2.995577574,-0.000086611,-0.000125947,-0.000010928,1.094606757,0.062419277,9.715731621
1784247031.409166,0.002563794,-0.113735065,-2.995577574,-0.000443933,-0.000294948,0.000392985,1.118989110,0.075874776,9.732879639
1784247031.411171,0.002565909,-0.113734968,-2.995577574,-0.000345812,-0.000745027,0.000541565,1.118440628,0.069014847,9.753457069
1784247031.413170,0.002565909,-0.113734968,-2.995577574,-0.000323932,-0.000780510,0.000019540,1.121051550,0.062664382,9.759696960
1784247031.415241,0.002567817,-0.113735221,-2.995577574,-0.000339669,-0.000322030,-0.000033168,1.129082322,0.055714663,9.714376450
1784247031.417187,0.002567817,-0.113735221,-2.995577574,0.000065426,0.000184369,0.000435507,1.105877161,0.067152232,9.722948074
1784247031.419189,0.002567817,-0.113735221,-2.995577574,0.000232010,0.000252106,0.000215444,1.108960271,0.063817292,9.745345116
1784247031.421227,0.002569871,-0.113735132,-2.995577574,-0.000317128,0.000094684,-0.000272020,1.099290490,0.042941075,9.737132072
1784247031.423196,0.002569871,-0.113735132,-2.995577574,-0.000644528,0.000067557,-0.000355752,1.114624023,0.049843028,9.747053146
1784247031.425192,0.002571233,-0.113735303,-2.995577574,-0.000088171,-0.000084889,-0.000723107,1.115256071,0.066278294,9.765989304
1784247031.427198,0.002571233,-0.113735303,-2.995577574,0.000932563,-0.000165696,-0.001133989,1.121212721,0.036883567,9.730389595
1784247031.429202,0.002571233,-0.113735303,-2.995577574,0.001715347,0.000132785,-0.001070223,1.110045195,0.041475121,9.734890938
1784247031.431201,0.002572053,-0.113735512,-2.995577574,0.001704501,0.000174950,-0.000772945,1.094428301,0.047636554,9.715637207
1784247031.433194,0.002572053,-0.113735512,-2.995577574,0.001696101,0.000186898,-0.000430123,1.109851718,0.061327878,9.715740204
1784247031.435203,0.002573560,-0.113735832,-2.995577574,0.002093016,0.000519780,-0.000918059,1.107457042,0.050030403,9.733597755
1784247031.437206,0.002573560,-0.113735832,-2.995577574,0.001727759,0.000375236,-0.001583593,1.119576693,0.050723407,9.740339279
1784247031.439196,0.002573560,-0.113735832,-2.995577574,0.000534272,0.000003751,-0.001060482,1.119108081,0.048139963,9.726424217
1784247031.441208,0.002575012,-0.113736853,-2.995577574,-0.000458889,0.000039232,-0.000479322,1.101151586,0.049519848,9.753763199
1784247031.443239,0.002575012,-0.113736853,-2.995577574,-0.000781356,0.000244178,-0.000613925,1.099013567,0.020895591,9.750439644
1784247031.445205,0.002575489,-0.113736287,-2.995577574,-0.000781932,0.000319177,-0.000748127,1.096038938,0.071186356,9.740447998
1784247031.447201,0.002575489,-0.113736287,-2.995577574,-0.000963430,0.000497554,-0.000159521,1.114848137,0.067821898,9.738652229
1784247031.449203,0.002575489,-0.113736287,-2.995577574,-0.001385677,0.000611189,0.000503394,1.125860572,0.050658815,9.738103867
1784247031.451201,0.002576582,-0.113737725,-2.995577574,-0.001514822,0.000336047,0.000334745,1.119563222,0.050211847,9.749301910
1784247031.453210,0.002576582,-0.113737725,-2.995577574,-0.001192036,0.000133770,-0.000220705,1.098273158,0.070274413,9.738651276
1784247031.455209,0.002578834,-0.113736913,-2.995577574,-0.000900421,0.000219021,-0.000497597,1.098346829,0.077340044,9.753043175
1784247031.457204,0.002578834,-0.113736913,-2.995577574,-0.001106257,0.000156874,-0.000249371,1.111740351,0.072176404,9.761990547
1784247031.459213,0.002578834,-0.113736913,-2.995577574,-0.001544196,0.000170475,-0.000357500,1.105632424,0.047791347,9.736720085
1784247031.461209,0.002580332,-0.113736555,-2.995577574,-0.001681959,0.000179646,-0.000634556,1.097313762,0.028559374,9.746900558
1784247031.463211,0.002580332,-0.113736555,-2.995577574,-0.001333803,-0.000037377,-0.000367576,1.091980100,0.032675907,9.744680405
1784247031.465210,0.002580657,-0.113734625,-2.995577574,-0.000950349,0.000109000,-0.000153129,1.072133899,0.060787700,9.733633041
1784247031.467216,0.002580657,-0.113734625,-2.995577574,-0.000871092,0.000074684,-0.000142424,1.091761589,0.051924907,9.747494698
1784247031.469217,0.002580657,-0.113734625,-2.995577574,-0.000395277,0.000225944,-0.000259342,1.111689806,0.029728815,9.745575905
1784247031.471214,0.002581284,-0.113734916,-2.995577574,0.000570813,0.000761658,-0.000377265,1.101262093,0.019691488,9.726673126
1784247031.473214,0.002581284,-0.113734916,-2.995577574,0.000747007,0.000834177,-0.000556037,1.102967024,0.049659017,9.730900764
1784247031.475231,0.002582658,-0.113735050,-2.995577574,0.000277077,0.000731686,-0.000724191,1.115059495,0.046488885,9.713856697
1784247031.477224,0.002582658,-0.113735050,-2.995577574,0.000257043,0.000505569,-0.000197156,1.106998801,0.051176541,9.762297630
1784247031.479222,0.002582658,-0.113735050,-2.995577574,0.000423110,0.000408570,0.000566536,1.107773304,0.040874656,9.760438919
1784247031.481220,0.002582929,-0.113734320,-2.995577574,-0.000014354,0.000436582,0.000689297,1.092937589,0.036785096,9.732154846
1784247031.483228,0.002582929,-0.113734320,-2.995577574,-0.000925433,0.000736683,0.000237790,1.111380100,0.041368835,9.747445107
1784247031.485219,0.002583850,-0.113734238,-2.995577574,-0.001349284,0.001402588,-0.000070204,1.084426761,0.073788688,9.710415840
1784247031.487227,0.002583850,-0.113734238,-2.995577574,-0.001088463,0.001141148,0.000099312,1.096066236,0.074239425,9.752124786
1784247031.489231,0.002583850,-0.113734238,-2.995577574,-0.000923512,0.000303103,0.000201102,1.103346944,0.080215774,9.717647552
1784247031.491228,0.002586330,-0.113734186,-2.995577574,-0.001319911,0.000295459,-0.000263761,1.094146013,0.063139714,9.741291046
1784247031.493241,0.002586330,-0.113734186,-2.995577574,-0.001983865,0.000707919,-0.000600676,1.103938103,0.056713142,9.745293617
1784247031.495245,0.002587694,-0.113733545,-2.995577574,-0.001984065,0.000623756,-0.000612816,1.118419170,0.065602861,9.729225159
1784247031.497261,0.002587694,-0.113733545,-2.995577574,-0.001534979,0.000288055,-0.000694682,1.094582438,0.061821863,9.736800194
1784247031.499250,0.002587694,-0.113733545,-2.995577574,-0.001516795,-0.000149830,-0.000972510,1.087485790,0.031866096,9.740635872
1784247031.501235,0.002587695,-0.113732353,-2.995577574,-0.001700968,-0.000445487,-0.001698592,1.101124763,0.044849835,9.717419624
1784247031.503242,0.002587695,-0.113732353,-2.995577574,-0.001302714,0.000141693,-0.001951440,1.104633093,0.039704558,9.741600037
1784247031.505243,0.002587933,-0.113731198,-2.995577574,-0.000539241,0.001062787,-0.001229546,1.103366613,0.044808369,9.719214439
1784247031.507252,0.002587933,-0.113731198,-2.995577574,-0.000332850,0.001266488,-0.000201362,1.076771498,0.036486872,9.740207672
1784247031.509244,0.002587933,-0.113731198,-2.995577574,-0.000151470,0.000893898,0.000328184,1.103339314,0.043782078,9.737588882
1784247031.511258,0.002588566,-0.113731213,-2.995577574,0.000055712,0.000768644,0.000227487,1.112948179,0.021724571,9.734767914
1784247031.513255,0.002588566,-0.113731213,-2.995577574,-0.000391924,0.000468858,-0.000010448,1.091654062,0.042565409,9.740708351
1784247031.515249,0.002589548,-0.113730080,-2.995577574,-0.000397469,-0.000132965,0.000139524,1.083996415,0.041617785,9.761767387
1784247031.517249,0.002589548,-0.113730080,-2.995577574,0.000361589,-0.000114956,0.000794087,1.098629236,0.026273692,9.750922203
1784247031.519257,0.002589548,-0.113730080,-2.995577574,0.000555609,0.000188804,0.001470548,1.117039561,0.026549535,9.741974831
1784247031.521257,0.002589232,-0.113730133,-2.995577574,0.000209092,0.000398568,0.001763933,1.113130212,0.038156051,9.755047798
1784247031.523255,0.002589232,-0.113730133,-2.995577574,-0.000220431,0.000860271,0.001816635,1.106439471,0.039367147,9.722768784
1784247031.525255,0.002589762,-0.113729648,-2.995577574,-0.000368888,0.001374283,0.001946537,1.081819057,0.045411464,9.736232758
1784247031.527267,0.002589762,-0.113729648,-2.995577574,-0.000027109,0.001476109,0.001679330,1.107187271,0.028448783,9.744668007
1784247031.529264,0.002589762,-0.113729648,-2.995577574,0.000161744,0.000975849,0.001336962,1.104896188,0.062045388,9.749813080
1784247031.531267,0.002592436,-0.113729075,-2.995577574,0.000063121,0.000540969,0.001249248,1.095204115,0.039370973,9.742485046
1784247031.533260,0.002592436,-0.113729075,-2.995577574,0.000101051,0.000296304,0.000969305,1.099256396,0.038213819,9.708855629
1784247031.535316,0.002593326,-0.113728382,-2.995577574,-0.000088702,0.000084304,0.000782887,1.110208392,0.052490089,9.697749138
1784247031.537265,0.002593326,-0.113728382,-2.995577574,-0.000459886,0.000077698,0.000430915,1.080461502,0.044122983,9.730843544
1784247031.539302,0.002593326,-0.113728382,-2.995577574,-0.000333628,-0.000004162,0.000301072,1.092091322,0.042064007,9.747430801
1784247031.541271,0.002593936,-0.113727033,-2.995577574,0.000102677,0.000109605,0.000677342,1.085330129,0.038261686,9.727224350
1784247031.543278,0.002593936,-0.113727033,-2.995577574,0.000407144,0.000537158,0.000538158,1.075874805,0.034477949,9.709259033
1784247031.545275,0.002594061,-0.113725863,-2.995577574,0.000777241,0.001153899,0.000294287,1.099879622,0.016179103,9.719027519
1784247031.547273,0.002594061,-0.113725863,-2.995577574,0.000773061,0.001424488,0.000385975,1.130169868,0.035824966,9.737114906
1784247031.549275,0.002594061,-0.113725863,-2.995577574,0.000131373,0.001000959,0.000051157,1.108872056,0.017830528,9.722633362
1784247031.551280,0.002593633,-0.113726236,-2.995577574,-0.000190177,0.000746618,-0.000481050,1.090856910,0.049852401,9.725511551
1784247031.553276,0.002593633,-0.113726236,-2.995577574,0.000301219,0.000839835,-0.000595275,1.106837392,0.036933992,9.749205589
1784247031.555278,0.002594247,-0.113725774,-2.995577574,0.000893337,0.000885448,-0.000389411,1.115495324,0.045571323,9.716092110
1784247031.557277,0.002594247,-0.113725774,-2.995577574,0.000547603,0.000945388,-0.000294682,1.107856512,0.045583203,9.728190422
1784247031.559295,0.002594247,-0.113725774,-2.995577574,-0.000232156,0.000635536,-0.000354843,1.128850222,0.038482286,9.743855476
1784247031.561293,0.002594759,-0.113726676,-2.995577574,-0.000025823,0.000113696,-0.000435194,1.091403723,0.058726385,9.736777306
1784247031.563283,0.002594759,-0.113726676,-2.995577574,0.001103243,-0.000095692,-0.000707844,1.097812057,0.068154819,9.722496986
1784247031.565286,0.002596625,-0.113725960,-2.995577574,0.001692714,0.000039394,-0.000435887,1.097324967,0.027431697,9.716407776
1784247031.567289,0.002596625,-0.113725960,-2.995577574,0.001417844,0.000304955,0.000159183,1.075315714,0.063501999,9.724239349
1784247031.569293,0.002596625,-0.113725960,-2.995577574,0.001090704,0.000393890,0.000248917,1.103337765,0.044579435,9.751493454
1784247031.571290,0.002597885,-0.113725103,-2.995577574,0.000618070,0.000480532,0.000097415,1.111564755,0.054579098,9.716595650
1784247031.573301,0.002597885,-0.113725103,-2.995577574,0.000601550,0.000773663,0.000061056,1.086341739,0.047257103,9.720560074
1784247031.575292,0.002599173,-0.113723695,-2.995577574,0.000821337,0.000836506,0.000720067,1.073930383,0.023997530,9.737433434
1784247031.577291,0.002599173,-0.113723695,-2.995577574,0.000328493,0.000691448,0.001179997,1.104954958,0.063723132,9.702749252
1784247031.579299,0.002599173,-0.113723695,-2.995577574,0.000657369,0.000458119,0.000576739,1.099944830,0.058337703,9.713020325
1784247031.581303,0.002601108,-0.113723777,-2.995577574,0.001864638,-0.000531814,0.000062034,1.080036998,0.047966421,9.758216858
1784247031.583302,0.002601108,-0.113723777,-2.995577574,0.001821207,-0.001315237,-0.000278633,1.084934354,0.042737506,9.728596687
1784247031.585297,0.002602081,-0.113722719,-2.995577574,0.001097125,-0.000726094,-0.000593651,1.093857169,0.038165167,9.725439072
1784247031.587300,0.002602081,-0.113722719,-2.995577574,0.000950059,-0.000071559,-0.000081154,1.095704436,0.044229209,9.751482964
1784247031.589317,0.002602081,-0.113722719,-2.995577574,0.000981318,-0.000137202,0.000451858,1.080061436,0.048160385,9.730870247
1784247031.591313,0.002602918,-0.113720670,-2.995577574,0.000953040,-0.000053827,0.000082626,1.095073581,0.029423619,9.755423546
1784247031.593306,0.002602918,-0.113720670,-2.995577574,0.001029855,0.000618828,-0.000345258,1.091679335,0.042359110,9.706634521
1784247031.595314,0.002603838,-0.113719545,-2.995577574,0.001084988,0.001141760,-0.000151334,1.085293651,0.036352195,9.743801117
1784247031.597337,0.002603838,-0.113719545,-2.995577574,0.000470700,0.001205560,0.000023234,1.101033092,0.039667886,9.753252983
1784247031.599326,0.002603838,-0.113719545,-2.995577574,-0.000463579,0.001348278,-0.000012298,1.104284763,0.048202496,9.744343758
1784247031.601324,0.002604221,-0.113719009,-2.995577574,-0.001003216,0.001108854,-0.000057924,1.097259641,0.060453027,9.735448837
1784247031.603320,0.002604221,-0.113719009,-2.995577574,-0.001023495,0.000335445,0.000068559,1.095926046,0.059758782,9.709438324
1784247031.605324,0.002605871,-0.113718383,-2.995577574,-0.001073041,-0.000049046,0.000396316,1.117418051,0.055880036,9.712124825
1784247031.607326,0.002605871,-0.113718383,-2.995577574,-0.001393940,0.000000348,0.000239327,1.116663694,0.068367682,9.721620560
1784247031.609326,0.002605871,-0.113718383,-2.995577574,-0.001031506,0.000011350,0.000216030,1.098293424,0.070840023,9.722066879
1784247031.611332,0.002607731,-0.113718159,-2.995577574,0.000120860,0.000208553,0.000075160,1.102613211,0.058519062,9.745752335
1784247031.613330,0.002607731,-0.113718159,-2.995577574,0.001093143,0.000786746,-0.000674695,1.118763328,0.057476573,9.737243652
1784247031.615327,0.002609095,-0.113718376,-2.995577574,0.001218935,0.001011596,-0.000464800,1.087934732,0.032266971,9.746467590
1784247031.617327,0.002609095,-0.113718376,-2.995577574,0.000956015,0.000310941,0.000386747,1.080580354,0.053571496,9.725077629
1784247031.619336,0.002609095,-0.113718376,-2.995577574,0.000983039,-0.000162737,0.000502192,1.114391685,0.065740459,9.717117310
1784247031.621334,0.002610964,-0.113718003,-2.995577574,0.000829388,0.000003132,-0.000241520,1.119262695,0.060708303,9.722919464
1784247031.623336,0.002610964,-0.113718003,-2.995577574,0.000386135,-0.000377546,-0.000606109,1.082650661,0.040828146,9.749207497
1784247031.625332,0.002611788,-0.113716856,-2.995577574,0.000418702,-0.000989325,0.000210102,1.102409244,0.041509256,9.743850708
1784247031.627340,0.002611788,-0.113716856,-2.995577574,0.000686036,-0.000680664,0.000646826,1.124218345,0.062424198,9.724727631
1784247031.629336,0.002611788,-0.113716856,-2.995577574,0.000758827,-0.000162742,0.000352653,1.135610819,0.077844635,9.740976334
1784247031.631339,0.002613418,-0.113717772,-2.995577574,0.001185994,-0.000206113,0.000569845,1.118578315,0.079016253,9.732898712
1784247031.633337,0.002613418,-0.113717772,-2.995577574,0.001838284,-0.000440042,0.000835792,1.093515277,0.047930673,9.738951683
1784247031.635349,0.002614395,-0.113716207,-2.995577574,0.001827451,-0.000424780,0.000957587,1.090448618,0.055446353,9.758723259
1784247031.637348,0.002614395,-0.113716207,-2.995577574,0.001265315,0.000220736,0.001301693,1.109274864,0.051405344,9.725987434
1784247031.639348,0.002614395,-0.113716207,-2.995577574,0.000443689,0.000897408,0.000903000,1.118354201,0.061847471,9.753411293
1784247031.641346,0.002616270,-0.113716900,-2.995577574,-0.000535602,0.001146679,-0.000075374,1.106264710,0.063419707,9.743099213
1784247031.643345,0.002616270,-0.113716900,-2.995577574,-0.001073348,0.000945737,-0.000356719,1.112983108,0.062021397,9.738611221
1784247031.645347,0.002619340,-0.113716871,-2.995577574,-0.001216096,0.000471133,-0.000310383,1.104254127,0.045124009,9.736252785
1784247031.647352,0.002619340,-0.113716871,-2.995577574,-0.001158213,-0.000071026,-0.000819020,1.095365047,0.052393641,9.738084793
1784247031.649355,0.002619340,-0.113716871,-2.995577574,-0.001060855,-0.000394138,-0.001261275,1.103062034,0.056893170,9.721532822
1784247031.651355,0.002621363,-0.113715686,-2.995577574,-0.001042222,-0.000308957,-0.000931886,1.099030972,0.059838984,9.755620956
1784247031.653359,0.002621363,-0.113715686,-2.995577574,-0.000612738,-0.000216164,-0.000564734,1.098195434,0.027207170,9.746444702
1784247031.655360,0.002622036,-0.113715231,-2.995577574,-0.000228106,-0.000325789,-0.000875799,1.138428450,0.051746324,9.751572609
1784247031.657358,0.002622036,-0.113715231,-2.995577574,0.000068288,-0.000533147,-0.000886470,1.089690804,0.064258456,9.717981339
1784247031.659364,0.002622036,-0.113715231,-2.995577574,0.000737790,-0.000369979,-0.000097492,1.108972311,0.064722754,9.744005203
1784247031.661363,0.002625392,-0.113714583,-2.995577574,0.001352113,-0.000182362,0.000784734,1.095131516,0.071525000,9.757486343
1784247031.663364,0.002625392,-0.113714583,-2.995577574,0.001130122,-0.000162468,0.001100780,1.108374953,0.089797817,9.747303963
1784247031.665360,0.002629919,-0.113714591,-2.995577574,0.000356765,0.000023934,0.000789448,1.106067061,0.083240688,9.728428841
1784247031.667371,0.002629919,-0.113714591,-2.995577574,0.000443505,-0.000024177,0.000057203,1.106524944,0.084521584,9.736508369
1784247031.669370,0.002629919,-0.113714591,-2.995577574,0.001047126,-0.000245043,-0.000476406,1.106122494,0.050949939,9.732706070
1784247031.671370,0.002631878,-0.113715634,-2.995577574,0.001305282,-0.000370975,-0.000377830,1.108363271,0.050898928,9.735846519
1784247031.673370,0.002631878,-0.113715634,-2.995577574,0.001335591,0.000024190,-0.000177193,1.130102754,0.028810203,9.715550423
1784247031.675373,0.002632211,-0.113717258,-2.995577574,0.001271088,0.000637758,-0.000155717,1.120260954,0.032008830,9.724527359
1784247031.677373,0.002632211,-0.113717258,-2.995577574,0.001090876,0.000334079,-0.000776280,1.090731859,0.039949559,9.732172966
1784247031.679374,0.002632211,-0.113717258,-2.995577574,0.000378433,-0.000115092,-0.001194442,1.102699995,0.066906318,9.763292313
1784247031.681375,0.002634858,-0.113715470,-2.995577574,-0.000661412,0.000027193,-0.000829364,1.134707808,0.038601503,9.716515541
1784247031.683372,0.002634858,-0.113715470,-2.995577574,-0.001057580,0.000108840,-0.000544906,1.121087432,0.063354000,9.725626945
1784247031.685472,0.002637414,-0.113715380,-2.995577574,-0.001078416,-0.000193335,-0.000537840,1.107399821,0.044715285,9.725045204
1784247031.687403,0.002637414,-0.113715380,-2.995577574,-0.000950648,-0.000594334,-0.000641784,1.107558966,0.057725236,9.722439766
1784247031.689395,0.002637414,-0.113715380,-2.995577574,-0.000346758,-0.000425204,-0.000515555,1.115102649,0.052099351,9.743929863
1784247031.691391,0.002639169,-0.113715835,-2.995577574,0.000172742,0.000433233,-0.000112495,1.109920979,0.031578630,9.740655899
1784247031.693389,0.002639169,-0.113715835,-2.995577574,0.000204957,0.000775338,0.000016535,1.116578221,0.025646642,9.743762016
1784247031.695395,0.002639997,-0.113716021,-2.995577574,0.000312607,0.000360225,-0.000308226,1.105419517,0.069111630,9.763309479
1784247031.697405,0.002639997,-0.113716021,-2.995577574,0.000660311,-0.000019958,-0.000075471,1.105631471,0.083348192,9.714083672
1784247031.699397,0.002639997,-0.113716021,-2.995577574,0.000695117,-0.000350993,0.000490581,1.091221571,0.044321679,9.746547699
1784247031.701395,0.002641076,-0.113714091,-2.995577574,0.000505582,-0.000497068,0.000451837,1.088389754,0.068685360,9.727871895
1784247031.703400,0.002641076,-0.113714091,-2.995577574,0.000444808,-0.000206563,0.000137117,1.099662781,0.073437415,9.732395172
1784247031.705396,0.002643994,-0.113713518,-2.995577574,0.000693681,0.000379337,0.000000657,1.135051966,0.066038415,9.701000214
1784247031.707400,0.002643994,-0.113713518,-2.995577574,0.000750268,0.001004721,0.000028519,1.135239840,0.045331065,9.714316368
1784247031.709398,0.002643994,-0.113713518,-2.995577574,0.000194224,0.001360080,-0.000169314,1.108497500,0.026121778,9.754518509
1784247031.711399,0.002644509,-0.113712937,-2.995577574,-0.000175878,0.001423022,-0.000711609,1.116816163,0.045353748,9.744338036
1784247031.713395,0.002644509,-0.113712937,-2.995577574,-0.000121345,0.001374608,-0.000980312,1.091694236,0.044503532,9.720098495
1784247031.715400,0.002645976,-0.113711365,-2.995577574,0.000114198,0.001171916,-0.000635127,1.093004107,0.040553194,9.706175804
1784247031.717403,0.002645976,-0.113711365,-2.995577574,0.000754616,0.000928542,-0.000275141,1.097893357,0.038097523,9.727684975
1784247031.719403,0.002645976,-0.113711365,-2.995577574,0.001366679,0.000734445,-0.000464053,1.108920455,0.060665660,9.747566223
1784247031.721406,0.002646693,-0.113711454,-2.995577574,0.001577290,0.000577475,-0.000584082,1.112532973,0.062827677,9.752066612
1784247031.723403,0.002646693,-0.113711454,-2.995577574,0.001135570,0.000753322,0.000015118,1.107035279,0.053086031,9.745722771
1784247031.725415,0.002647917,-0.113711394,-2.995577574,0.000271055,0.000886391,0.000595209,1.098317742,0.037494369,9.748752594
1784247031.727410,0.002647917,-0.113711394,-2.995577574,-0.000127015,0.000534838,0.000365804,1.119321704,0.029662879,9.741100311
1784247031.729407,0.002647917,-0.113711394,-2.995577574,0.000126243,0.000310093,0.000001152,1.097917318,0.041528594,9.749226570
1784247031.731417,0.002648939,-0.113710724,-2.995577574,0.000528016,0.000197360,-0.000155553,1.090552092,0.062747277,9.739940643
1784247031.733414,0.002648939,-0.113710724,-2.995577574,0.000294864,-0.000005532,-0.000199012,1.108429909,0.021130608,9.763452530
1784247031.735420,0.002648365,-0.113710821,-2.995577574,-0.000361701,0.000100579,0.000311525,1.105165601,0.046033867,9.732673645
1784247031.737414,0.002648365,-0.113710821,-2.995577574,-0.000855502,0.000377145,0.000504013,1.093520045,0.046752132,9.715629578
1784247031.739420,0.002648365,-0.113710821,-2.995577574,-0.000907274,0.000576850,0.000391992,1.113599062,0.075899251,9.739150047
1784247031.741415,0.002650728,-0.113709718,-2.995577574,-0.000636297,0.000827444,0.000239255,1.150024056,0.080119848,9.710071564
1784247031.743427,0.002650728,-0.113709718,-2.995577574,-0.000653634,0.001122965,-0.000304968,1.083081603,0.075435616,9.733289719
1784247031.745422,0.002652419,-0.113707483,-2.995577574,-0.000670010,0.000961193,-0.000847949,1.089982748,0.050858390,9.711618423
1784247031.747423,0.002652419,-0.113707483,-2.995577574,-0.000467632,0.000659271,-0.000955362,1.104898095,0.022037923,9.705171585
1784247031.749442,0.002652419,-0.113707483,-2.995577574,-0.000788577,0.000693706,-0.000599694,1.100397587,0.023204010,9.738349915
1784247031.751431,0.002651959,-0.113707267,-2.995577574,-0.001364418,0.000901254,-0.000141551,1.106736541,0.028438633,9.746908188
1784247031.753431,0.002651959,-0.113707267,-2.995577574,-0.001315345,0.000956074,0.000409031,1.135330915,0.054156747,9.733202934
1784247031.755430,0.002653406,-0.113708705,-2.995577574,-0.000887310,0.000522805,0.000970577,1.113935471,0.066902481,9.743576050
1784247031.757431,0.002653406,-0.113708705,-2.995577574,-0.000427994,0.000387899,0.001001811,1.115592599,0.055661384,9.746195793
1784247031.759435,0.002653406,-0.113708705,-2.995577574,-0.000323175,0.000725519,0.000791954,1.093962789,0.048318829,9.746576309
1784247031.761441,0.002655074,-0.113707855,-2.995577574,-0.000341784,0.000593296,0.000835388,1.082218647,0.042991027,9.760876656
1784247031.763440,0.002655074,-0.113707855,-2.995577574,0.000005100,0.000332643,0.000613961,1.116541862,0.059706971,9.742634773
1784247031.765439,0.002656647,-0.113708034,-2.995577574,-0.000083690,0.000274097,0.000182065,1.088501811,0.043326698,9.765368462
1784247031.767437,0.002656647,-0.113708034,-2.995577574,-0.000401223,0.000269840,-0.000078599,1.109502077,0.036683287,9.779692650
1784247031.769442,0.002656647,-0.113708034,-2.995577574,-0.000850709,0.000195988,-0.000088712,1.083229065,0.051166840,9.743445396
1784247031.771446,0.002658195,-0.113706306,-2.995577574,-0.001541709,-0.000121445,-0.000495266,1.121559143,0.030396510,9.759936333
1784247031.773439,0.002658195,-0.113706306,-2.995577574,-0.001175749,-0.000270630,-0.001024271,1.122912407,0.066809759,9.740446091
1784247031.775442,0.002660157,-0.113706797,-2.995577574,-0.000581843,-0.000045503,-0.000649090,1.108151555,0.071418688,9.748979568
1784247031.777448,0.002660157,-0.113706797,-2.995577574,-0.000852702,0.000322638,-0.000141082,1.093012452,0.040619969,9.696761131
1784247031.779446,0.002660157,-0.113706797,-2.995577574,-0.000852856,0.000356813,-0.000114978,1.096079707,0.073534273,9.725220680
1784247031.781454,0.002661893,-0.113706589,-2.995577574,-0.000439266,0.000196814,-0.000024127,1.082870007,0.057148691,9.721964836
1784247031.783451,0.002661893,-0.113706589,-2.995577574,-0.000301140,0.000063352,0.000150014,1.082238197,0.043146830,9.738908768
1784247031.785450,0.002662026,-0.113705836,-2.995577574,0.000031762,-0.000235918,0.000528843,1.080097198,0.050873585,9.727301598
1784247031.787454,0.002662026,-0.113705836,-2.995577574,0.000314576,-0.000146279,0.000463609,1.121587515,0.066995546,9.716683388
1784247031.789459,0.002662026,-0.113705836,-2.995577574,-0.000236019,0.000056607,-0.000143954,1.108383536,0.051464539,9.719261169
1784247031.791456,0.002663724,-0.113705792,-2.995577574,-0.000949563,-0.000102748,0.000151358,1.103279114,0.037228007,9.714234352
1784247031.793458,0.002663724,-0.113705792,-2.995577574,-0.001069938,-0.000078818,0.000313750,1.129921794,0.051598381,9.724662781
1784247031.795490,0.002664219,-0.113706656,-2.995577574,-0.000754879,0.000314580,0.000055697,1.108444810,0.056811456,9.723331451
1784247031.797511,0.002664219,-0.113706656,-2.995577574,-0.000650575,0.000780958,0.000121236,1.117129564,0.072955638,9.768725395
1784247031.799475,0.002664219,-0.113706656,-2.995577574,-0.000574914,0.001032378,-0.000102289,1.105754018,0.056452043,9.715703964
1784247031.801472,0.002665811,-0.113706857,-2.995577574,-0.000357190,0.001231007,-0.000138418,1.107568264,0.057798363,9.712127686
1784247031.803495,0.002665811,-0.113706857,-2.995577574,-0.000595679,0.001556658,0.000377195,1.101629972,0.014589646,9.750401497
1784247031.805480,0.002665183,-0.113706425,-2.995577574,-0.001114872,0.001582623,0.000588621,1.108124852,0.030375393,9.724057198
1784247031.807477,0.002665183,-0.113706425,-2.995577574,-0.001388366,0.001118304,0.000108303,1.105969429,0.038394302,9.734417915
1784247031.809479,0.002665183,-0.113706425,-2.995577574,-0.001185572,0.001276707,0.000249201,1.126749516,0.049770467,9.735408783
1784247031.811475,0.002666336,-0.113706894,-2.995577574,-0.000782634,0.001832246,0.001510018,1.092149734,0.046578605,9.742527962
1784247031.813478,0.002666336,-0.113706894,-2.995577574,-0.000895545,0.001274026,0.001664322,1.087666154,0.046258081,9.732659340
1784247031.815480,0.002667516,-0.113705546,-2.995577574,-0.001179847,0.000178868,-0.000068710,1.127923727,0.070991196,9.710439682
1784247031.817487,0.002667516,-0.113705546,-2.995577574,-0.001273956,-0.000136065,-0.001021455,1.113539815,0.070974864,9.738670349
1784247031.819481,0.002667516,-0.113705546,-2.995577574,-0.001269143,0.000038957,-0.000287057,1.107041240,0.051106963,9.708946228
1784247031.821491,0.002670149,-0.113705903,-2.995577574,-0.001303096,0.000128540,0.000626762,1.092268348,0.018840594,9.736521721
1784247031.823492,0.002670149,-0.113705903,-2.995577574,-0.001091866,0.000211137,0.000986060,1.082495570,0.029066684,9.765272141
1784247031.825495,0.002669753,-0.113704078,-2.995577574,-0.000247872,0.000394289,0.000527514,1.067090034,0.015518456,9.744994164
1784247031.827488,0.002669753,-0.113704078,-2.995577574,-0.000306037,0.000104539,-0.000062684,1.102550745,0.014762566,9.724400520
1784247031.829499,0.002669753,-0.113704078,-2.995577574,-0.001456991,-0.000546781,-0.000135816,1.097011924,0.038639653,9.716030121
1784247031.831493,0.002669867,-0.113702901,-2.995577574,-0.001675837,-0.000507846,0.000121635,1.120909929,0.048577648,9.724634171
1784247031.833495,0.002669867,-0.113702901,-2.995577574,-0.001158530,0.000198186,0.000151569,1.133485436,0.048915494,9.717474937
1784247031.835547,0.002670860,-0.113704219,-2.995577574,-0.001175542,0.000954191,-0.000385509,1.118885398,0.030577267,9.739312172
1784247031.837515,0.002670860,-0.113704219,-2.995577574,-0.001388606,0.001344993,-0.000759923,1.103331327,0.043718480,9.746556282
1784247031.839508,0.002670860,-0.113704219,-2.995577574,-0.001059730,0.001316600,-0.000726775,1.105139375,0.043800417,9.731763840
1784247031.841503,0.002672044,-0.113703959,-2.995577574,-0.000731441,0.001185637,-0.000486478,1.126769423,0.014769701,9.742805481
1784247031.843504,0.002672044,-0.113703959,-2.995577574,-0.000691529,0.001108940,-0.000076963,1.107607841,0.025790244,9.739720345
1784247031.845502,0.002672010,-0.113702886,-2.995577574,-0.000540337,0.000602878,0.000038532,1.087899446,0.063093364,9.696002960
1784247031.847515,0.002672010,-0.113702886,-2.995577574,-0.000541268,-0.000121249,-0.000421043,1.072112679,0.061835878,9.775334358
1784247031.849513,0.002672010,-0.113702886,-2.995577574,-0.000539240,-0.000344360,-0.000501412,1.100982547,0.034000196,9.731246948
1784247031.851513,0.002672941,-0.113702461,-2.995577574,-0.000339717,-0.000406125,0.000271299,1.105785131,0.023970524,9.746879578
1784247031.853511,0.002672941,-0.113702461,-2.995577574,-0.000351144,0.000020763,0.000475555,1.086358666,0.050227486,9.743890762
1784247031.855511,0.002674441,-0.113701448,-2.995577574,-0.000046828,0.000551892,-0.000601447,1.110010743,0.038771447,9.737114906
1784247031.857520,0.002674441,-0.113701448,-2.995577574,0.000549352,0.000449020,-0.001424269,1.104369521,0.018577261,9.751775742
1784247031.859519,0.002674441,-0.113701448,-2.995577574,0.000384505,0.000391565,-0.000887277,1.103037119,0.017485920,9.718590736
1784247031.861520,0.002673756,-0.113701418,-2.995577574,-0.000278985,0.000370469,0.000008620,1.110474229,0.038476720,9.714696884
1784247031.863526,0.002673756,-0.113701418,-2.995577574,-0.000672385,0.000125455,-0.000206353,1.104586363,0.033662040,9.709281921
1784247031.865526,0.002673348,-0.113701083,-2.995577574,-0.000740179,0.000106819,-0.000397823,1.107752204,0.035845704,9.711539268
1784247031.867522,0.002673348,-0.113701083,-2.995577574,-0.000553089,0.000426922,0.000403621,1.073938847,0.025281001,9.745959282
1784247031.869532,0.002673348,-0.113701083,-2.995577574,-0.000238883,0.000388319,0.000968182,1.093760014,0.066478312,9.713516235
1784247031.871527,0.002674785,-0.113699511,-2.995577574,-0.000213429,-0.000121816,0.001087621,1.098274827,0.032697171,9.730339050
1784247031.873528,0.002674785,-0.113699511,-2.995577574,-0.000375831,-0.000509382,0.001156203,1.096887946,0.030366508,9.745567322
1784247031.875534,0.002674877,-0.113698706,-2.995577574,-0.000384950,-0.000668562,0.001477801,1.092487574,0.037187926,9.739330292
1784247031.877540,0.002674877,-0.113698706,-2.995577574,-0.000138894,-0.000805801,0.001802623,1.101065040,0.041542403,9.741608620
1784247031.879544,0.002674877,-0.113698706,-2.995577574,0.000059952,-0.000832110,0.001732814,1.120449424,0.047274482,9.719695091
1784247031.881537,0.002675863,-0.113698989,-2.995577574,0.000079295,-0.000777262,0.001573861,1.103986859,0.023561453,9.744633675
1784247031.883540,0.002675863,-0.113698989,-2.995577574,0.000168388,-0.000451234,0.001640296,1.083895326,0.031499103,9.735698700
1784247031.885541,0.002676142,-0.113697149,-2.995577574,0.000617896,0.000214772,0.001583381,1.071119189,0.050956778,9.731777191
1784247031.887543,0.002676142,-0.113697149,-2.995577574,0.001103957,0.000267699,0.001305089,1.064688206,0.076103404,9.735517502
1784247031.889544,0.002676142,-0.113697149,-2.995577574,0.000858812,-0.000026501,0.000648255,1.115874171,0.040961955,9.733548164
1784247031.891548,0.002678204,-0.113698348,-2.995577574,0.000154846,-0.000412935,-0.000193071,1.088755250,0.025974486,9.747773170
1784247031.893547,0.002678204,-0.113698348,-2.995577574,0.000143859,-0.001096063,-0.000771305,1.098825216,0.043626536,9.767621040
1784247031.895576,0.002679420,-0.113697335,-2.995577574,0.000394316,-0.001075300,-0.001062881,1.101651669,0.053161383,9.744820595
1784247031.897556,0.002679420,-0.113697335,-2.995577574,0.000363542,-0.000628328,-0.000876084,1.088657737,0.017504554,9.741890907
1784247031.899554,0.002679420,-0.113697335,-2.995577574,0.000338177,-0.000520222,-0.000488496,1.094909906,0.050728381,9.721036911
1784247031.901553,0.002680755,-0.113695838,-2.995577574,0.000355360,-0.000530630,-0.000405152,1.105768561,0.057783213,9.717507362
1784247031.903550,0.002680755,-0.113695838,-2.995577574,0.000404578,-0.000519723,-0.000488689,1.120779395,0.038226832,9.731293678
1784247031.905550,0.002681850,-0.113696247,-2.995577574,0.000242794,-0.000313980,-0.000169670,1.109923959,0.031197442,9.731238365
1784247031.907558,0.002681850,-0.113696247,-2.995577574,0.000370528,-0.000763487,0.000511079,1.110446215,0.001477427,9.751223564
1784247031.909561,0.002681850,-0.113696247,-2.995577574,0.000801479,-0.001651459,0.000823892,1.105418444,0.030298604,9.739746094
1784247031.911561,0.002682186,-0.113695495,-2.995577574,0.000997271,-0.001540544,0.000965549,1.101465464,0.038318254,9.753243446
1784247031.913566,0.002682186,-0.113695495,-2.995577574,0.001161363,-0.001171323,0.000962075,1.092104673,0.041358866,9.720526695
1784247031.915565,0.002683053,-0.113694869,-2.995577574,0.001238334,-0.001583314,0.000540491,1.101169825,0.048042797,9.709369659
1784247031.917567,0.002683053,-0.113694869,-2.995577574,0.001097288,-0.001684325,0.000396634,1.096066594,0.073025912,9.733735085
1784247031.919570,0.002683053,-0.113694869,-2.995577574,0.000859302,-0.000822375,0.000603714,1.095007896,0.060011551,9.738581657
1784247031.921566,0.002684474,-0.113694936,-2.995577574,0.000829027,-0.000252428,0.001151613,1.069685459,0.042583585,9.714684486
1784247031.923570,0.002684474,-0.113694936,-2.995577574,0.001433941,-0.000313850,0.001855974,1.091069698,0.065312013,9.693330765
1784247031.925568,0.002686381,-0.113694839,-2.995577574,0.001796885,-0.000931627,0.002022792,1.077721715,0.076912090,9.724327087
1784247031.927568,0.002686381,-0.113694839,-2.995577574,0.001137295,-0.001726712,0.001328596,1.086157680,0.070829913,9.745368004
1784247031.929571,0.002686381,-0.113694839,-2.995577574,0.000377356,-0.001437730,0.000628704,1.105511189,0.037920300,9.738898277
1784247031.931571,0.002687342,-0.113694020,-2.995577574,0.000265405,-0.000407108,0.000629562,1.113880873,0.025639812,9.749588013
1784247031.933572,0.002687342,-0.113694020,-2.995577574,0.000539546,-0.000270236,0.000320451,1.115078449,0.049881797,9.740777969
1784247031.935576,0.002688949,-0.113693431,-2.995577574,0.000591612,-0.000544151,-0.000358345,1.085952163,0.052997321,9.733148575
1784247031.937580,0.002688949,-0.113693431,-2.995577574,0.000309484,-0.000201485,-0.000651758,1.076153278,0.060989968,9.760986328
1784247031.939581,0.002688949,-0.113693431,-2.995577574,0.000195327,0.000207159,-0.000539543,1.092170358,0.047550827,9.731775284
1784247031.941583,0.002689314,-0.113692701,-2.995577574,0.000256474,0.000484965,-0.000403521,1.078266740,0.049400084,9.748809814
1784247031.943583,0.002689314,-0.113692701,-2.995577574,-0.000146914,0.001070046,-0.000284958,1.093503714,0.083401658,9.728419304
1784247031.945585,0.002692300,-0.113691986,-2.995577574,-0.000714240,0.001195891,-0.000633938,1.088058114,0.080557115,9.760227203
1784247031.947585,0.002692300,-0.113691986,-2.995577574,-0.000467626,0.000399820,-0.001108686,1.113508463,0.067890011,9.731476784
1784247031.949588,0.002692300,-0.113691986,-2.995577574,-0.000055670,-0.000329596,-0.000967599,1.100991607,0.034883402,9.733045578
1784247031.951593,0.002693125,-0.113692075,-2.995577574,0.000049829,-0.000445441,-0.000772554,1.095581532,0.033938821,9.749623299
1784247031.953590,0.002693125,-0.113692075,-2.995577574,0.000672811,-0.000193626,-0.000645777,1.106462955,0.042795036,9.744759560
1784247031.955592,0.002693946,-0.113691740,-2.995577574,0.001197448,-0.000154828,-0.000572166,1.087024808,0.066122949,9.712610245
1784247031.957597,0.002693946,-0.113691740,-2.995577574,0.001157642,-0.000645318,-0.000305481,1.097501874,0.042201694,9.718295097
1784247031.959632,0.002693946,-0.113691740,-2.995577574,0.001436315,-0.000882614,0.000323198,1.102841139,0.038939748,9.726349831
1784247031.961598,0.002693627,-0.113691330,-2.995577574,0.001701232,-0.000406518,0.000514120,1.106829882,0.072033338,9.727910042
1784247031.963599,0.002693627,-0.113691330,-2.995577574,0.001463700,0.000128599,0.000057861,1.095980883,0.065054812,9.720682144
1784247031.965603,0.002695838,-0.113690346,-2.995577574,0.000868142,-0.000071655,-0.000170167,1.110463619,0.038797490,9.732633591
1784247031.967598,0.002695838,-0.113690346,-2.995577574,0.000046430,-0.000899317,-0.000015766,1.114405870,0.068688586,9.743587494
1784247031.969604,0.002695838,-0.113690346,-2.995577574,-0.000618517,-0.000996238,-0.000117194,1.105511785,0.073893301,9.720748901
1784247031.971602,0.002697994,-0.113690443,-2.995577574,-0.000443682,-0.000404994,-0.000673747,1.101483822,0.078078076,9.769639015
1784247031.973609,0.002697994,-0.113690443,-2.995577574,0.000332484,-0.000249048,-0.001440727,1.084088802,0.048832860,9.755086899
1784247031.975606,0.002698081,-0.113689348,-2.995577574,0.000805371,-0.000332437,-0.002000708,1.119481325,0.003059269,9.701477051
1784247031.977611,0.002698081,-0.113689348,-2.995577574,0.000824348,-0.000319891,-0.002047721,1.116572738,0.023981981,9.725818634
1784247031.979611,0.002698081,-0.113689348,-2.995577574,0.000510793,-0.000417209,-0.001758150,1.118890285,0.029805344,9.721822739
1784247031.981612,0.002698356,-0.113689557,-2.995577574,0.000082568,-0.000575836,-0.001566059,1.119957328,0.045316689,9.743890762
1784247031.983607,0.002698356,-0.113689557,-2.995577574,-0.000119010,-0.000442698,-0.001081577,1.105256557,0.053236213,9.727787018
1784247031.985617,0.002700105,-0.113688581,-2.995577574,0.000311444,-0.000337585,-0.000131965,1.098651767,0.064041726,9.732334137
1784247031.987618,0.002700105,-0.113688581,-2.995577574,0.000656959,-0.000604669,0.000774576,1.092806339,0.062397756,9.722006798
1784247031.989619,0.002700105,-0.113688581,-2.995577574,0.000708231,-0.000941069,0.001433872,1.111216545,0.062673584,9.713059425
1784247031.991616,0.002701727,-0.113688514,-2.995577574,0.000747534,-0.001076166,0.001589846,1.120061517,0.053434040,9.736323357
1784247031.993620,0.002701727,-0.113688514,-2.995577574,0.000023360,-0.000817286,0.000530898,1.127256155,0.055489648,9.749343872
1784247031.995624,0.002703452,-0.113689803,-2.995577574,-0.000918825,-0.000568677,-0.000493585,1.117899656,0.060592011,9.741746902
1784247031.997645,0.002703452,-0.113689803,-2.995577574,-0.000850958,-0.000706225,-0.000500362,1.102338552,0.035682585,9.744260788
1784247031.999633,0.002703452,-0.113689803,-2.995577574,0.000136790,-0.001066209,-0.000884344,1.124842882,0.042832393,9.769434929
1784247032.001638,0.002704481,-0.113690525,-2.995577574,0.000715317,-0.001037728,-0.001361245,1.134755731,0.044246934,9.741657257
1784247032.003688,0.002704481,-0.113690525,-2.995577574,0.000723776,-0.000602751,-0.001021042,1.126616955,0.038997155,9.738476753
1784247032.005638,0.002704756,-0.113690339,-2.995577574,0.000240476,-0.000406481,-0.000792709,1.123719215,0.059599094,9.744883537
1784247032.007634,0.002704756,-0.113690339,-2.995577574,-0.000259224,-0.000619568,-0.001007677,1.080574751,0.053526990,9.731352806
1784247032.009638,0.002704756,-0.113690339,-2.995577574,-0.000025984,-0.000709574,-0.001108812,1.128774047,0.069390990,9.744951248
1784247032.011647,0.002706177,-0.113690600,-2.995577574,0.000419929,-0.000345806,-0.001233812,1.118229508,0.086700939,9.723980904
1784247032.013640,0.002706177,-0.113690600,-2.995577574,0.000347111,0.000028711,-0.000873600,1.091656923,0.077340804,9.701926231
1784247032.015686,0.002708376,-0.113690183,-2.995577574,-0.000613087,0.000040672,-0.000505773,1.091474175,0.063336357,9.718424797
1784247032.017644,0.002708376,-0.113690183,-2.995577574,-0.000860615,-0.000148054,-0.001122735,1.107919455,0.050132763,9.718356133
1784247032.019651,0.002708376,-0.113690183,-2.995577574,-0.000084684,-0.000370836,-0.001083743,1.093402743,0.037316337,9.719605446
1784247032.021644,0.002709137,-0.113689661,-2.995577574,0.000081717,-0.000374141,0.000136334,1.115956068,0.010097761,9.726177216
1784247032.023645,0.002709137,-0.113689661,-2.995577574,-0.000405364,0.000048862,0.000232271,1.109824181,0.021898367,9.715934753
1784247032.025645,0.002709408,-0.113689430,-2.995577574,-0.000812285,0.000310553,-0.000835445,1.107234716,0.032470901,9.746039391
1784247032.027647,0.002709408,-0.113689430,-2.995577574,-0.001040936,0.000226377,-0.000946772,1.098334789,0.037627917,9.729923248
1784247032.029650,0.002709408,-0.113689430,-2.995577574,-0.001118523,0.000248006,-0.000034419,1.086645961,0.037599344,9.755018234
1784247032.031661,0.002709490,-0.113687761,-2.995577574,-0.001044870,0.000534117,0.000343105,1.125025392,0.054403443,9.717055321
1784247032.033687,0.002709490,-0.113687761,-2.995577574,-0.001299407,0.000621204,0.000400339,1.095594168,0.069197141,9.705913544
1784247032.035693,0.002712128,-0.113686167,-2.995577574,-0.001454503,0.000161899,0.000511377,1.098281980,0.033564474,9.734380722
1784247032.037666,0.002712128,-0.113686167,-2.995577574,-0.001260874,-0.000317895,0.000248960,1.108010292,0.021365300,9.731173515
1784247032.039705,0.002712128,-0.113686167,-2.995577574,-0.001298813,-0.000503386,0.000040371,1.093921304,0.043534346,9.726370811
1784247032.041666,0.002712921,-0.113684990,-2.995577574,-0.001161702,-0.000460077,-0.000146433,1.095256090,0.043428060,9.738924980
1784247032.043662,0.002712921,-0.113684990,-2.995577574,-0.000336241,-0.000167691,-0.000063289,1.108714223,0.043636780,9.748353004
1784247032.045663,0.002715105,-0.113684744,-2.995577574,0.000736740,0.000306781,0.000559092,1.067552328,0.051994082,9.718328476
1784247032.047666,0.002715105,-0.113684744,-2.995577574,0.001334677,0.000419425,0.001173367,1.091492534,0.027916243,9.721783638
1784247032.049664,0.002715105,-0.113684744,-2.995577574,0.001204806,0.000022267,0.001508980,1.123141885,0.048863307,9.743469238
1784247032.051665,0.002715713,-0.113685451,-2.995577574,0.000301782,0.000209860,0.001718740,1.118050098,0.073532008,9.749002457
1784247032.053665,0.002715713,-0.113685451,-2.995577574,-0.000836362,0.001071776,0.001856774,1.104440570,0.058753606,9.709442139
1784247032.055677,0.002718208,-0.113685146,-2.995577574,-0.001234073,0.001426141,0.001775973,1.094941139,0.053810045,9.728678703
1784247032.057674,0.002718208,-0.113685146,-2.995577574,-0.000913933,0.001157843,0.001372162,1.092356086,0.063607477,9.741742134
1784247032.059675,0.002718208,-0.113685146,-2.995577574,-0.000681168,0.000908730,0.001023535,1.107384443,0.082184426,9.748599052
1784247032.061677,0.002720907,-0.113683984,-2.995577574,-0.000401546,0.000957623,0.001168162,1.092339277,0.062663861,9.748459816
1784247032.063673,0.002720907,-0.113683984,-2.995577574,0.000148305,0.001241276,0.001311556,1.129159331,0.061185583,9.700962067
1784247032.065674,0.002722713,-0.113684967,-2.995577574,0.000167382,0.001237366,0.001197617,1.123718262,0.058376029,9.727839470
1784247032.067681,0.002722713,-0.113684967,-2.995577574,-0.000434825,0.001115055,0.001131020,1.138553262,0.060025848,9.721138954
1784247032.069681,0.002722713,-0.113684967,-2.995577574,-0.000584278,0.001005278,0.001010643,1.140925884,0.034368541,9.733530045
1784247032.071681,0.002723197,-0.113685749,-2.995577574,0.000191046,0.000666440,0.000489668,1.134626269,0.033499051,9.741141319
1784247032.073680,0.002723197,-0.113685749,-2.995577574,0.000843488,0.000131554,-0.000035737,1.079586864,0.007939272,9.717161179
1784247032.075689,0.002722496,-0.113683864,-2.995577574,0.000670309,0.000034993,-0.000111005,1.108188629,0.038578227,9.767598152
1784247032.077690,0.002722496,-0.113683864,-2.995577574,-0.000014081,0.000238885,0.000123633,1.119424701,0.036150552,9.710656166
1784247032.079692,0.002722496,-0.113683864,-2.995577574,-0.000769595,0.000047873,0.000346419,1.130591750,0.031959265,9.712881088
1784247032.081683,0.002722724,-0.113684818,-2.995577574,-0.000833332,-0.000257854,0.000400251,1.116092563,0.020496253,9.712794304
1784247032.083686,0.002722724,-0.113684818,-2.995577574,-0.000283623,-0.000488219,0.000638941,1.121250987,0.040832546,9.742071152
1784247032.085688,0.002723700,-0.113685243,-2.995577574,0.000097542,-0.000763934,0.000830245,1.101889372,0.035685152,9.744709015
1784247032.087692,0.002723700,-0.113685243,-2.995577574,0.000609686,-0.001073764,0.000716648,1.103128552,0.026718223,9.743307114
1784247032.089691,0.002723700,-0.113685243,-2.995577574,0.000969117,-0.000868008,0.000744586,1.082351685,0.053364087,9.751080513
1784247032.091700,0.002724720,-0.113684438,-2.995577574,0.000514652,-0.000080309,0.000749303,1.108578682,0.032841198,9.754561424
1784247032.093704,0.002724720,-0.113684438,-2.995577574,-0.000104997,0.000533405,0.000626140,1.104288936,0.047830846,9.733580589
1784247032.095704,0.002725477,-0.113684326,-2.995577574,-0.000291238,0.000507217,0.000931341,1.116142154,0.026561033,9.741974831
1784247032.097725,0.002725477,-0.113684326,-2.995577574,-0.000425613,0.000596452,0.001100127,1.107729435,0.034854393,9.724983215
1784247032.099708,0.002725477,-0.113684326,-2.995577574,-0.000825347,0.001063795,0.000719397,1.121587276,0.031429153,9.740665436
1784247032.101706,0.002726267,-0.113684416,-2.995577574,-0.001280302,0.001263350,0.000224372,1.109407306,0.062582120,9.729197502
1784247032.103705,0.002726267,-0.113684416,-2.995577574,-0.001454650,0.000902610,-0.000066611,1.100241661,0.010626120,9.743202209
1784247032.105704,0.002724853,-0.113683850,-2.995577574,-0.000901383,0.000037731,-0.000154500,1.101359487,0.027754787,9.726724625
1784247032.107708,0.002724853,-0.113683850,-2.995577574,-0.000477070,-0.000356904,-0.000487958,1.089380264,0.038708776,9.720057487
1784247032.109710,0.002724853,-0.113683850,-2.995577574,-0.000321839,0.000184899,-0.000672347,1.100767851,0.054091062,9.741688728
1784247032.111711,0.002726311,-0.113682874,-2.995577574,0.000114461,0.000500463,-0.000210891,1.123209476,0.053854473,9.734534264
1784247032.113719,0.002726311,-0.113682874,-2.995577574,-0.000076584,0.000431509,-0.000147975,1.108138680,0.031700201,9.726756096
1784247032.115712,0.002726632,-0.113682799,-2.995577574,-0.000990024,0.000555160,-0.000680061,1.075423121,0.036891662,9.748725891
1784247032.117714,0.002726632,-0.113682799,-2.995577574,-0.001458363,0.000603573,-0.000489941,1.063784480,0.039690759,9.754114151
1784247032.119724,0.002726632,-0.113682799,-2.995577574,-0.000822610,0.000699973,-0.000295392,1.092664838,0.052771170,9.752880096
1784247032.121720,0.002727732,-0.113681197,-2.995577574,-0.000101527,0.001112281,-0.000620697,1.098207593,0.026492484,9.720884323
1784247032.123720,0.002727732,-0.113681197,-2.995577574,-0.000084007,0.001309127,-0.000696595,1.103909969,0.015253691,9.715887070
1784247032.125720,0.002727607,-0.113680743,-2.995577574,-0.000365365,0.000988273,-0.000845199,1.110036850,0.041408345,9.744304657
1784247032.127721,0.002727607,-0.113680743,-2.995577574,-0.000173321,0.000608363,-0.001296624,1.106662393,0.022989970,9.757184982
1784247032.129723,0.002727607,-0.113680743,-2.995577574,0.000218370,0.000238007,-0.001481189,1.085962892,0.052676536,9.715213776
