time_sec,roll_rad,pitch_rad,yaw_rad,gyro_x,gyro_y,gyro_z,acc_x,acc_y,acc_z
1783618806.217896,0.004255031,0.049897298,0.833244622,-0.001314246,0.000604779,-0.001429699,-0.487118006,0.047137629,9.798851013
1783618806.219871,0.004255031,0.049897298,0.833244622,-0.001816061,0.000650397,-0.001463289,-0.492035955,0.048557468,9.797061920
1783618806.221889,0.004255667,0.049897585,0.833244622,-0.001642132,0.000512941,-0.001018505,-0.488948703,0.044850867,9.808696747
1783618806.223984,0.004255667,0.049897585,0.833244622,-0.000969319,0.000696454,-0.000944762,-0.514457405,0.049763110,9.793910027
1783618806.225864,0.004255667,0.049897585,0.833244622,-0.000531104,0.001099140,-0.000636900,-0.494432330,0.034410439,9.774552345
1783618806.227852,0.004255695,0.049898129,0.833244622,-0.000285092,0.001180945,-0.001009630,-0.488461077,0.008373649,9.770804405
1783618806.229846,0.004255695,0.049898129,0.833244622,-0.000488915,0.000746004,-0.002151011,-0.474358261,0.023092603,9.754772186
1783618806.231839,0.004255066,0.049897406,0.833244622,-0.001036901,0.000376475,-0.002496024,-0.499373555,0.035645861,9.798766136
1783618806.233832,0.004255066,0.049897406,0.833244622,-0.001255900,0.000261350,-0.001771420,-0.485685170,0.051857539,9.762567520
1783618806.235833,0.004255066,0.049897406,0.833244622,-0.001398101,0.000315423,-0.000286012,-0.461290568,0.030251872,9.795628548
1783618806.237864,0.004254559,0.049895890,0.833244622,-0.001700912,0.000321074,0.000777537,-0.497247368,0.061744519,9.779208183
1783618806.239844,0.004254559,0.049895890,0.833244622,-0.001524081,0.000092561,0.000631013,-0.494825870,0.037688639,9.755294800
1783618806.241928,0.004254501,0.049896080,0.833244622,-0.000617220,-0.000133196,0.000019728,-0.508620977,0.048903741,9.778217316
1783618806.243976,0.004254501,0.049896080,0.833244622,0.000024429,-0.000369782,-0.000371864,-0.493581712,0.066756465,9.760862350
1783618806.245857,0.004254501,0.049896080,0.833244622,-0.000014878,-0.000502994,-0.000278633,-0.486341625,0.071198136,9.753275871
1783618806.247864,0.004255509,0.049895946,0.833244622,-0.000239420,-0.000257823,0.000097760,-0.497141242,0.033907942,9.787100792
1783618806.249857,0.004255509,0.049895946,0.833244622,-0.000689363,0.000176302,0.000300720,-0.504452348,0.020396123,9.747104645
1783618806.251830,0.004254431,0.049896579,0.833244622,-0.000709878,0.000419018,0.000159824,-0.491497129,0.016941050,9.768614769
1783618806.253827,0.004254431,0.049896579,0.833244622,-0.000217781,0.000697477,0.000202969,-0.504275739,0.037189718,9.779493332
1783618806.255829,0.004254431,0.049896579,0.833244622,-0.000364150,0.001066772,0.000396991,-0.496858656,0.057618085,9.791734695
1783618806.257823,0.004254906,0.049896814,0.833244622,-0.000975264,0.001415671,0.000140838,-0.491863012,0.063295662,9.803432465
1783618806.259827,0.004254906,0.049896814,0.833244622,-0.001022125,0.001719543,-0.000044857,-0.504655004,0.081412636,9.799053192
1783618806.261822,0.004256256,0.049897198,0.833244622,-0.000679154,0.001790305,0.000234818,-0.502399206,0.047132783,9.827081680
1783618806.263956,0.004256256,0.049897198,0.833244622,-0.000143564,0.001497231,0.000364885,-0.488040417,0.044115141,9.784483910
1783618806.265832,0.004256256,0.049897198,0.833244622,0.000368462,0.000902883,0.000710434,-0.480448395,0.041707650,9.794340134
1783618806.267836,0.004256135,0.049897201,0.833244622,0.000258589,0.000926090,0.000801471,-0.483646572,0.036432784,9.785783768
1783618806.269825,0.004256135,0.049897201,0.833244622,-0.000230516,0.001454705,0.000328438,-0.481442273,0.070442103,9.787796974
1783618806.271830,0.004257494,0.049896557,0.833244622,0.000257600,0.001309599,-0.000162189,-0.466767132,0.059888858,9.796262741
1783618806.273832,0.004257494,0.049896557,0.833244622,0.001493527,0.000760203,-0.000159643,-0.477249324,0.046178814,9.789887428
1783618806.275831,0.004257494,0.049896557,0.833244622,0.001455340,0.000636651,0.000401869,-0.482637197,0.009035849,9.793231010
1783618806.277837,0.004255984,0.049896371,0.833244741,0.000325009,0.000471857,0.000267201,-0.482720166,0.037460282,9.765617371
1783618806.279842,0.004255984,0.049896371,0.833244741,-0.000701777,-0.000199991,-0.000484165,-0.494539887,0.061830848,9.762175560
1783618806.281855,0.004256838,0.049896777,0.833244622,-0.001139463,-0.000457676,-0.001210262,-0.497816831,0.051475778,9.775106430
1783618806.283922,0.004256838,0.049896777,0.833244622,-0.000837919,-0.000094995,-0.001590749,-0.485251784,0.087700784,9.761900902
1783618806.285850,0.004256838,0.049896777,0.833244622,-0.000457746,0.000091833,-0.001272395,-0.477218479,0.085633755,9.786105156
1783618806.287846,0.004258975,0.049896382,0.833244622,-0.000185411,-0.000046319,-0.000337993,-0.495923758,0.022339091,9.773577690
1783618806.289846,0.004258975,0.049896382,0.833244622,-0.000189788,-0.000539761,0.000177732,-0.496205568,-0.001364680,9.768044472
1783618806.291892,0.004257771,0.049896672,0.833244622,-0.000626618,-0.000998896,-0.000043522,-0.493181288,0.027159043,9.783922195
1783618806.293865,0.004257771,0.049896672,0.833244622,-0.000688703,-0.000978362,0.000158718,-0.480003059,0.041269831,9.792095184
1783618806.295883,0.004257771,0.049896672,0.833244622,-0.000420759,-0.000304351,0.000887875,-0.495726705,0.040104922,9.795209885
1783618806.297892,0.004257912,0.049896609,0.833244622,-0.000545251,0.000642299,0.001060053,-0.496466964,0.051893771,9.776904106
1783618806.299874,0.004257912,0.049896609,0.833244622,-0.000871099,0.001159116,0.000425970,-0.486044735,0.023893170,9.789287567
1783618806.301863,0.004257054,0.049896296,0.833244741,-0.000681354,0.000971150,0.000268462,-0.480815738,0.048839435,9.800212860
1783618806.303988,0.004257054,0.049896296,0.833244741,-0.000187890,0.000376644,0.000765496,-0.472317189,0.045276877,9.781816483
1783618806.305872,0.004257054,0.049896296,0.833244741,0.000102546,0.000285176,0.001309891,-0.464522988,0.059459850,9.789536476
1783618806.307866,0.004258310,0.049895458,0.833244801,0.000245144,0.000542828,0.001780382,-0.475246131,0.025610626,9.780342102
1783618806.309863,0.004258310,0.049895458,0.833244801,-0.000013705,0.000468986,0.001380972,-0.496737778,0.029492542,9.777208328
1783618806.311864,0.004259338,0.049895890,0.833244622,-0.000673657,0.000294392,0.001070532,-0.501929700,0.046075672,9.785827637
1783618806.313892,0.004259338,0.049895890,0.833244622,-0.001191194,0.000236054,0.001422363,-0.483152360,0.040433232,9.789396286
1783618806.315875,0.004259338,0.049895890,0.833244622,-0.001295613,0.000246716,0.001336413,-0.458716899,0.056335229,9.777417183
1783618806.317920,0.004260147,0.049895059,0.833244741,-0.001098304,0.000449638,0.001257270,-0.474897444,0.054705843,9.783667564
1783618806.319896,0.004260147,0.049895059,0.833244741,-0.000811685,0.000363926,0.000873607,-0.485393137,0.041294321,9.798366547
1783618806.321888,0.004260016,0.049894687,0.833244741,-0.000896333,-0.000143560,0.000302339,-0.504009545,0.059149351,9.778288841
1783618806.324001,0.004260016,0.049894687,0.833244741,-0.001063530,-0.000224575,-0.000040176,-0.504829109,0.067474969,9.806137085
1783618806.325896,0.004260016,0.049894687,0.833244741,-0.000997561,0.000292238,-0.000593069,-0.513034046,0.056840111,9.804268837
1783618806.327882,0.004260922,0.049896915,0.833244622,-0.000626805,0.000448266,-0.000834095,-0.506068289,0.038851932,9.801021576
1783618806.329881,0.004260922,0.049896915,0.833244622,0.000158595,-0.000149137,-0.000435165,-0.510669947,0.027872557,9.778082848
1783618806.331913,0.004259967,0.049897790,0.833244622,0.000515596,-0.000384912,0.000000635,-0.495092422,0.054532494,9.781405449
1783618806.333893,0.004259967,0.049897790,0.833244622,0.000856671,0.000182192,0.000033527,-0.467559278,0.030030666,9.774997711
1783618806.335892,0.004259967,0.049897790,0.833244622,0.001628835,0.000518122,-0.000014317,-0.508024096,0.023825491,9.775367737
1783618806.337893,0.004258968,0.049898539,0.833244622,0.001951940,0.000439225,0.000309682,-0.495719045,0.040165331,9.786693573
1783618806.339898,0.004258968,0.049898539,0.833244622,0.001446757,0.000496513,0.000743745,-0.492432654,0.051810239,9.781391144
1783618806.341896,0.004259955,0.049898583,0.833244622,0.000643557,0.000382163,0.000859824,-0.490518719,0.060022239,9.757235527
1783618806.343990,0.004259955,0.049898583,0.833244622,0.000288268,-0.000206931,0.000833623,-0.515637219,0.026471090,9.795104027
1783618806.345900,0.004259955,0.049898583,0.833244622,0.000323306,-0.000277494,0.000528171,-0.480450511,0.040475056,9.778639793
1783618806.347900,0.004259660,0.049898438,0.833244622,0.000285048,0.000428642,0.000165358,-0.473632693,0.045535780,9.747743607
1783618806.349894,0.004259660,0.049898438,0.833244622,0.000273934,0.000921996,0.000370308,-0.462975115,0.037629843,9.769222260
1783618806.351899,0.004259410,0.049897071,0.833244622,0.000371236,0.001027389,0.000662779,-0.449912548,0.043127626,9.791687012
1783618806.353901,0.004259410,0.049897071,0.833244622,-0.000068150,0.000661791,0.000529582,-0.498636514,0.020994730,9.778497696
1783618806.355907,0.004259410,0.049897071,0.833244622,-0.000895759,0.000292602,0.000485325,-0.508413613,0.030782398,9.805898666
1783618806.357911,0.004259530,0.049897451,0.833244622,-0.001240682,0.000540854,0.000781308,-0.516995788,0.025579698,9.796891212
1783618806.359914,0.004259530,0.049897451,0.833244622,-0.001221172,0.000560222,0.000436853,-0.483521581,0.009555715,9.784714699
1783618806.361907,0.004258608,0.049896952,0.833244622,-0.001607390,0.000291769,0.000003192,-0.489879310,0.041358162,9.797466278
1783618806.363977,0.004258608,0.049896952,0.833244622,-0.002428379,0.000511576,0.000410804,-0.473960519,0.057842799,9.781894684
1783618806.365910,0.004258608,0.049896952,0.833244622,-0.002322815,0.000432894,0.000256238,-0.481345654,0.077688970,9.776635170
1783618806.367911,0.004261469,0.049896766,0.833244622,-0.001332812,-0.000479680,0.000050065,-0.483709663,0.031476587,9.789787292
1783618806.369914,0.004261469,0.049896766,0.833244622,-0.000502851,-0.000952422,0.000677340,-0.493059695,0.037439890,9.787126541
1783618806.371919,0.004260615,0.049897231,0.833244622,0.000106230,-0.000970436,0.000738989,-0.487702817,0.033911217,9.769623756
1783618806.373914,0.004260615,0.049897231,0.833244622,0.000284427,-0.000546170,0.000370724,-0.468107611,0.059950624,9.789984703
1783618806.375918,0.004260615,0.049897231,0.833244622,0.000312435,0.000446089,0.000412971,-0.482233614,0.044237174,9.819908142
1783618806.377920,0.004260037,0.049896900,0.833244622,0.000436874,0.000753947,0.000423550,-0.525647521,0.052959897,9.805576324
1783618806.379934,0.004260037,0.049896900,0.833244622,0.000504252,0.000370148,-0.000167879,-0.512618601,0.054950301,9.817256927
1783618806.381926,0.004260693,0.049897533,0.833244622,0.000427000,0.000022467,-0.001014500,-0.485654920,0.056959618,9.801156044
1783618806.384000,0.004260693,0.049897533,0.833244622,-0.000005868,0.000096124,-0.001449513,-0.464236736,0.045608640,9.783620834
1783618806.385941,0.004260693,0.049897533,0.833244622,-0.000716661,0.000509935,-0.001097120,-0.501860499,0.087859459,9.769507408
1783618806.387934,0.004262229,0.049897864,0.833244622,-0.001383803,0.000503474,-0.000264701,-0.525940001,0.062709868,9.758115768
1783618806.389929,0.004262229,0.049897864,0.833244622,-0.001622307,-0.000095772,-0.000004196,-0.525248945,0.047289640,9.783123016
1783618806.391941,0.004262714,0.049899030,0.833244622,-0.001759224,-0.000478494,0.000149834,-0.482326597,0.033372011,9.772763252
1783618806.393935,0.004262714,0.049899030,0.833244622,-0.001944880,-0.000307392,0.000426880,-0.485200226,0.019411603,9.787915230
1783618806.395938,0.004262714,0.049899030,0.833244622,-0.001481148,-0.000060665,0.000215145,-0.481266648,0.048422664,9.796623230
1783618806.397939,0.004262920,0.049898565,0.833244622,-0.000619304,0.000060200,-0.000064959,-0.477668583,0.048443448,9.787211418
1783618806.399943,0.004262920,0.049898565,0.833244622,-0.000153849,0.000203333,-0.000160653,-0.470637798,0.073827401,9.796348572
1783618806.401942,0.004264216,0.049897816,0.833244622,-0.000033800,0.000059637,-0.000502871,-0.487631738,0.078141108,9.787392616
1783618806.404011,0.004264216,0.049897816,0.833244622,0.000484223,-0.000338228,-0.000662864,-0.513483644,0.055622797,9.787222862
1783618806.405946,0.004264216,0.049897816,0.833244622,0.001239223,-0.000672344,-0.000093095,-0.511152446,0.026801148,9.803629875
1783618806.407946,0.004263815,0.049898922,0.833244622,0.000978350,-0.000725126,0.000014869,-0.520090163,0.029229071,9.793324471
1783618806.409948,0.004263815,0.049898922,0.833244622,0.000195350,-0.000415310,0.000112569,-0.497669131,0.028830316,9.809035301
1783618806.411951,0.004263738,0.049898963,0.833244622,0.000255831,-0.000253733,0.000725942,-0.478539675,0.051905084,9.806062698
1783618806.413976,0.004263738,0.049898963,0.833244622,0.000644660,-0.000206538,0.000324498,-0.478031129,0.055613391,9.787705421
1783618806.415959,0.004263738,0.049898963,0.833244622,0.000495940,0.000029939,0.000122749,-0.487602502,0.042403396,9.772367477
1783618806.417960,0.004263856,0.049898859,0.833244622,0.000041858,0.000147734,0.000660892,-0.489523709,0.032917473,9.786652565
1783618806.419993,0.004263856,0.049898859,0.833244622,-0.000448481,0.000243347,-0.000265057,-0.487152576,0.042407192,9.771023750
1783618806.422039,0.004264535,0.049899090,0.833244622,-0.000983920,0.000391456,-0.001679571,-0.496225506,0.033636089,9.760646820
1783618806.424088,0.004264535,0.049899090,0.833244622,-0.000959075,0.000702568,-0.001354353,-0.498135507,0.024239184,9.762378693
1783618806.426013,0.004264535,0.049899090,0.833244622,-0.000325350,0.001152466,-0.000447296,-0.482523978,0.055219747,9.788147926
1783618806.428004,0.004265283,0.049898516,0.833244622,0.000297772,0.001265247,-0.000238750,-0.504800022,0.032140702,9.797392845
1783618806.430007,0.004265283,0.049898516,0.833244622,0.000643539,0.001314346,-0.000376012,-0.487042189,0.052599017,9.786780357
1783618806.432012,0.004266134,0.049898691,0.833244622,0.000478194,0.001228508,-0.000459295,-0.491488367,0.056221105,9.789489746
1783618806.434009,0.004266134,0.049898691,0.833244622,-0.000079931,0.000846045,-0.000414132,-0.494224876,0.017505810,9.820173264
1783618806.436011,0.004266134,0.049898691,0.833244622,-0.000521572,0.000658132,-0.000434938,-0.480320603,0.050416052,9.766597748
1783618806.438012,0.004267110,0.049899247,0.833244622,-0.000480742,0.000607325,-0.000449039,-0.485422522,0.038225356,9.788931847
1783618806.440014,0.004267110,0.049899247,0.833244622,-0.000127304,0.000457389,-0.000224752,-0.490096807,0.060210075,9.793104172
1783618806.442029,0.004268166,0.049898937,0.833244622,0.000403422,0.000472981,-0.000349061,-0.481908441,0.032314535,9.794725418
1783618806.444104,0.004268166,0.049898937,0.833244622,0.000661656,0.000218503,-0.000892599,-0.493979156,0.074056402,9.806189537
1783618806.446031,0.004268166,0.049898937,0.833244622,0.000174756,-0.000517689,-0.001274651,-0.504882038,0.063004896,9.804765701
1783618806.448035,0.004269216,0.049899325,0.833244562,-0.000359895,-0.000927390,-0.001335930,-0.480710328,0.019376365,9.784780502
1783618806.450026,0.004269216,0.049899325,0.833244562,-0.000583856,-0.000835419,-0.000764371,-0.482824773,0.028529678,9.761525154
1783618806.452032,0.004268949,0.049899232,0.833244562,-0.000405843,-0.000953086,-0.000186017,-0.484233201,0.098777033,9.777664185
1783618806.454034,0.004268949,0.049899232,0.833244562,0.000193209,-0.001185646,-0.000125801,-0.509113789,0.046129502,9.791202545
1783618806.456030,0.004268949,0.049899232,0.833244562,0.000508452,-0.000902449,-0.000296227,-0.486293435,0.039256781,9.771453857
1783618806.458030,0.004269088,0.049899083,0.833244562,0.000252367,-0.000527252,-0.000690988,-0.464253873,0.008288567,9.802209854
1783618806.460039,0.004269088,0.049899083,0.833244562,-0.000098853,-0.000397140,-0.000817161,-0.468872160,0.032742035,9.774117470
1783618806.462049,0.004268488,0.049898390,0.833244562,-0.000320094,-0.000359160,-0.000512198,-0.492112011,0.041472755,9.785360336
1783618806.464121,0.004268488,0.049898390,0.833244562,-0.000734334,-0.000328654,-0.000308474,-0.484813899,0.088419266,9.786115646
1783618806.466049,0.004268488,0.049898390,0.833244562,-0.001056414,-0.000469421,0.000037567,-0.488412440,0.051615406,9.801568031
1783618806.468050,0.004269205,0.049898073,0.833244562,-0.000934139,-0.000972796,0.000450454,-0.515856504,0.042066816,9.744543076
1783618806.470045,0.004269205,0.049898073,0.833244562,-0.000606716,-0.001106087,0.000427984,-0.499110699,0.053526528,9.741044998
1783618806.472063,0.004269811,0.049898569,0.833244562,-0.000148271,-0.000970463,0.000232743,-0.490526885,0.061578792,9.790421486
1783618806.474051,0.004269811,0.049898569,0.833244562,0.000310114,-0.001105997,-0.000073062,-0.474441051,0.057597350,9.817311287
1783618806.476048,0.004269811,0.049898569,0.833244562,0.000125137,-0.000782831,-0.000673400,-0.488974929,0.041807350,9.795676231
1783618806.478049,0.004269270,0.049898989,0.833244562,-0.000513846,-0.000326866,-0.000965897,-0.508035243,0.025763227,9.817973137
1783618806.480052,0.004269270,0.049898989,0.833244562,-0.000635900,0.000123938,-0.000582062,-0.495864898,0.028477011,9.792447090
1783618806.482069,0.004268841,0.049899206,0.833244562,-0.000084738,0.001076632,-0.000496517,-0.491260409,0.036641795,9.770087242
1783618806.484144,0.004268841,0.049899206,0.833244562,0.000388400,0.001768117,-0.000145270,-0.501195312,0.033835687,9.804579735
1783618806.486068,0.004268841,0.049899206,0.833244562,0.000450815,0.001389065,0.000737056,-0.483932078,0.013510448,9.796397209
1783618806.488062,0.004267906,0.049899071,0.833244622,0.000637174,0.000594304,0.000582876,-0.504962564,0.018295247,9.791475296
1783618806.490066,0.004267906,0.049899071,0.833244622,0.000924809,0.000487204,-0.000429162,-0.490886062,0.031590827,9.786642075
1783618806.492070,0.004267728,0.049899120,0.833244622,0.000955092,0.000607558,-0.000912876,-0.489459127,0.036669675,9.762915611
1783618806.494069,0.004267728,0.049899120,0.833244622,0.000847736,0.000514313,-0.000887382,-0.490210146,0.050399449,9.786764145
1783618806.496067,0.004267728,0.049899120,0.833244622,0.001207180,0.000748760,-0.001046948,-0.458361059,0.048301157,9.772434235
1783618806.498069,0.004267837,0.049898446,0.833244562,0.001358820,0.000846308,-0.000766633,-0.506096900,0.034979269,9.778580666
1783618806.500075,0.004267837,0.049898446,0.833244562,0.000396649,0.000476189,-0.000115294,-0.498418540,0.037305750,9.752599716
1783618806.502086,0.004267746,0.049898777,0.833244622,0.000076359,0.000257451,0.000197622,-0.484681487,0.026442869,9.806342125
1783618806.504160,0.004267746,0.049898777,0.833244622,0.000664140,0.000738549,0.000213829,-0.491391748,0.028714852,9.813972473
1783618806.506089,0.004267746,0.049898777,0.833244622,0.000334060,0.001257421,0.000514198,-0.480804950,0.012145395,9.793701172
1783618806.508082,0.004267112,0.049898848,0.833244622,-0.000746194,0.000923616,0.000872128,-0.469144315,0.012761472,9.812097549
1783618806.510080,0.004267112,0.049898848,0.833244622,-0.001354691,0.000322519,0.000481300,-0.491040587,0.054182239,9.760335922
1783618806.512087,0.004267675,0.049898770,0.833244622,-0.001231254,0.000437044,0.000110306,-0.454982638,0.068778098,9.785121918
1783618806.514094,0.004267675,0.049898770,0.833244622,-0.000813675,0.000820160,0.000293526,-0.481335670,0.041798640,9.783130646
1783618806.516088,0.004267675,0.049898770,0.833244622,-0.000388984,0.000557428,0.000514431,-0.492833614,0.019871451,9.800015450
1783618806.518093,0.004266860,0.049898244,0.833244622,-0.000262408,0.000170342,0.000619822,-0.521370232,0.035441462,9.804123878
1783618806.520121,0.004266860,0.049898244,0.833244622,-0.000799900,0.000183020,0.000715292,-0.491791606,0.067912005,9.784184456
1783618806.522108,0.004268295,0.049898569,0.833244562,-0.001676694,0.000379915,0.000387975,-0.496767312,0.028043730,9.791994095
1783618806.524186,0.004268295,0.049898569,0.833244562,-0.001828478,0.000392549,0.000077366,-0.490722090,0.044232305,9.772826195
1783618806.526105,0.004268295,0.049898569,0.833244562,-0.001650758,0.000413655,0.000339013,-0.479720354,0.064169914,9.784620285
1783618806.528100,0.004269201,0.049897958,0.833244562,-0.001373971,0.000679320,0.000549302,-0.479948193,0.045755807,9.791227341
1783618806.530100,0.004269201,0.049897958,0.833244562,-0.000668779,0.000668105,0.000918775,-0.487335622,0.027182868,9.770030022
1783618806.532108,0.004268639,0.049898662,0.833244562,-0.000514862,0.000738357,0.000772606,-0.498302311,0.049975488,9.797961235
1783618806.534105,0.004268639,0.049898662,0.833244562,-0.000707827,0.000833583,-0.000110343,-0.492879599,0.053045403,9.797537804
1783618806.536107,0.004268639,0.049898662,0.833244562,-0.000327307,0.000679131,-0.000392945,-0.491112888,0.048342839,9.762539864
1783618806.538110,0.004268568,0.049899410,0.833244622,0.000022971,0.000725274,-0.000182627,-0.488710612,0.062130935,9.772494316
1783618806.540109,0.004268568,0.049899410,0.833244622,-0.000211751,0.000567176,-0.000193724,-0.492494315,0.046460137,9.777769089
1783618806.542122,0.004268616,0.049899772,0.833244622,-0.000240401,0.000129582,-0.000708830,-0.503979862,0.024224887,9.774926186
1783618806.544197,0.004268616,0.049899772,0.833244622,0.000062964,-0.000318248,-0.001156490,-0.502910197,0.038541790,9.775916100
1783618806.546130,0.004268616,0.049899772,0.833244622,0.000140494,-0.000429939,-0.000994239,-0.478431463,0.058027465,9.763957977
1783618806.548142,0.004268529,0.049899705,0.833244622,0.000076679,0.000083524,-0.000800711,-0.471761733,0.051787425,9.747338295
1783618806.550134,0.004268529,0.049899705,0.833244622,-0.000002439,0.000799470,-0.000585668,-0.460347593,0.032626439,9.775022507
1783618806.552125,0.004268338,0.049898610,0.833244562,0.000302073,0.001423569,-0.000175139,-0.490735620,0.043720752,9.781787872
1783618806.554126,0.004268338,0.049898610,0.833244562,0.000644612,0.001406946,0.000446426,-0.502217174,0.059917342,9.793089867
1783618806.556120,0.004268338,0.049898610,0.833244562,0.000382209,0.000860712,0.000841285,-0.496281743,0.030760719,9.787081718
1783618806.558131,0.004268298,0.049898975,0.833244562,0.000048717,0.000505189,0.000334666,-0.496385127,0.021839654,9.781642914
1783618806.560128,0.004268298,0.049898975,0.833244562,0.000150819,0.000298907,-0.000430699,-0.472675711,0.052478623,9.777828217
1783618806.562151,0.004269604,0.049899161,0.833244562,0.000261292,0.000165579,-0.000879796,-0.500206232,0.041436344,9.805078506
1783618806.564224,0.004269604,0.049899161,0.833244562,0.000107127,0.000211986,-0.000719133,-0.511750937,0.050246529,9.784052849
1783618806.566143,0.004269604,0.049899161,0.833244562,-0.000129917,0.000461800,-0.000384465,-0.527790189,0.023083970,9.789242744
1783618806.568145,0.004269066,0.049900297,0.833244562,-0.000610728,0.000470107,-0.000629519,-0.517900705,0.023910642,9.781188011
1783618806.570138,0.004269066,0.049900297,0.833244562,-0.000633485,0.000617948,-0.001023349,-0.498801500,0.045530237,9.793897629
1783618806.572138,0.004269176,0.049900461,0.833244562,-0.000504454,0.000849078,-0.001146866,-0.479566514,0.039141927,9.775494576
1783618806.574139,0.004269176,0.049900461,0.833244562,-0.001159446,0.000463237,-0.000537103,-0.475562185,0.035579629,9.765163422
1783618806.576143,0.004269176,0.049900461,0.833244562,-0.001583730,0.000160599,0.000394466,-0.491985857,0.015415316,9.795056343
1783618806.578145,0.004268302,0.049900647,0.833244562,-0.001615907,0.000406784,0.000805366,-0.519082129,0.039412566,9.808633804
1783618806.580147,0.004268302,0.049900647,0.833244562,-0.001348281,0.000745092,0.001087999,-0.479432166,0.013554706,9.782054901
1783618806.582166,0.004267068,0.049899857,0.833244622,-0.000593856,0.000912963,0.001384604,-0.499788582,0.040375680,9.827487946
1783618806.584227,0.004267068,0.049899857,0.833244622,0.000224823,0.000834473,0.001581936,-0.510910511,0.047353305,9.811383247
1783618806.586161,0.004267068,0.049899857,0.833244622,0.000710736,0.000440817,0.001019618,-0.480119914,0.032647293,9.807731628
1783618806.588161,0.004267209,0.049899265,0.833244622,0.000632398,0.000215247,0.000194439,-0.493305504,0.055662602,9.808314323
1783618806.590157,0.004267209,0.049899265,0.833244622,0.000166131,0.000772313,0.000084072,-0.476549417,0.066798352,9.787330627
1783618806.592154,0.004268546,0.049898710,0.833244622,-0.000209701,0.001283527,0.000491599,-0.502481818,0.075560398,9.799018860
1783618806.594155,0.004268546,0.049898710,0.833244622,0.000002552,0.001382815,0.000444745,-0.508431673,0.026992409,9.771800995
1783618806.596161,0.004268546,0.049898710,0.833244622,0.000283952,0.001314323,-0.000330095,-0.497906297,0.007506245,9.783791542
1783618806.598178,0.004267476,0.049899761,0.833244622,0.000068075,0.000888547,-0.000500181,-0.464163870,0.015077941,9.792391777
1783618806.600169,0.004267476,0.049899761,0.833244622,-0.000270048,0.000632662,-0.000353295,-0.503791690,0.041110691,9.794312477
1783618806.602181,0.004267945,0.049900241,0.833244562,-0.000170303,0.000624062,-0.000497475,-0.504232347,0.041180022,9.785346985
1783618806.604253,0.004267945,0.049900241,0.833244562,-0.000097034,0.000689345,-0.000529901,-0.489744961,0.050524067,9.768384933
1783618806.606181,0.004267945,0.049900241,0.833244562,-0.000043507,0.000754790,-0.000535372,-0.479656458,0.031542499,9.773202896
1783618806.608176,0.004267637,0.049900282,0.833244562,0.000084238,0.000657294,-0.000503922,-0.481183618,0.053941280,9.776482582
1783618806.610174,0.004267637,0.049900282,0.833244562,-0.000061027,0.000335411,-0.000248113,-0.492377698,0.055486128,9.768412590
1783618806.612175,0.004268917,0.049900793,0.833244562,-0.000108106,0.000496825,-0.000149719,-0.493003339,0.079931997,9.797262192
1783618806.614191,0.004268917,0.049900793,0.833244562,0.000366636,0.000791131,-0.000437283,-0.477694362,0.045403108,9.773741722
1783618806.616184,0.004268917,0.049900793,0.833244562,0.000981291,0.000681523,-0.001117495,-0.491369009,0.028489467,9.782588005
