time_sec,roll_rad,pitch_rad,yaw_rad,gyro_x,gyro_y,gyro_z,acc_x,acc_y,acc_z
1783618485.051390,-0.015548116,-0.003235041,-0.458079517,0.001245961,0.001096061,-0.000318799,0.034866285,-0.170175821,9.805130959
1783618485.053368,-0.015548116,-0.003235041,-0.458079517,0.000954756,0.001239716,-0.000170954,0.058457393,-0.148575559,9.812467575
1783618485.055315,-0.015548116,-0.003235041,-0.458079517,0.001373203,0.001209470,0.000279984,0.082352653,-0.177869961,9.793470383
1783618485.057367,-0.015550883,-0.003237699,-0.458079547,0.001547301,0.000740635,0.000316962,0.036547344,-0.142422661,9.805759430
1783618485.059266,-0.015550883,-0.003237699,-0.458079547,0.001436761,0.000150661,0.000179672,0.019297613,-0.159985930,9.786352158
1783618485.061266,-0.015551142,-0.003236983,-0.458079547,0.001431647,0.000025491,0.000171734,0.010677041,-0.166707382,9.801993370
1783618485.063281,-0.015551142,-0.003236983,-0.458079547,0.001361127,0.000491673,0.000385572,0.020940235,-0.135778293,9.781577110
1783618485.065274,-0.015551142,-0.003236983,-0.458079547,0.001185580,0.001048722,0.000524313,0.032671105,-0.166928679,9.793493271
1783618485.067259,-0.015552390,-0.003236624,-0.458079547,0.000712784,0.001227134,0.000154223,0.018262515,-0.170382425,9.801079750
1783618485.069258,-0.015552390,-0.003236624,-0.458079547,-0.000045691,0.001506117,-0.000205471,0.023597749,-0.138112992,9.790082932
1783618485.071260,-0.015550843,-0.003237324,-0.458079547,-0.000274107,0.001702537,0.000074527,0.054562412,-0.138071269,9.791458130
1783618485.073312,-0.015550843,-0.003237324,-0.458079547,-0.000064737,0.001446589,0.000114411,0.046855923,-0.144267246,9.794548988
1783618485.075273,-0.015550843,-0.003237324,-0.458079547,0.000049225,0.000991890,-0.000074712,0.011758927,-0.151078388,9.807473183
1783618485.077390,-0.015551029,-0.003236534,-0.458079547,0.000021362,0.000568193,0.000382532,0.006327605,-0.154621705,9.811479568
1783618485.079275,-0.015551029,-0.003236534,-0.458079547,-0.000249511,0.000426222,0.000391228,-0.009791567,-0.155361146,9.755418777
1783618485.081256,-0.015551419,-0.003234638,-0.458079547,-0.000867080,-0.000138990,0.000123545,0.026613628,-0.148056075,9.796747208
1783618485.083253,-0.015551419,-0.003234638,-0.458079547,-0.001155127,-0.000589701,0.000127150,0.051048785,-0.170557320,9.766588211
1783618485.085254,-0.015551419,-0.003234638,-0.458079547,-0.000854263,-0.000474563,0.000295526,0.079906836,-0.157248318,9.796291351
1783618485.087255,-0.015552670,-0.003236585,-0.458079547,-0.000528085,-0.000465608,0.000706767,0.045028787,-0.145715311,9.812471390
1783618485.089258,-0.015552670,-0.003236585,-0.458079547,-0.000381036,-0.000563557,0.000590434,0.027394963,-0.159520611,9.769326210
1783618485.091268,-0.015552894,-0.003236432,-0.458079547,-0.000148569,-0.000779372,0.000360667,0.018753106,-0.167220682,9.796616554
1783618485.093269,-0.015552894,-0.003236432,-0.458079547,0.000385703,-0.000616983,0.000267852,0.010094793,-0.141108036,9.794533730
1783618485.095272,-0.015552894,-0.003236432,-0.458079547,0.000490692,-0.000045197,0.000130104,0.028740505,-0.157110810,9.806105614
1783618485.097341,-0.015553999,-0.003236252,-0.458079547,0.000278099,0.000427462,0.000192077,0.028525194,-0.137836397,9.805332184
1783618485.099272,-0.015553999,-0.003236252,-0.458079547,0.000501443,0.000606493,0.000110540,0.038485311,-0.132399738,9.778925896
1783618485.101282,-0.015553189,-0.003236457,-0.458079547,0.000822510,0.000251553,-0.000330399,0.032383706,-0.151060224,9.830806732
1783618485.103303,-0.015553189,-0.003236457,-0.458079547,0.000855430,-0.000202730,-0.000671080,0.008860099,-0.129269302,9.833166122
1783618485.105296,-0.015553189,-0.003236457,-0.458079547,0.000504989,-0.000061211,-0.000989433,0.001157642,-0.135433465,9.831773758
1783618485.107303,-0.015552321,-0.003235174,-0.458079547,0.000019753,0.000599904,-0.000821465,0.015633717,-0.163768440,9.820845604
1783618485.109313,-0.015552321,-0.003235174,-0.458079547,-0.000207899,0.001130840,-0.000157074,0.033405032,-0.180388540,9.794753075
1783618485.111345,-0.015553302,-0.003235297,-0.458079547,0.000127068,0.000903347,-0.000181149,0.056314629,-0.177641422,9.808241844
1783618485.113310,-0.015553302,-0.003235297,-0.458079547,0.000455183,0.000073068,-0.000581345,0.046163190,-0.129266351,9.765502930
1783618485.115305,-0.015553302,-0.003235297,-0.458079547,0.000186211,-0.000565844,-0.000296222,0.052468210,-0.126732200,9.775836945
1783618485.117388,-0.015552764,-0.003235671,-0.458079547,0.000338280,-0.000603499,-0.000013370,0.050099380,-0.135392770,9.800885201
1783618485.119320,-0.015552764,-0.003235671,-0.458079547,0.000887365,-0.000361906,-0.000418881,0.036676981,-0.132078215,9.799997330
1783618485.121307,-0.015552265,-0.003235696,-0.458079547,0.000456539,0.000000165,-0.000245228,0.026846899,-0.164757207,9.813676834
1783618485.123311,-0.015552265,-0.003235696,-0.458079547,-0.000472684,0.000321353,0.000404121,0.024877459,-0.142301783,9.809782982
1783618485.125302,-0.015552265,-0.003235696,-0.458079547,-0.000446725,0.000192089,0.000172238,0.036647290,-0.133933663,9.808953285
1783618485.127309,-0.015551894,-0.003235484,-0.458079547,-0.000048902,-0.000135616,-0.000737510,0.036496699,-0.147280276,9.795865059
1783618485.129303,-0.015551894,-0.003235484,-0.458079547,-0.000261719,-0.000009716,-0.001272657,0.027510511,-0.149287462,9.779253960
1783618485.131309,-0.015551763,-0.003235291,-0.458079547,-0.000578343,0.000261632,-0.001318777,0.052992746,-0.156839773,9.787301064
1783618485.133309,-0.015551763,-0.003235291,-0.458079547,-0.000286714,0.000256015,-0.001406833,0.015330522,-0.190477580,9.796911240
1783618485.135315,-0.015551763,-0.003235291,-0.458079547,0.000469326,0.000424173,-0.001162277,0.028277360,-0.158029601,9.810133934
1783618485.137393,-0.015551920,-0.003234608,-0.458079547,0.001069649,0.000219166,-0.000498467,0.035917271,-0.156411827,9.820912361
1783618485.139320,-0.015551920,-0.003234608,-0.458079547,0.000762415,-0.000333145,-0.000505716,0.014148295,-0.177008778,9.795205116
1783618485.141324,-0.015552707,-0.003234037,-0.458079517,-0.000050002,-0.000113636,-0.001086125,0.025618058,-0.156114236,9.797590256
1783618485.143338,-0.015552707,-0.003234037,-0.458079517,-0.000334170,0.000201297,-0.000911885,0.014944204,-0.148742110,9.788213730
1783618485.145348,-0.015552707,-0.003234037,-0.458079517,-0.000437278,0.000050402,-0.000588336,0.033875152,-0.140609026,9.807561874
1783618485.147333,-0.015552612,-0.003233517,-0.458079517,-0.000386744,-0.000238214,-0.000786674,0.023481628,-0.148755953,9.774770737
1783618485.149339,-0.015552612,-0.003233517,-0.458079517,-0.000021777,-0.000060008,-0.000278610,0.043944467,-0.164200217,9.767518997
1783618485.151328,-0.015553216,-0.003234107,-0.458079517,-0.000022609,0.000521672,0.000256069,0.033295482,-0.152173966,9.796727180
1783618485.153333,-0.015553216,-0.003234107,-0.458079517,-0.000387246,0.000575568,-0.000043031,0.039874054,-0.163186148,9.821320534
1783618485.155356,-0.015553216,-0.003234107,-0.458079517,-0.000674426,0.000326190,-0.000118150,0.038141217,-0.159026578,9.806551933
1783618485.157472,-0.015553421,-0.003234812,-0.458079517,-0.000883375,0.000215186,0.000044143,0.020603495,-0.163968042,9.776912689
1783618485.159348,-0.015553421,-0.003234812,-0.458079517,-0.000869587,0.000455964,0.000254686,0.030489506,-0.161953256,9.790834427
1783618485.161342,-0.015553374,-0.003234693,-0.458079517,-0.000823275,0.000648754,0.000444323,0.031554531,-0.147267893,9.803032875
1783618485.163336,-0.015553374,-0.003234693,-0.458079517,-0.000884115,0.000412015,0.000616323,0.040848561,-0.159346864,9.783685684
1783618485.165351,-0.015553374,-0.003234693,-0.458079517,-0.000873979,0.000204518,0.000488789,0.027983906,-0.145045698,9.812010765
1783618485.167342,-0.015552200,-0.003234176,-0.458079517,-0.000466421,0.000125246,-0.000289050,0.036186378,-0.172829956,9.797942162
1783618485.169353,-0.015552200,-0.003234176,-0.458079517,-0.000062429,-0.000042206,-0.000765880,0.034690727,-0.148966461,9.784195900
1783618485.171349,-0.015552164,-0.003234525,-0.458079517,-0.000350393,-0.000377447,-0.000537701,0.025432771,-0.171761081,9.793007851
1783618485.173353,-0.015552164,-0.003234525,-0.458079517,-0.000756208,-0.000279782,-0.000008845,0.043971404,-0.160340279,9.791752815
1783618485.175359,-0.015552164,-0.003234525,-0.458079517,-0.001191797,0.000224856,0.000378613,0.035637096,-0.180912942,9.801476479
1783618485.177421,-0.015553006,-0.003234718,-0.458079517,-0.001618417,0.000451546,0.000353033,0.020178910,-0.160124600,9.804285049
1783618485.179354,-0.015553006,-0.003234718,-0.458079517,-0.001569242,0.000451145,0.000279893,0.035229996,-0.141773030,9.779759407
1783618485.181355,-0.015551893,-0.003234406,-0.458079517,-0.001373762,0.000283818,0.000767488,0.050012544,-0.144183487,9.777067184
1783618485.183378,-0.015551893,-0.003234406,-0.458079517,-0.001720948,0.000005983,0.000994686,0.030351695,-0.173578009,9.787619591
1783618485.185365,-0.015551893,-0.003234406,-0.458079517,-0.002045751,-0.000264539,0.000654254,0.023505168,-0.145328060,9.796760559
1783618485.187361,-0.015552425,-0.003233846,-0.458079517,-0.001290388,-0.000653406,0.000587278,0.025687004,-0.113116935,9.799659729
1783618485.189369,-0.015552425,-0.003233846,-0.458079517,0.000091685,-0.000857767,0.000883232,0.032497685,-0.144486725,9.788257599
1783618485.191366,-0.015552354,-0.003234287,-0.458079517,0.000871600,-0.000160890,0.001536427,0.029659772,-0.155733913,9.799839020
1783618485.193373,-0.015552354,-0.003234287,-0.458079517,0.000811879,0.000786082,0.001923463,0.032258198,-0.162993029,9.807864189
1783618485.195366,-0.015552354,-0.003234287,-0.458079517,0.000532479,0.001231255,0.001427449,0.046297610,-0.152826816,9.802115440
1783618485.197455,-0.015552161,-0.003234371,-0.458079517,0.000003818,0.001489835,0.000613930,0.039036661,-0.159864053,9.796682358
1783618485.199376,-0.015552161,-0.003234371,-0.458079517,-0.000836521,0.001517360,0.000633432,0.024114583,-0.132717773,9.786532402
1783618485.201376,-0.015550454,-0.003234571,-0.458079547,-0.000999034,0.001369132,0.000882090,-0.003396998,-0.142393917,9.810652733
1783618485.203369,-0.015550454,-0.003234571,-0.458079547,-0.000176883,0.001199555,0.000649194,0.033652581,-0.158981785,9.808340073
1783618485.205375,-0.015550454,-0.003234571,-0.458079547,0.000492891,0.000896482,0.000280074,0.035546433,-0.114148878,9.801008224
1783618485.207375,-0.015548571,-0.003234723,-0.458079517,0.000345070,0.000447455,0.000189410,0.040415410,-0.119196936,9.809049606
1783618485.209377,-0.015548571,-0.003234723,-0.458079517,-0.000234651,-0.000002110,0.000374656,0.020586813,-0.164505035,9.789463043
1783618485.211378,-0.015549547,-0.003234855,-0.458079517,-0.000804272,-0.000527345,0.000724891,0.015385199,-0.147998199,9.808840752
1783618485.213384,-0.015549547,-0.003234855,-0.458079517,-0.000763116,-0.000501795,0.001127447,0.019687351,-0.126109377,9.810331345
1783618485.215388,-0.015549547,-0.003234855,-0.458079517,-0.000561884,0.000271823,0.001280769,0.030375071,-0.132966787,9.810298920
1783618485.217454,-0.015547385,-0.003234256,-0.458079517,-0.000761826,0.000481362,0.001028904,0.041937161,-0.179633662,9.799249649
1783618485.219387,-0.015547385,-0.003234256,-0.458079517,-0.000771185,-0.000211320,0.000497944,0.048891082,-0.161340773,9.797579765
1783618485.221392,-0.015548423,-0.003235782,-0.458079517,-0.000705924,-0.000699817,0.000291869,0.027129710,-0.143477291,9.781982422
1783618485.223408,-0.015548423,-0.003235782,-0.458079517,-0.000940744,-0.000352440,0.000434043,0.033901151,-0.175562114,9.808234215
1783618485.225396,-0.015548423,-0.003235782,-0.458079517,-0.000710835,0.000167060,0.000413375,0.018120056,-0.144048750,9.815594673
1783618485.227400,-0.015547789,-0.003235833,-0.458079517,0.000144600,0.000557973,0.000092599,0.022998575,-0.150237173,9.794935226
1783618485.229396,-0.015547789,-0.003235833,-0.458079517,0.000947116,0.000714600,-0.000105407,0.014561964,-0.142538026,9.798563957
1783618485.231399,-0.015546849,-0.003234728,-0.458079517,0.000897927,0.000692870,-0.000468039,0.028419202,-0.146373078,9.808865547
1783618485.233407,-0.015546849,-0.003234728,-0.458079517,-0.000312999,0.000707378,-0.000679754,0.026952947,-0.157030582,9.798035622
1783618485.235407,-0.015546849,-0.003234728,-0.458079517,-0.000962586,0.000604123,-0.000292697,0.036484849,-0.147779107,9.803035736
1783618485.237479,-0.015546593,-0.003234962,-0.458079517,-0.000332552,0.000535560,-0.000099200,0.044628978,-0.144918203,9.764056206
1783618485.239413,-0.015546593,-0.003234962,-0.458079517,0.000471793,0.000556652,-0.000408589,0.040566444,-0.144247159,9.803061485
1783618485.241410,-0.015546302,-0.003235969,-0.458079517,0.000551161,0.000524036,-0.000725308,0.026623294,-0.147979766,9.785986900
1783618485.243408,-0.015546302,-0.003235969,-0.458079517,-0.000080030,0.000432608,-0.000452055,0.028908584,-0.143220857,9.805747032
1783618485.245414,-0.015546302,-0.003235969,-0.458079517,-0.000580035,0.000076125,0.000124416,0.038546592,-0.161805943,9.818638802
1783618485.247410,-0.015546595,-0.003236253,-0.458079517,-0.000675109,-0.000349128,0.000652186,0.028251754,-0.160663337,9.802495956
1783618485.249429,-0.015546595,-0.003236253,-0.458079517,-0.000705221,-0.000406689,0.000929817,0.045718629,-0.162765235,9.814603806
1783618485.251441,-0.015546589,-0.003237340,-0.458079547,-0.000960865,-0.000425226,0.000662480,0.027228050,-0.135000989,9.786968231
1783618485.253418,-0.015546589,-0.003237340,-0.458079547,-0.001344952,-0.000381492,0.000287214,0.047474079,-0.167556822,9.792158127
1783618485.255414,-0.015546589,-0.003237340,-0.458079547,-0.001548713,-0.000025913,-0.000074497,0.013388932,-0.165776014,9.792137146
1783618485.257499,-0.015548008,-0.003236670,-0.458079517,-0.001603397,0.000538209,-0.000354204,0.027922276,-0.151205882,9.796278954
1783618485.259419,-0.015548008,-0.003236670,-0.458079517,-0.001553859,0.000998104,0.000110365,0.010125864,-0.138836429,9.790064812
1783618485.261419,-0.015547532,-0.003235699,-0.458079517,-0.001703435,0.000815151,0.000120685,0.049558498,-0.142598927,9.807116508
1783618485.263433,-0.015547532,-0.003235699,-0.458079517,-0.001882526,0.000740721,-0.000539498,0.051509187,-0.130044043,9.802267075
1783618485.265418,-0.015547532,-0.003235699,-0.458079517,-0.001739489,0.001056995,-0.000277811,0.035054911,-0.153286830,9.824069977
1783618485.267422,-0.015547258,-0.003235603,-0.458079517,-0.001693947,0.000996723,0.000452667,0.053683996,-0.135883570,9.800437927
1783618485.269422,-0.015547258,-0.003235603,-0.458079517,-0.002023546,0.000761171,0.000586028,0.040968705,-0.148672134,9.794514656
1783618485.271424,-0.015547169,-0.003235920,-0.458079517,-0.002548350,0.000866837,-0.000001696,0.030885154,-0.166835710,9.783629417
1783618485.273428,-0.015547169,-0.003235920,-0.458079517,-0.002608569,0.000511791,-0.000991348,0.018622138,-0.178791344,9.785781860
1783618485.275434,-0.015547169,-0.003235920,-0.458079517,-0.001866024,-0.000566075,-0.001589251,0.034679908,-0.149862364,9.784190178
1783618485.277503,-0.015547739,-0.003236031,-0.458079517,-0.001121323,-0.000815945,-0.001624371,0.037803914,-0.150036171,9.803021431
1783618485.279441,-0.015547739,-0.003236031,-0.458079517,-0.000749886,-0.000008718,-0.001229524,0.025950126,-0.165145978,9.806949615
1783618485.281485,-0.015548944,-0.003235900,-0.458079517,-0.000228941,0.000447103,-0.000364563,0.026737459,-0.138162762,9.791430473
1783618485.283474,-0.015548944,-0.003235900,-0.458079517,0.000127850,0.000207529,-0.000405587,0.036748726,-0.164238602,9.785892487
1783618485.285447,-0.015548944,-0.003235900,-0.458079517,0.000100627,0.000006520,-0.001483080,0.053401802,-0.160400584,9.783243179
1783618485.287442,-0.015549582,-0.003237050,-0.458079547,0.000024845,-0.000231189,-0.001961740,0.035478689,-0.157136634,9.797595024
1783618485.289445,-0.015549582,-0.003237050,-0.458079547,-0.000324012,-0.000587381,-0.001301023,0.013170801,-0.146523803,9.794502258
1783618485.291446,-0.015549750,-0.003236020,-0.458079547,-0.000453570,-0.000870743,-0.000079508,0.019178575,-0.131441012,9.804915428
1783618485.293453,-0.015549750,-0.003236020,-0.458079547,0.000068264,-0.001044937,0.000342163,0.038735379,-0.147347167,9.801245689
1783618485.295453,-0.015549750,-0.003236020,-0.458079547,0.000682517,-0.001369252,0.000143168,0.047969744,-0.127170369,9.782554626
1783618485.297570,-0.015548795,-0.003236691,-0.458079517,0.001149739,-0.001338947,0.000523222,0.041608736,-0.132983327,9.792374611
1783618485.299463,-0.015548795,-0.003236691,-0.458079517,0.001497145,-0.000686421,0.000713351,0.033837289,-0.143744767,9.807540894
1783618485.301455,-0.015548948,-0.003236542,-0.458079517,0.001459787,-0.000280924,0.001013474,0.032596584,-0.173190609,9.792108536
1783618485.303471,-0.015548948,-0.003236542,-0.458079517,0.000852667,-0.000000258,0.001718506,0.043348998,-0.136679038,9.804906845
1783618485.305460,-0.015548948,-0.003236542,-0.458079517,0.000432433,0.000406606,0.001475101,0.042723462,-0.152253345,9.790906906
1783618485.307465,-0.015548602,-0.003236686,-0.458079517,0.000455020,0.000882881,0.000739701,0.025638206,-0.118365280,9.781693459
1783618485.309460,-0.015548602,-0.003236686,-0.458079517,0.000288969,0.001139933,0.000510060,0.032887477,-0.111420266,9.800127029
1783618485.311466,-0.015546652,-0.003237125,-0.458079547,-0.000381268,0.000825484,0.000934810,0.048772898,-0.133599579,9.803136826
1783618485.313464,-0.015546652,-0.003237125,-0.458079547,-0.000816894,0.000486742,0.001424227,0.044003174,-0.156442180,9.810606956
1783618485.315465,-0.015546652,-0.003237125,-0.458079547,-0.000881214,0.000027010,0.000841284,-0.002114765,-0.148183778,9.803444862
1783618485.317537,-0.015546909,-0.003235190,-0.458079517,-0.000749202,-0.000577271,0.000000208,0.015746554,-0.155177683,9.809691429
1783618485.319472,-0.015546909,-0.003235190,-0.458079517,-0.000142764,-0.000540106,-0.000103586,-0.013840119,-0.152958706,9.802953720
1783618485.321468,-0.015546351,-0.003231528,-0.458079457,0.000049783,-0.000027906,0.000400765,0.036876928,-0.153500259,9.787755013
1783618485.323467,-0.015546351,-0.003231528,-0.458079457,-0.000117840,0.000364664,0.001074680,0.050510742,-0.137314379,9.818359375
1783618485.325470,-0.015546351,-0.003231528,-0.458079457,-0.000042074,0.000470957,0.001167794,0.041274413,-0.161154002,9.785020828
1783618485.327473,-0.015547576,-0.003232323,-0.458079457,0.000225873,0.000080330,0.000872320,0.023142137,-0.174941197,9.803295135
1783618485.329476,-0.015547576,-0.003232323,-0.458079457,0.000814742,-0.000603911,0.000565210,0.032751836,-0.160212442,9.793985367
1783618485.331479,-0.015548027,-0.003232309,-0.458079457,0.000975829,-0.000741050,0.000595796,0.020900344,-0.176519871,9.777280807
1783618485.333482,-0.015548027,-0.003232309,-0.458079457,0.000897986,-0.000409415,0.001035364,0.027132301,-0.143051580,9.785122871
1783618485.335487,-0.015548027,-0.003232309,-0.458079457,0.000930379,-0.000452122,0.000595966,0.025858697,-0.136788309,9.788747787
1783618485.337550,-0.015547044,-0.003232474,-0.458079457,0.000861960,-0.000748908,-0.000267311,0.033995762,-0.130741164,9.805831909
1783618485.339494,-0.015547044,-0.003232474,-0.458079457,0.001156766,-0.000633376,0.000171253,0.016518584,-0.128315315,9.811210632
1783618485.341492,-0.015545430,-0.003231423,-0.458079457,0.001336797,-0.000265167,0.001196290,0.026283912,-0.175785154,9.790291786
1783618485.343500,-0.015545430,-0.003231423,-0.458079457,0.000708059,-0.000235191,0.001037894,0.029160149,-0.159372270,9.808333397
1783618485.345493,-0.015545430,-0.003231423,-0.458079457,-0.000023927,-0.000707515,-0.000199897,0.029908694,-0.136747837,9.775751114
1783618485.347492,-0.015543925,-0.003231075,-0.458079457,-0.000162892,-0.001309719,-0.000795546,0.023496710,-0.145394832,9.806176186
1783618485.349514,-0.015543925,-0.003231075,-0.458079457,0.000495787,-0.001597609,-0.000740023,0.021580074,-0.158086076,9.767087936
1783618485.351501,-0.015544252,-0.003230553,-0.458079457,0.001162812,-0.001250490,-0.000840590,0.022203015,-0.177690595,9.813589096
1783618485.353549,-0.015544252,-0.003230553,-0.458079457,0.000462495,-0.000424417,-0.001309683,0.024455855,-0.140866309,9.797688484
1783618485.355538,-0.015544252,-0.003230553,-0.458079457,-0.000249151,-0.000037114,-0.001544616,0.043935392,-0.126276746,9.790179253
1783618485.357627,-0.015543255,-0.003230606,-0.458079427,0.000001532,-0.000291989,-0.000616372,0.026373003,-0.129792020,9.812108040
1783618485.359515,-0.015543255,-0.003230606,-0.458079427,0.000456357,-0.000250482,0.000693355,0.022043070,-0.117147088,9.805906296
1783618485.361511,-0.015541385,-0.003230095,-0.458079427,0.000776635,0.000287837,0.001000426,0.036707588,-0.166589692,9.801569939
1783618485.363508,-0.015541385,-0.003230095,-0.458079427,0.000721947,0.000581305,0.000212215,0.028315803,-0.154484063,9.815537453
1783618485.365511,-0.015541385,-0.003230095,-0.458079427,0.000587077,0.000294244,-0.000707914,0.026302915,-0.136018977,9.805789948
1783618485.367516,-0.015540715,-0.003230473,-0.458079427,0.000614513,0.000116556,-0.000854342,0.032744989,-0.160266489,9.801606178
1783618485.369516,-0.015540715,-0.003230473,-0.458079427,0.000910862,0.000609898,-0.000271135,0.076220818,-0.167689472,9.759008408
1783618485.371517,-0.015541245,-0.003232521,-0.458079457,0.001271688,0.000933502,-0.000135073,0.058589671,-0.176205441,9.791217804
1783618485.373518,-0.015541245,-0.003232521,-0.458079457,0.001439648,0.000633721,-0.000598693,0.028472714,-0.142303273,9.803510666
1783618485.375524,-0.015541245,-0.003232521,-0.458079457,0.001763671,0.000682816,-0.000880470,0.045191269,-0.170269892,9.799760818
1783618485.377591,-0.015542321,-0.003232845,-0.458079457,0.001931061,0.001061195,-0.001065890,0.012221896,-0.150566220,9.797613144
1783618485.379529,-0.015542321,-0.003232845,-0.458079457,0.001667748,0.000836685,-0.001150210,0.025199395,-0.153439805,9.800296783
1783618485.381526,-0.015542268,-0.003232534,-0.458079457,0.001364590,0.000492016,-0.000833733,0.021497572,-0.162384823,9.804720879
1783618485.383538,-0.015542268,-0.003232534,-0.458079457,0.001038581,0.000548048,-0.000601640,0.019420877,-0.147665575,9.817814827
1783618485.385529,-0.015542268,-0.003232534,-0.458079457,0.000650496,0.000032737,-0.000472004,0.033093341,-0.168764427,9.798861504
1783618485.387532,-0.015543018,-0.003232517,-0.458079487,0.000615605,-0.000848868,-0.000452199,0.032831132,-0.153102279,9.802101135
1783618485.389555,-0.015543018,-0.003232517,-0.458079487,0.001143485,-0.000524122,-0.000593971,0.041640829,-0.168698788,9.774212837
1783618485.391537,-0.015544158,-0.003233090,-0.458079487,0.001660358,0.000215778,-0.000820598,0.022030454,-0.156052351,9.795346260
1783618485.393536,-0.015544158,-0.003233090,-0.458079487,0.001686281,0.000110375,-0.000953738,0.056272689,-0.145245731,9.789171219
1783618485.395573,-0.015544158,-0.003233090,-0.458079487,0.001180105,0.000054815,-0.000654305,0.051484428,-0.171071425,9.775103569
1783618485.397644,-0.015545483,-0.003234675,-0.458079487,0.000435834,0.000326478,-0.000778013,0.035115670,-0.149159804,9.810646057
1783618485.399550,-0.015545483,-0.003234675,-0.458079487,0.000399539,0.000395589,-0.001301290,0.061208811,-0.110552683,9.753084183
1783618485.401547,-0.015543366,-0.003236098,-0.458079517,0.000752441,0.000388512,-0.001790521,0.020991961,-0.132127807,9.772184372
1783618485.403541,-0.015543366,-0.003236098,-0.458079517,0.000539964,0.000372190,-0.002436557,0.034358323,-0.137911126,9.805337906
1783618485.405544,-0.015543366,-0.003236098,-0.458079517,0.000239347,0.000376330,-0.002329672,0.035680767,-0.177326083,9.801051140
1783618485.407547,-0.015544149,-0.003236354,-0.458079517,0.000061619,0.000951997,-0.001779204,0.033373095,-0.181856439,9.812227249
1783618485.409545,-0.015544149,-0.003236354,-0.458079517,0.000025794,0.001553667,-0.001918584,0.049128667,-0.141633660,9.798154831
1783618485.411555,-0.015543925,-0.003236826,-0.458079547,0.000177609,0.001720182,-0.002039404,0.030205663,-0.148083001,9.794059753
1783618485.413556,-0.015543925,-0.003236826,-0.458079547,0.000282308,0.001476474,-0.001299080,0.043887120,-0.130305231,9.789704323
1783618485.415560,-0.015543925,-0.003236826,-0.458079547,0.000208811,0.000849906,-0.000654191,0.045054432,-0.181481645,9.801482201
1783618485.417627,-0.015545579,-0.003237092,-0.458079547,0.000268300,0.000578872,-0.001266292,0.033579499,-0.165637612,9.799331665
1783618485.419564,-0.015545579,-0.003237092,-0.458079547,0.000732857,0.000793191,-0.002088325,0.055473682,-0.137568027,9.782047272
1783618485.421558,-0.015545264,-0.003238186,-0.458079547,0.000960830,0.000927973,-0.001947338,0.023462417,-0.147691891,9.814232826
1783618485.423584,-0.015545264,-0.003238186,-0.458079547,0.000614507,0.000648389,-0.000981063,0.004297969,-0.138720363,9.784232140
1783618485.425569,-0.015545264,-0.003238186,-0.458079547,0.000973791,0.000220138,0.000047512,0.035814438,-0.166949838,9.790806770
1783618485.427565,-0.015545874,-0.003238130,-0.458079547,0.001891842,0.000300056,0.000312645,0.033637445,-0.161532849,9.789045334
1783618485.429568,-0.015545874,-0.003238130,-0.458079547,0.001843071,0.000817874,0.000200331,0.037529156,-0.136499390,9.790106773
1783618485.431576,-0.015544878,-0.003238333,-0.458079547,0.001099243,0.000914528,0.000151927,0.031222627,-0.175419509,9.792988777
1783618485.433582,-0.015544878,-0.003238333,-0.458079547,0.000265568,0.000789098,0.000277577,0.018674506,-0.172704324,9.811823845
1783618485.435577,-0.015544878,-0.003238333,-0.458079547,-0.000305942,0.000591445,0.000025592,0.052466486,-0.162714764,9.795332909
1783618485.437649,-0.015544598,-0.003238527,-0.458079547,-0.000342850,0.000320249,-0.000627430,0.028995464,-0.172830179,9.810936928
1783618485.439579,-0.015544598,-0.003238527,-0.458079547,0.000570557,0.000252999,-0.000523271,0.037422359,-0.145042419,9.794534683
1783618485.441579,-0.015543963,-0.003238893,-0.458079547,0.001306439,0.000146040,0.000075899,0.022909388,-0.157020181,9.803859711
1783618485.443578,-0.015543963,-0.003238893,-0.458079547,0.001211066,0.000165812,0.000367514,0.018715015,-0.169952929,9.802875519
1783618485.445589,-0.015543963,-0.003238893,-0.458079547,0.000909199,0.000434488,0.000617104,0.035394039,-0.165504813,9.777364731
1783618485.447582,-0.015545708,-0.003239569,-0.458079547,0.000632432,0.000431621,0.000996301,0.036456879,-0.151241973,9.785976410
1783618485.449602,-0.015545708,-0.003239569,-0.458079547,0.000662052,0.000014827,0.000981770,0.049698718,-0.168545067,9.801121712
